onset	duration	text	rt	key_press	block_duration	timing_post_trial	trial_id	trial_type	trial_index	time_elapsed	internal_node_id	exp_id	subject_id	trigger_times	triggers	stimulus	possible_responses	stim_duration	exp_stage	SS_stimulus	SS_trial_type	SS_duration	load	trial_num	stop_trial_type	adaptive_trial_type	stim	yes_response_key	no_response_key	SSD_target	SSD_non_target	SSTarget	SSNonTarget	go_acc	SS_delay	adaptive_acc	stop_acc	new_trial_type
test	10880	n/a	-1	-1	10880	0.0	practice-no-stop-feedback	poldrack-single-stim	198	622681	0.0-12.0	beast_fmri_test	391	611796,/,612475,/,613154,/,613835,/,614516,/,615196,/,615876,/,616557,/,617238,/,617918,/,618598,/,619279,/,619959,/,620639,/,621319,/,621999,/,622680,/	t,t,t,t,t,t,t,t,t,t,t,t,t,t,t,t,t	"<div class = ""centerbox2_2""><p class = ""block-text2"">Your delay is 2 trials.</p><p class = block-text2>Please wait for the scanner to start the block</p></div>"	77	10880.0	n/a	n/a	n/a	n/a	n/a	n/a	n/a	n/a	n/a	n/a	n/a	n/a	n/a	n/a	n/a	n/a	n/a	n/a	n/a	start_functional_block
11388	500	n/a	-1	-1	500	0.0	fixation	poldrack-single-stim	199	623184	0.0-13.0-0.0	beast_fmri_test	391	n/a	n/a	<div class = centerbox2><div class = fixation>+</div></div>	none	500.0	test	n/a	n/a	n/a	n/a	n/a	n/a	n/a	n/a	n/a	n/a	n/a	n/a	n/a	n/a	n/a	n/a	n/a	n/a	fixation
10896.516990564065	2750	n/a	1436	71	2750	495.483009436	stim	stop-signal	200	625938	0.0-13.0-1.0	beast_fmri_test	391	623361,/,624041,/,624721,/,625400,/,626081,/	t,t,t,t,t	<img class = center src='/static/experiments/beast_fmri_test/images/P.png'></img>	89,71	2750.0	test	<img class = center src='/static/experiments/beast_fmri_test/images/redP.png'></img>	go	-1.0	2.0	0.0	go	temp-non-target	P	89,Middle Finger	71,Index Finger	900.0	1400.0	1900.0	1400.0	0.0	n/a	n/a	n/a	go_stim
13646.516990564065	495.48300943593722	n/a	1436	71	2750	495.483009436	stim	stop-signal	200	625938	0.0-13.0-1.0	beast_fmri_test	391	623361,/,624041,/,624721,/,625400,/,626081,/	t,t,t,t,t	<img class = center src='/static/experiments/beast_fmri_test/images/P.png'></img>	89,71	2750.0	test	<img class = center src='/static/experiments/beast_fmri_test/images/redP.png'></img>	go	-1.0	2.0	0.0	go	temp-non-target	P	89,Middle Finger	71,Index Finger	900.0	1400.0	1900.0	1400.0	0.0	n/a	n/a	n/a	ITI
15165	500	n/a	-1	-1	500	0.0	fixation	poldrack-single-stim	201	626961	0.0-13.1-0.1	beast_fmri_test	391	626762,/	t	<div class = centerbox2><div class = fixation>+</div></div>	none	500.0	test	n/a	n/a	n/a	n/a	n/a	n/a	n/a	n/a	n/a	n/a	n/a	n/a	n/a	n/a	n/a	n/a	n/a	n/a	fixation
14023.426907897927	temp_go_duration	n/a	1802	71	2750	1145.5730921	stim	stop-signal	202	629715	0.0-13.1-1.1	beast_fmri_test	391	627442,/,628122,/,628802,/,629483,/,630163,/,630843,/	t,t,t,t,t,t	<img class = center src='/static/experiments/beast_fmri_test/images/D.png'></img>	89,71	2750.0	test	<img class = center src='/static/experiments/beast_fmri_test/images/redD.png'></img>	stop	-1.0	2.0	1.0	stop	temp-non-target	D	89,Middle Finger	71,Index Finger	900.0	1400.0	1900.0	1400.0	0.0	n/a	n/a	0.0	go_stim
temp-non-target	temp_stop_duration	n/a	1802	71	2750	1145.5730921	stim	stop-signal	202	629715	0.0-13.1-1.1	beast_fmri_test	391	627442,/,628122,/,628802,/,629483,/,630163,/,630843,/	t,t,t,t,t,t	<img class = center src='/static/experiments/beast_fmri_test/images/D.png'></img>	89,71	2750.0	test	<img class = center src='/static/experiments/beast_fmri_test/images/redD.png'></img>	stop	-1.0	2.0	1.0	stop	temp-non-target	D	89,Middle Finger	71,Index Finger	900.0	1400.0	1900.0	1400.0	0.0	n/a	n/a	0.0	stop_stim
16773.426907897927	1145.5730921021095	n/a	1802	71	2750	1145.5730921	stim	stop-signal	202	629715	0.0-13.1-1.1	beast_fmri_test	391	627442,/,628122,/,628802,/,629483,/,630163,/,630843,/	t,t,t,t,t,t	<img class = center src='/static/experiments/beast_fmri_test/images/D.png'></img>	89,71	2750.0	test	<img class = center src='/static/experiments/beast_fmri_test/images/redD.png'></img>	stop	-1.0	2.0	1.0	stop	temp-non-target	D	89,Middle Finger	71,Index Finger	900.0	1400.0	1900.0	1400.0	0.0	n/a	n/a	0.0	ITI
19590	500	n/a	-1	-1	500	0.0	fixation	poldrack-single-stim	203	631386	0.0-13.2-0.2	beast_fmri_test	391	n/a	n/a	<div class = centerbox2><div class = fixation>+</div></div>	none	500.0	test	n/a	n/a	n/a	n/a	n/a	n/a	n/a	n/a	n/a	n/a	n/a	n/a	n/a	n/a	n/a	n/a	n/a	n/a	fixation
18344.870026557939	2750	n/a	1140	89	2750	1250.12997344	stim	stop-signal	204	634141	0.0-13.2-1.2	beast_fmri_test	391	631524,/,632204,/,632884,/,633564,/,634245,/,634925,/	t,t,t,t,t,t	<img class = center src='/static/experiments/beast_fmri_test/images/P.png'></img>	89,71	2750.0	test	<img class = center src='/static/experiments/beast_fmri_test/images/redP.png'></img>	go	1850.0	2.0	2.0	go	target	P	89,Middle Finger	71,Index Finger	900.0	1400.0	1850.0	1400.0	1.0	900.0	1.0	n/a	go_stim
21094.870026557939	1250.129973442037	n/a	1140	89	2750	1250.12997344	stim	stop-signal	204	634141	0.0-13.2-1.2	beast_fmri_test	391	631524,/,632204,/,632884,/,633564,/,634245,/,634925,/	t,t,t,t,t,t	<img class = center src='/static/experiments/beast_fmri_test/images/P.png'></img>	89,71	2750.0	test	<img class = center src='/static/experiments/beast_fmri_test/images/redP.png'></img>	go	1850.0	2.0	2.0	go	target	P	89,Middle Finger	71,Index Finger	900.0	1400.0	1850.0	1400.0	1.0	900.0	1.0	n/a	ITI
24122	500	n/a	-1	-1	500	0.0	fixation	poldrack-single-stim	205	635918	0.0-13.3-0.3	beast_fmri_test	391	635605,/	t	<div class = centerbox2><div class = fixation>+</div></div>	none	500.0	test	n/a	n/a	n/a	n/a	n/a	n/a	n/a	n/a	n/a	n/a	n/a	n/a	n/a	n/a	n/a	n/a	n/a	n/a	fixation
24085.440168998088	2750	n/a	1158	71	2750	41.5598310019	stim	stop-signal	206	638673	0.0-13.3-1.3	beast_fmri_test	391	636286,/,636966,/,637646,/,638326,/	t,t,t,t	<img class = center src='/static/experiments/beast_fmri_test/images/B.png'></img>	89,71	2750.0	test	<img class = center src='/static/experiments/beast_fmri_test/images/redB.png'></img>	go	1350.0	2.0	3.0	go	non-target	B	89,Middle Finger	71,Index Finger	900.0	1400.0	1850.0	1350.0	1.0	1400.0	1.0	n/a	go_stim
26835.440168998088	41.559831001876312	n/a	1158	71	2750	41.5598310019	stim	stop-signal	206	638673	0.0-13.3-1.3	beast_fmri_test	391	636286,/,636966,/,637646,/,638326,/	t,t,t,t	<img class = center src='/static/experiments/beast_fmri_test/images/B.png'></img>	89,71	2750.0	test	<img class = center src='/static/experiments/beast_fmri_test/images/redB.png'></img>	go	1350.0	2.0	3.0	go	non-target	B	89,Middle Finger	71,Index Finger	900.0	1400.0	1850.0	1350.0	1.0	1400.0	1.0	n/a	ITI
27446	500	n/a	-1	-1	500	0.0	fixation	poldrack-single-stim	207	639242	0.0-13.4-0.4	beast_fmri_test	391	639007,/	t	<div class = centerbox2><div class = fixation>+</div></div>	none	500.0	test	n/a	n/a	n/a	n/a	n/a	n/a	n/a	n/a	n/a	n/a	n/a	n/a	n/a	n/a	n/a	n/a	n/a	n/a	fixation
27396.346960075432	1400.0	n/a	-1	-1	2750	53.6530399246	stim	stop-signal	208	641996	0.0-13.4-1.4	beast_fmri_test	391	639686,/,640367,/,641047,/,641727,/	t,t,t,t	<img class = center src='/static/experiments/beast_fmri_test/images/D.png'></img>	89,71	2750.0	test	<img class = center src='/static/experiments/beast_fmri_test/images/redD.png'></img>	stop	1350.0	2.0	4.0	stop	non-target	D	89,Middle Finger	71,Index Finger	900.0	1400.0	1850.0	1350.0	0.0	1400.0	n/a	1.0	go_stim
28746.346960075432	1350.0	n/a	-1	-1	2750	53.6530399246	stim	stop-signal	208	641996	0.0-13.4-1.4	beast_fmri_test	391	639686,/,640367,/,641047,/,641727,/	t,t,t,t	<img class = center src='/static/experiments/beast_fmri_test/images/D.png'></img>	89,71	2750.0	test	<img class = center src='/static/experiments/beast_fmri_test/images/redD.png'></img>	stop	1350.0	2.0	4.0	stop	non-target	D	89,Middle Finger	71,Index Finger	900.0	1400.0	1850.0	1350.0	0.0	1400.0	n/a	1.0	stop_stim
30146.346960075432	53.653039924602396	n/a	-1	-1	2750	53.6530399246	stim	stop-signal	208	641996	0.0-13.4-1.4	beast_fmri_test	391	639686,/,640367,/,641047,/,641727,/	t,t,t,t	<img class = center src='/static/experiments/beast_fmri_test/images/D.png'></img>	89,71	2750.0	test	<img class = center src='/static/experiments/beast_fmri_test/images/redD.png'></img>	stop	1350.0	2.0	4.0	stop	non-target	D	89,Middle Finger	71,Index Finger	900.0	1400.0	1850.0	1350.0	0.0	1400.0	n/a	1.0	ITI
30781	500	n/a	-1	-1	500	0.0	fixation	poldrack-single-stim	209	642577	0.0-13.5-0.5	beast_fmri_test	391	642408,/	t	<div class = centerbox2><div class = fixation>+</div></div>	none	500.0	test	n/a	n/a	n/a	n/a	n/a	n/a	n/a	n/a	n/a	n/a	n/a	n/a	n/a	n/a	n/a	n/a	n/a	n/a	fixation
28034.292230380932	2750	n/a	1092	89	2750	2750.70776962	stim	stop-signal	210	645331	0.0-13.5-1.5	beast_fmri_test	391	643088,/,643768,/,644449,/,645129,/,645810,/,646490,/,647171,/,647851,/	t,t,t,t,t,t,t,t	<img class = center src='/static/experiments/beast_fmri_test/images/B.png'></img>	89,71	2750.0	test	<img class = center src='/static/experiments/beast_fmri_test/images/redB.png'></img>	go	1850.0	2.0	5.0	go	target	B	89,Middle Finger	71,Index Finger	900.0	1450.0	1850.0	1350.0	1.0	900.0	1.0	n/a	go_stim
30784.292230380932	2750.7077696191227	n/a	1092	89	2750	2750.70776962	stim	stop-signal	210	645331	0.0-13.5-1.5	beast_fmri_test	391	643088,/,643768,/,644449,/,645129,/,645810,/,646490,/,647171,/,647851,/	t,t,t,t,t,t,t,t	<img class = center src='/static/experiments/beast_fmri_test/images/B.png'></img>	89,71	2750.0	test	<img class = center src='/static/experiments/beast_fmri_test/images/redB.png'></img>	go	1850.0	2.0	5.0	go	target	B	89,Middle Finger	71,Index Finger	900.0	1450.0	1850.0	1350.0	1.0	900.0	1.0	n/a	ITI
36814	500	n/a	-1	-1	500	0.0	fixation	poldrack-single-stim	211	648610	0.0-13.6-0.6	beast_fmri_test	391	648531,/	t	<div class = centerbox2><div class = fixation>+</div></div>	none	500.0	test	n/a	n/a	n/a	n/a	n/a	n/a	n/a	n/a	n/a	n/a	n/a	n/a	n/a	n/a	n/a	n/a	n/a	n/a	fixation
36709.3888018094	2750	n/a	1402	89	2750	109.611198191	stim	stop-signal	212	651365	0.0-13.6-1.6	beast_fmri_test	391	649211,/,649891,/,650572,/,651252,/	t,t,t,t	<img class = center src='/static/experiments/beast_fmri_test/images/D.png'></img>	89,71	2750.0	test	<img class = center src='/static/experiments/beast_fmri_test/images/redD.png'></img>	go	1850.0	2.0	6.0	go	target	D	89,Middle Finger	71,Index Finger	900.0	1450.0	1850.0	1350.0	1.0	900.0	1.0	n/a	go_stim
39459.3888018094	109.61119819061359	n/a	1402	89	2750	109.611198191	stim	stop-signal	212	651365	0.0-13.6-1.6	beast_fmri_test	391	649211,/,649891,/,650572,/,651252,/	t,t,t,t	<img class = center src='/static/experiments/beast_fmri_test/images/D.png'></img>	89,71	2750.0	test	<img class = center src='/static/experiments/beast_fmri_test/images/redD.png'></img>	go	1850.0	2.0	6.0	go	target	D	89,Middle Finger	71,Index Finger	900.0	1450.0	1850.0	1350.0	1.0	900.0	1.0	n/a	ITI
40206	500	n/a	-1	-1	500	0.0	fixation	poldrack-single-stim	213	652002	0.0-13.7-0.7	beast_fmri_test	391	651932,/	t	<div class = centerbox2><div class = fixation>+</div></div>	none	500.0	test	n/a	n/a	n/a	n/a	n/a	n/a	n/a	n/a	n/a	n/a	n/a	n/a	n/a	n/a	n/a	n/a	n/a	n/a	fixation
39609.152311069658	2750	n/a	1592	71	2750	600.84768893	stim	stop-signal	214	654756	0.0-13.7-1.7	beast_fmri_test	391	652612,/,653293,/,653972,/,654653,/,655334,/	t,t,t,t,t	<img class = center src='/static/experiments/beast_fmri_test/images/D.png'></img>	89,71	2750.0	test	<img class = center src='/static/experiments/beast_fmri_test/images/redD.png'></img>	go	1300.0	2.0	7.0	go	non-target	D	89,Middle Finger	71,Index Finger	900.0	1450.0	1850.0	1300.0	1.0	1450.0	1.0	n/a	go_stim
42359.152311069658	600.8476889303256	n/a	1592	71	2750	600.84768893	stim	stop-signal	214	654756	0.0-13.7-1.7	beast_fmri_test	391	652612,/,653293,/,653972,/,654653,/,655334,/	t,t,t,t,t	<img class = center src='/static/experiments/beast_fmri_test/images/D.png'></img>	89,71	2750.0	test	<img class = center src='/static/experiments/beast_fmri_test/images/redD.png'></img>	go	1300.0	2.0	7.0	go	non-target	D	89,Middle Finger	71,Index Finger	900.0	1450.0	1850.0	1300.0	1.0	1450.0	1.0	n/a	ITI
44087	500	n/a	-1	-1	500	0.0	fixation	poldrack-single-stim	215	655883	0.0-13.8-0.8	beast_fmri_test	391	n/a	n/a	<div class = centerbox2><div class = fixation>+</div></div>	none	500.0	test	n/a	n/a	n/a	n/a	n/a	n/a	n/a	n/a	n/a	n/a	n/a	n/a	n/a	n/a	n/a	n/a	n/a	n/a	fixation
43412.077051091357	1450.0	n/a	1731	71	2750	679.922948909	stim	stop-signal	216	658638	0.0-13.8-1.8	beast_fmri_test	391	656014,/,656694,/,657375,/,658055,/,658735,/	t,t,t,t,t	<img class = center src='/static/experiments/beast_fmri_test/images/V.png'></img>	89,71	2750.0	test	<img class = center src='/static/experiments/beast_fmri_test/images/redV.png'></img>	stop	1300.0	2.0	8.0	stop	non-target	V	89,Middle Finger	71,Index Finger	900.0	1450.0	1850.0	1300.0	0.0	1450.0	n/a	0.0	go_stim
44712.077051091357	1300.0	n/a	1731	71	2750	679.922948909	stim	stop-signal	216	658638	0.0-13.8-1.8	beast_fmri_test	391	656014,/,656694,/,657375,/,658055,/,658735,/	t,t,t,t,t	<img class = center src='/static/experiments/beast_fmri_test/images/V.png'></img>	89,71	2750.0	test	<img class = center src='/static/experiments/beast_fmri_test/images/redV.png'></img>	stop	1300.0	2.0	8.0	stop	non-target	V	89,Middle Finger	71,Index Finger	900.0	1450.0	1850.0	1300.0	0.0	1450.0	n/a	0.0	stop_stim
46162.077051091357	679.92294890864525	n/a	1731	71	2750	679.922948909	stim	stop-signal	216	658638	0.0-13.8-1.8	beast_fmri_test	391	656014,/,656694,/,657375,/,658055,/,658735,/	t,t,t,t,t	<img class = center src='/static/experiments/beast_fmri_test/images/V.png'></img>	89,71	2750.0	test	<img class = center src='/static/experiments/beast_fmri_test/images/redV.png'></img>	stop	1300.0	2.0	8.0	stop	non-target	V	89,Middle Finger	71,Index Finger	900.0	1450.0	1850.0	1300.0	0.0	1450.0	n/a	0.0	ITI
48050	500	n/a	-1	-1	500	0.0	fixation	poldrack-single-stim	217	659846	0.0-13.9-0.9	beast_fmri_test	391	659415,/	t	<div class = centerbox2><div class = fixation>+</div></div>	none	500.0	test	n/a	n/a	n/a	n/a	n/a	n/a	n/a	n/a	n/a	n/a	n/a	n/a	n/a	n/a	n/a	n/a	n/a	n/a	fixation
47253.998430213076	1400.0	n/a	-1	-1	2750	801.001569787	stim	stop-signal	218	662601	0.0-13.9-1.9	beast_fmri_test	391	660096,/,660776,/,661457,/,662137,/,662817,/	t,t,t,t,t	<img class = center src='/static/experiments/beast_fmri_test/images/P.png'></img>	89,71	2750.0	test	<img class = center src='/static/experiments/beast_fmri_test/images/redP.png'></img>	stop	1350.0	2.0	9.0	stop	non-target	P	89,Middle Finger	71,Index Finger	900.0	1400.0	1850.0	1350.0	0.0	1400.0	n/a	1.0	go_stim
48603.998430213076	1350.0	n/a	-1	-1	2750	801.001569787	stim	stop-signal	218	662601	0.0-13.9-1.9	beast_fmri_test	391	660096,/,660776,/,661457,/,662137,/,662817,/	t,t,t,t,t	<img class = center src='/static/experiments/beast_fmri_test/images/P.png'></img>	89,71	2750.0	test	<img class = center src='/static/experiments/beast_fmri_test/images/redP.png'></img>	stop	1350.0	2.0	9.0	stop	non-target	P	89,Middle Finger	71,Index Finger	900.0	1400.0	1850.0	1350.0	0.0	1400.0	n/a	1.0	stop_stim
50003.998430213076	801.00156978693849	n/a	-1	-1	2750	801.001569787	stim	stop-signal	218	662601	0.0-13.9-1.9	beast_fmri_test	391	660096,/,660776,/,661457,/,662137,/,662817,/	t,t,t,t,t	<img class = center src='/static/experiments/beast_fmri_test/images/P.png'></img>	89,71	2750.0	test	<img class = center src='/static/experiments/beast_fmri_test/images/redP.png'></img>	stop	1350.0	2.0	9.0	stop	non-target	P	89,Middle Finger	71,Index Finger	900.0	1400.0	1850.0	1350.0	0.0	1400.0	n/a	1.0	ITI
52134	500	n/a	-1	-1	500	0.0	fixation	poldrack-single-stim	219	663930	0.0-13.10-0.10	beast_fmri_test	391	663497,/	t	<div class = centerbox2><div class = fixation>+</div></div>	none	500.0	test	n/a	n/a	n/a	n/a	n/a	n/a	n/a	n/a	n/a	n/a	n/a	n/a	n/a	n/a	n/a	n/a	n/a	n/a	fixation
50005.468795028399	2750	n/a	1218	89	2750	2133.53120497	stim	stop-signal	220	666685	0.0-13.10-1.10	beast_fmri_test	391	664178,/,664857,/,665538,/,666218,/,666899,/,667579,/,668259,/	t,t,t,t,t,t,t	<img class = center src='/static/experiments/beast_fmri_test/images/V.png'></img>	89,71	2750.0	test	<img class = center src='/static/experiments/beast_fmri_test/images/redV.png'></img>	go	1850.0	2.0	10.0	go	target	V	89,Middle Finger	71,Index Finger	900.0	1450.0	1850.0	1350.0	1.0	900.0	1.0	n/a	go_stim
52755.468795028399	2133.5312049715722	n/a	1218	89	2750	2133.53120497	stim	stop-signal	220	666685	0.0-13.10-1.10	beast_fmri_test	391	664178,/,664857,/,665538,/,666218,/,666899,/,667579,/,668259,/	t,t,t,t,t,t,t	<img class = center src='/static/experiments/beast_fmri_test/images/V.png'></img>	89,71	2750.0	test	<img class = center src='/static/experiments/beast_fmri_test/images/redV.png'></img>	go	1850.0	2.0	10.0	go	target	V	89,Middle Finger	71,Index Finger	900.0	1450.0	1850.0	1350.0	1.0	900.0	1.0	n/a	ITI
57552	500	n/a	-1	-1	500	0.0	fixation	poldrack-single-stim	221	669348	0.0-13.11-0.11	beast_fmri_test	391	668938,/	t	<div class = centerbox2><div class = fixation>+</div></div>	none	500.0	test	n/a	n/a	n/a	n/a	n/a	n/a	n/a	n/a	n/a	n/a	n/a	n/a	n/a	n/a	n/a	n/a	n/a	n/a	fixation
57314.399138152599	2750	n/a	1574	71	2750	241.600861847	stim	stop-signal	222	672102	0.0-13.11-1.11	beast_fmri_test	391	669619,/,670300,/,670980,/,671660,/,672341,/	t,t,t,t,t	<img class = center src='/static/experiments/beast_fmri_test/images/D.png'></img>	89,71	2750.0	test	<img class = center src='/static/experiments/beast_fmri_test/images/redD.png'></img>	go	1300.0	2.0	11.0	go	non-target	D	89,Middle Finger	71,Index Finger	900.0	1450.0	1850.0	1300.0	1.0	1450.0	1.0	n/a	go_stim
60064.399138152599	241.60086184740055	n/a	1574	71	2750	241.600861847	stim	stop-signal	222	672102	0.0-13.11-1.11	beast_fmri_test	391	669619,/,670300,/,670980,/,671660,/,672341,/	t,t,t,t,t	<img class = center src='/static/experiments/beast_fmri_test/images/D.png'></img>	89,71	2750.0	test	<img class = center src='/static/experiments/beast_fmri_test/images/redD.png'></img>	go	1300.0	2.0	11.0	go	non-target	D	89,Middle Finger	71,Index Finger	900.0	1450.0	1850.0	1300.0	1.0	1450.0	1.0	n/a	ITI
61073	500	n/a	-1	-1	500	0.0	fixation	poldrack-single-stim	223	672869	0.0-13.12-0.12	beast_fmri_test	391	n/a	n/a	<div class = centerbox2><div class = fixation>+</div></div>	none	500.0	test	n/a	n/a	n/a	n/a	n/a	n/a	n/a	n/a	n/a	n/a	n/a	n/a	n/a	n/a	n/a	n/a	n/a	n/a	fixation
60929.448535014526	1450.0	n/a	1731	71	2750	148.551464986	stim	stop-signal	224	675624	0.0-13.12-1.12	beast_fmri_test	391	673022,/,673703,/,674382,/,675063,/,675743,/	t,t,t,t,t	<img class = center src='/static/experiments/beast_fmri_test/images/B.png'></img>	89,71	2750.0	test	<img class = center src='/static/experiments/beast_fmri_test/images/redB.png'></img>	stop	1300.0	2.0	12.0	stop	non-target	B	89,Middle Finger	71,Index Finger	900.0	1450.0	1850.0	1300.0	0.0	1450.0	n/a	0.0	go_stim
62229.448535014526	1300.0	n/a	1731	71	2750	148.551464986	stim	stop-signal	224	675624	0.0-13.12-1.12	beast_fmri_test	391	673022,/,673703,/,674382,/,675063,/,675743,/	t,t,t,t,t	<img class = center src='/static/experiments/beast_fmri_test/images/B.png'></img>	89,71	2750.0	test	<img class = center src='/static/experiments/beast_fmri_test/images/redB.png'></img>	stop	1300.0	2.0	12.0	stop	non-target	B	89,Middle Finger	71,Index Finger	900.0	1450.0	1850.0	1300.0	0.0	1450.0	n/a	0.0	stop_stim
63679.448535014526	148.55146498551389	n/a	1731	71	2750	148.551464986	stim	stop-signal	224	675624	0.0-13.12-1.12	beast_fmri_test	391	673022,/,673703,/,674382,/,675063,/,675743,/	t,t,t,t,t	<img class = center src='/static/experiments/beast_fmri_test/images/B.png'></img>	89,71	2750.0	test	<img class = center src='/static/experiments/beast_fmri_test/images/redB.png'></img>	stop	1300.0	2.0	12.0	stop	non-target	B	89,Middle Finger	71,Index Finger	900.0	1450.0	1850.0	1300.0	0.0	1450.0	n/a	0.0	ITI
64504	500	n/a	-1	-1	500	0.0	fixation	poldrack-single-stim	225	676300	0.0-13.13-0.13	beast_fmri_test	391	n/a	n/a	<div class = centerbox2><div class = fixation>+</div></div>	none	500.0	test	n/a	n/a	n/a	n/a	n/a	n/a	n/a	n/a	n/a	n/a	n/a	n/a	n/a	n/a	n/a	n/a	n/a	n/a	fixation
60599.960497452295	2750	n/a	1562	71	2750	3907.03950255	stim	stop-signal	226	679053	0.0-13.13-1.13	beast_fmri_test	391	676424,/,677104,/,677784,/,678463,/,679145,/,679825,/,680505,/,681186,/,681865,/,682546,/	t,t,t,t,t,t,t,t,t,t	<img class = center src='/static/experiments/beast_fmri_test/images/T.png'></img>	89,71	2750.0	test	<img class = center src='/static/experiments/beast_fmri_test/images/redT.png'></img>	go	1350.0	2.0	13.0	go	non-target	T	89,Middle Finger	71,Index Finger	900.0	1400.0	1850.0	1350.0	1.0	1400.0	1.0	n/a	go_stim
63349.960497452295	3907.0395025476892	n/a	1562	71	2750	3907.03950255	stim	stop-signal	226	679053	0.0-13.13-1.13	beast_fmri_test	391	676424,/,677104,/,677784,/,678463,/,679145,/,679825,/,680505,/,681186,/,681865,/,682546,/	t,t,t,t,t,t,t,t,t,t	<img class = center src='/static/experiments/beast_fmri_test/images/T.png'></img>	89,71	2750.0	test	<img class = center src='/static/experiments/beast_fmri_test/images/redT.png'></img>	go	1350.0	2.0	13.0	go	non-target	T	89,Middle Finger	71,Index Finger	900.0	1400.0	1850.0	1350.0	1.0	1400.0	1.0	n/a	ITI
71696	500	n/a	-1	-1	500	0.0	fixation	poldrack-single-stim	227	683492	0.0-13.14-0.14	beast_fmri_test	391	683227,/	t	<div class = centerbox2><div class = fixation>+</div></div>	none	500.0	test	n/a	n/a	n/a	n/a	n/a	n/a	n/a	n/a	n/a	n/a	n/a	n/a	n/a	n/a	n/a	n/a	n/a	n/a	fixation
71442.049241611385	2750	n/a	1120	71	2750	258.950758389	stim	stop-signal	228	686247	0.0-13.14-1.14	beast_fmri_test	391	683907,/,684587,/,685267,/,685947,/	t,t,t,t	<img class = center src='/static/experiments/beast_fmri_test/images/P.png'></img>	89,71	2750.0	test	<img class = center src='/static/experiments/beast_fmri_test/images/redP.png'></img>	go	1350.0	2.0	14.0	go	non-target	P	89,Middle Finger	71,Index Finger	900.0	1400.0	1850.0	1350.0	1.0	1400.0	1.0	n/a	go_stim
74192.049241611385	258.95075838856246	n/a	1120	71	2750	258.950758389	stim	stop-signal	228	686247	0.0-13.14-1.14	beast_fmri_test	391	683907,/,684587,/,685267,/,685947,/	t,t,t,t	<img class = center src='/static/experiments/beast_fmri_test/images/P.png'></img>	89,71	2750.0	test	<img class = center src='/static/experiments/beast_fmri_test/images/redP.png'></img>	go	1350.0	2.0	14.0	go	non-target	P	89,Middle Finger	71,Index Finger	900.0	1400.0	1850.0	1350.0	1.0	1400.0	1.0	n/a	ITI
75236	500	n/a	-1	-1	500	0.0	fixation	poldrack-single-stim	229	687032	0.0-13.15-0.15	beast_fmri_test	391	686628,/	t	<div class = centerbox2><div class = fixation>+</div></div>	none	500.0	test	n/a	n/a	n/a	n/a	n/a	n/a	n/a	n/a	n/a	n/a	n/a	n/a	n/a	n/a	n/a	n/a	n/a	n/a	fixation
74692.75725583185	2750	n/a	855	89	2750	548.242744168	stim	stop-signal	230	689787	0.0-13.15-1.15	beast_fmri_test	391	687308,/,687988,/,688669,/,689349,/,690029,/	t,t,t,t,t	<img class = center src='/static/experiments/beast_fmri_test/images/T.png'></img>	89,71	2750.0	test	<img class = center src='/static/experiments/beast_fmri_test/images/redT.png'></img>	go	1850.0	2.0	15.0	go	target	T	89,Middle Finger	71,Index Finger	900.0	1400.0	1850.0	1350.0	1.0	900.0	1.0	n/a	go_stim
77442.75725583185	548.24274416809772	n/a	855	89	2750	548.242744168	stim	stop-signal	230	689787	0.0-13.15-1.15	beast_fmri_test	391	687308,/,687988,/,688669,/,689349,/,690029,/	t,t,t,t,t	<img class = center src='/static/experiments/beast_fmri_test/images/T.png'></img>	89,71	2750.0	test	<img class = center src='/static/experiments/beast_fmri_test/images/redT.png'></img>	go	1850.0	2.0	15.0	go	target	T	89,Middle Finger	71,Index Finger	900.0	1400.0	1850.0	1350.0	1.0	900.0	1.0	n/a	ITI
79071	500	n/a	-1	-1	500	0.0	fixation	poldrack-single-stim	231	690867	0.0-13.16-0.16	beast_fmri_test	391	690710,/	t	<div class = centerbox2><div class = fixation>+</div></div>	none	500.0	test	n/a	n/a	n/a	n/a	n/a	n/a	n/a	n/a	n/a	n/a	n/a	n/a	n/a	n/a	n/a	n/a	n/a	n/a	fixation
77628.382388500962	2750	n/a	1694	71	2750	1445.6176115	stim	stop-signal	232	693620	0.0-13.16-1.16	beast_fmri_test	391	691390,/,692070,/,692750,/,693431,/,694111,/,694791,/	t,t,t,t,t,t	<img class = center src='/static/experiments/beast_fmri_test/images/B.png'></img>	89,71	2750.0	test	<img class = center src='/static/experiments/beast_fmri_test/images/redB.png'></img>	go	1350.0	2.0	16.0	go	non-target	B	89,Middle Finger	71,Index Finger	900.0	1400.0	1850.0	1350.0	1.0	1400.0	1.0	n/a	go_stim
80378.382388500962	1445.617611499046	n/a	1694	71	2750	1445.6176115	stim	stop-signal	232	693620	0.0-13.16-1.16	beast_fmri_test	391	691390,/,692070,/,692750,/,693431,/,694111,/,694791,/	t,t,t,t,t,t	<img class = center src='/static/experiments/beast_fmri_test/images/B.png'></img>	89,71	2750.0	test	<img class = center src='/static/experiments/beast_fmri_test/images/redB.png'></img>	go	1350.0	2.0	16.0	go	non-target	B	89,Middle Finger	71,Index Finger	900.0	1400.0	1850.0	1350.0	1.0	1400.0	1.0	n/a	ITI
83799	500	n/a	-1	-1	500	0.0	fixation	poldrack-single-stim	233	695595	0.0-13.17-0.17	beast_fmri_test	391	695471,/	t	<div class = centerbox2><div class = fixation>+</div></div>	none	500.0	test	n/a	n/a	n/a	n/a	n/a	n/a	n/a	n/a	n/a	n/a	n/a	n/a	n/a	n/a	n/a	n/a	n/a	n/a	fixation
82896.008312206948	2750	n/a	1343	71	2750	907.991687793	stim	stop-signal	234	698350	0.0-13.17-1.17	beast_fmri_test	391	696152,/,696832,/,697511,/,698193,/,698872,/	t,t,t,t,t	<img class = center src='/static/experiments/beast_fmri_test/images/D.png'></img>	89,71	2750.0	test	<img class = center src='/static/experiments/beast_fmri_test/images/redD.png'></img>	go	1350.0	2.0	17.0	go	non-target	D	89,Middle Finger	71,Index Finger	900.0	1400.0	1850.0	1350.0	1.0	1400.0	1.0	n/a	go_stim
85646.008312206948	907.99168779306399	n/a	1343	71	2750	907.991687793	stim	stop-signal	234	698350	0.0-13.17-1.17	beast_fmri_test	391	696152,/,696832,/,697511,/,698193,/,698872,/	t,t,t,t,t	<img class = center src='/static/experiments/beast_fmri_test/images/D.png'></img>	89,71	2750.0	test	<img class = center src='/static/experiments/beast_fmri_test/images/redD.png'></img>	go	1350.0	2.0	17.0	go	non-target	D	89,Middle Finger	71,Index Finger	900.0	1400.0	1850.0	1350.0	1.0	1400.0	1.0	n/a	ITI
87994	500	n/a	-1	-1	500	0.0	fixation	poldrack-single-stim	235	699790	0.0-13.18-0.18	beast_fmri_test	391	699553,/	t	<div class = centerbox2><div class = fixation>+</div></div>	none	500.0	test	n/a	n/a	n/a	n/a	n/a	n/a	n/a	n/a	n/a	n/a	n/a	n/a	n/a	n/a	n/a	n/a	n/a	n/a	fixation
87853.864194919588	900.0	n/a	757	89	2750	143.13580508	stim	stop-signal	236	702543	0.0-13.18-1.18	beast_fmri_test	391	700234,/,700914,/,701595,/,702275,/	t,t,t,t	<img class = center src='/static/experiments/beast_fmri_test/images/B.png'></img>	89,71	2750.0	test	<img class = center src='/static/experiments/beast_fmri_test/images/redB.png'></img>	stop	1850.0	2.0	18.0	stop	target	B	89,Middle Finger	71,Index Finger	900.0	1400.0	1850.0	1350.0	0.0	900.0	n/a	0.0	go_stim
89703.864194919588	1850.0	n/a	757	89	2750	143.13580508	stim	stop-signal	236	702543	0.0-13.18-1.18	beast_fmri_test	391	700234,/,700914,/,701595,/,702275,/	t,t,t,t	<img class = center src='/static/experiments/beast_fmri_test/images/B.png'></img>	89,71	2750.0	test	<img class = center src='/static/experiments/beast_fmri_test/images/redB.png'></img>	stop	1850.0	2.0	18.0	stop	target	B	89,Middle Finger	71,Index Finger	900.0	1400.0	1850.0	1350.0	0.0	900.0	n/a	0.0	stop_stim
90603.864194919588	143.13580508039561	n/a	757	89	2750	143.13580508	stim	stop-signal	236	702543	0.0-13.18-1.18	beast_fmri_test	391	700234,/,700914,/,701595,/,702275,/	t,t,t,t	<img class = center src='/static/experiments/beast_fmri_test/images/B.png'></img>	89,71	2750.0	test	<img class = center src='/static/experiments/beast_fmri_test/images/redB.png'></img>	stop	1850.0	2.0	18.0	stop	target	B	89,Middle Finger	71,Index Finger	900.0	1400.0	1850.0	1350.0	0.0	900.0	n/a	0.0	ITI
91419	500	n/a	-1	-1	500	0.0	fixation	poldrack-single-stim	237	703215	0.0-13.19-0.19	beast_fmri_test	391	702955,/	t	<div class = centerbox2><div class = fixation>+</div></div>	none	500.0	test	n/a	n/a	n/a	n/a	n/a	n/a	n/a	n/a	n/a	n/a	n/a	n/a	n/a	n/a	n/a	n/a	n/a	n/a	fixation
91385.046979516745	2750	n/a	1723	71	2750	37.9530204833	stim	stop-signal	238	705969	0.0-13.19-1.19	beast_fmri_test	391	703636,/,704316,/,704996,/,705676,/	t,t,t,t	<img class = center src='/static/experiments/beast_fmri_test/images/T.png'></img>	89,71	2750.0	test	<img class = center src='/static/experiments/beast_fmri_test/images/redT.png'></img>	go	1350.0	2.0	19.0	go	non-target	T	89,Middle Finger	71,Index Finger	850.0	1400.0	1850.0	1350.0	1.0	1400.0	1.0	n/a	go_stim
94135.046979516745	37.953020483288363	n/a	1723	71	2750	37.9530204833	stim	stop-signal	238	705969	0.0-13.19-1.19	beast_fmri_test	391	703636,/,704316,/,704996,/,705676,/	t,t,t,t	<img class = center src='/static/experiments/beast_fmri_test/images/T.png'></img>	89,71	2750.0	test	<img class = center src='/static/experiments/beast_fmri_test/images/redT.png'></img>	go	1350.0	2.0	19.0	go	non-target	T	89,Middle Finger	71,Index Finger	850.0	1400.0	1850.0	1350.0	1.0	1400.0	1.0	n/a	ITI
94741	500	n/a	-1	-1	500	0.0	fixation	poldrack-single-stim	239	706537	0.0-13.20-0.20	beast_fmri_test	391	706357,/	t	<div class = centerbox2><div class = fixation>+</div></div>	none	500.0	test	n/a	n/a	n/a	n/a	n/a	n/a	n/a	n/a	n/a	n/a	n/a	n/a	n/a	n/a	n/a	n/a	n/a	n/a	fixation
94111.237931524403	2750	n/a	1888	71	2750	633.762068476	stim	stop-signal	240	709291	0.0-13.20-1.20	beast_fmri_test	391	707037,/,707717,/,708398,/,709077,/,709758,/	t,t,t,t,t	<img class = center src='/static/experiments/beast_fmri_test/images/B.png'></img>	89,71	2750.0	test	<img class = center src='/static/experiments/beast_fmri_test/images/redB.png'></img>	go	1900.0	2.0	20.0	go	target	B	89,Middle Finger	71,Index Finger	850.0	1400.0	1900.0	1350.0	0.0	850.0	0.0	n/a	go_stim
96861.237931524403	633.76206847556682	n/a	1888	71	2750	633.762068476	stim	stop-signal	240	709291	0.0-13.20-1.20	beast_fmri_test	391	707037,/,707717,/,708398,/,709077,/,709758,/	t,t,t,t,t	<img class = center src='/static/experiments/beast_fmri_test/images/B.png'></img>	89,71	2750.0	test	<img class = center src='/static/experiments/beast_fmri_test/images/redB.png'></img>	go	1900.0	2.0	20.0	go	target	B	89,Middle Finger	71,Index Finger	850.0	1400.0	1900.0	1350.0	0.0	850.0	0.0	n/a	ITI
98657	500	n/a	-1	-1	500	0.0	fixation	poldrack-single-stim	241	710453	0.0-13.21-0.21	beast_fmri_test	391	710438,/	t	<div class = centerbox2><div class = fixation>+</div></div>	none	500.0	test	n/a	n/a	n/a	n/a	n/a	n/a	n/a	n/a	n/a	n/a	n/a	n/a	n/a	n/a	n/a	n/a	n/a	n/a	fixation
98145.616857952089	2750	n/a	1270	89	2750	515.383142048	stim	stop-signal	242	713207	0.0-13.21-1.21	beast_fmri_test	391	711118,/,711799,/,712480,/,713159,/	t,t,t,t	<img class = center src='/static/experiments/beast_fmri_test/images/T.png'></img>	89,71	2750.0	test	<img class = center src='/static/experiments/beast_fmri_test/images/redT.png'></img>	go	1900.0	2.0	21.0	go	target	T	89,Middle Finger	71,Index Finger	850.0	1400.0	1900.0	1350.0	1.0	850.0	1.0	n/a	go_stim
100895.61685795209	515.38314204794415	n/a	1270	89	2750	515.383142048	stim	stop-signal	242	713207	0.0-13.21-1.21	beast_fmri_test	391	711118,/,711799,/,712480,/,713159,/	t,t,t,t	<img class = center src='/static/experiments/beast_fmri_test/images/T.png'></img>	89,71	2750.0	test	<img class = center src='/static/experiments/beast_fmri_test/images/redT.png'></img>	go	1900.0	2.0	21.0	go	target	T	89,Middle Finger	71,Index Finger	850.0	1400.0	1900.0	1350.0	1.0	850.0	1.0	n/a	ITI
102455	500	n/a	-1	-1	500	0.0	fixation	poldrack-single-stim	243	714251	0.0-13.22-0.22	beast_fmri_test	391	713840,/	t	<div class = centerbox2><div class = fixation>+</div></div>	none	500.0	test	n/a	n/a	n/a	n/a	n/a	n/a	n/a	n/a	n/a	n/a	n/a	n/a	n/a	n/a	n/a	n/a	n/a	n/a	fixation
102104.2731753519	2750	n/a	1247	71	2750	354.726824648	stim	stop-signal	244	717005	0.0-13.22-1.22	beast_fmri_test	391	714520,/,715200,/,715880,/,716561,/,717241,/	t,t,t,t,t	<img class = center src='/static/experiments/beast_fmri_test/images/T.png'></img>	89,71	2750.0	test	<img class = center src='/static/experiments/beast_fmri_test/images/redT.png'></img>	go	1350.0	2.0	22.0	go	non-target	T	89,Middle Finger	71,Index Finger	850.0	1400.0	1900.0	1350.0	1.0	1400.0	1.0	n/a	go_stim
104854.2731753519	354.72682464806724	n/a	1247	71	2750	354.726824648	stim	stop-signal	244	717005	0.0-13.22-1.22	beast_fmri_test	391	714520,/,715200,/,715880,/,716561,/,717241,/	t,t,t,t,t	<img class = center src='/static/experiments/beast_fmri_test/images/T.png'></img>	89,71	2750.0	test	<img class = center src='/static/experiments/beast_fmri_test/images/redT.png'></img>	go	1350.0	2.0	22.0	go	non-target	T	89,Middle Finger	71,Index Finger	850.0	1400.0	1900.0	1350.0	1.0	1400.0	1.0	n/a	ITI
106094	500	n/a	-1	-1	500	0.0	fixation	poldrack-single-stim	245	717890	0.0-13.23-0.23	beast_fmri_test	391	n/a	n/a	<div class = centerbox2><div class = fixation>+</div></div>	none	500.0	test	n/a	n/a	n/a	n/a	n/a	n/a	n/a	n/a	n/a	n/a	n/a	n/a	n/a	n/a	n/a	n/a	n/a	n/a	fixation
105638.99829412112	850.0	n/a	1111	89	2750	458.001705879	stim	stop-signal	246	720643	0.0-13.23-1.23	beast_fmri_test	391	717920,/,718602,/,719282,/,719961,/,720642,/	t,t,t,t,t	<img class = center src='/static/experiments/beast_fmri_test/images/T.png'></img>	89,71	2750.0	test	<img class = center src='/static/experiments/beast_fmri_test/images/redT.png'></img>	stop	1900.0	2.0	23.0	stop	target	T	89,Middle Finger	71,Index Finger	850.0	1400.0	1900.0	1350.0	0.0	850.0	n/a	0.0	go_stim
107538.99829412112	1900.0	n/a	1111	89	2750	458.001705879	stim	stop-signal	246	720643	0.0-13.23-1.23	beast_fmri_test	391	717920,/,718602,/,719282,/,719961,/,720642,/	t,t,t,t,t	<img class = center src='/static/experiments/beast_fmri_test/images/T.png'></img>	89,71	2750.0	test	<img class = center src='/static/experiments/beast_fmri_test/images/redT.png'></img>	stop	1900.0	2.0	23.0	stop	target	T	89,Middle Finger	71,Index Finger	850.0	1400.0	1900.0	1350.0	0.0	850.0	n/a	0.0	stop_stim
108388.99829412112	458.00170587892336	n/a	1111	89	2750	458.001705879	stim	stop-signal	246	720643	0.0-13.23-1.23	beast_fmri_test	391	717920,/,718602,/,719282,/,719961,/,720642,/	t,t,t,t,t	<img class = center src='/static/experiments/beast_fmri_test/images/T.png'></img>	89,71	2750.0	test	<img class = center src='/static/experiments/beast_fmri_test/images/redT.png'></img>	stop	1900.0	2.0	23.0	stop	target	T	89,Middle Finger	71,Index Finger	850.0	1400.0	1900.0	1350.0	0.0	850.0	n/a	0.0	ITI
109837	500	n/a	-1	-1	500	0.0	fixation	poldrack-single-stim	247	721633	0.0-13.24-0.24	beast_fmri_test	391	721323,/	t	<div class = centerbox2><div class = fixation>+</div></div>	none	500.0	test	n/a	n/a	n/a	n/a	n/a	n/a	n/a	n/a	n/a	n/a	n/a	n/a	n/a	n/a	n/a	n/a	n/a	n/a	fixation
109747.56576417049	2750	n/a	1720	71	2750	93.4342358295	stim	stop-signal	248	724387	0.0-13.24-1.24	beast_fmri_test	391	722003,/,722684,/,723363,/,724044,/	t,t,t,t	<img class = center src='/static/experiments/beast_fmri_test/images/B.png'></img>	89,71	2750.0	test	<img class = center src='/static/experiments/beast_fmri_test/images/redB.png'></img>	go	1350.0	2.0	24.0	go	non-target	B	89,Middle Finger	71,Index Finger	800.0	1400.0	1900.0	1350.0	1.0	1400.0	1.0	n/a	go_stim
112497.56576417049	93.434235829486866	n/a	1720	71	2750	93.4342358295	stim	stop-signal	248	724387	0.0-13.24-1.24	beast_fmri_test	391	722003,/,722684,/,723363,/,724044,/	t,t,t,t	<img class = center src='/static/experiments/beast_fmri_test/images/B.png'></img>	89,71	2750.0	test	<img class = center src='/static/experiments/beast_fmri_test/images/redB.png'></img>	go	1350.0	2.0	24.0	go	non-target	B	89,Middle Finger	71,Index Finger	800.0	1400.0	1900.0	1350.0	1.0	1400.0	1.0	n/a	ITI
113215	500	n/a	-1	-1	500	0.0	fixation	poldrack-single-stim	249	725011	0.0-13.25-0.25	beast_fmri_test	391	724724,/	t	<div class = centerbox2><div class = fixation>+</div></div>	none	500.0	test	n/a	n/a	n/a	n/a	n/a	n/a	n/a	n/a	n/a	n/a	n/a	n/a	n/a	n/a	n/a	n/a	n/a	n/a	fixation
113120.24543626222	2750	n/a	1422	89	2750	98.7545637378	stim	stop-signal	250	727765	0.0-13.25-1.25	beast_fmri_test	391	725405,/,726085,/,726765,/,727445,/	t,t,t,t	<img class = center src='/static/experiments/beast_fmri_test/images/T.png'></img>	89,71	2750.0	test	<img class = center src='/static/experiments/beast_fmri_test/images/redT.png'></img>	go	1950.0	2.0	25.0	go	target	T	89,Middle Finger	71,Index Finger	800.0	1400.0	1950.0	1350.0	1.0	800.0	1.0	n/a	go_stim
115870.24543626222	98.754563737769914	n/a	1422	89	2750	98.7545637378	stim	stop-signal	250	727765	0.0-13.25-1.25	beast_fmri_test	391	725405,/,726085,/,726765,/,727445,/	t,t,t,t	<img class = center src='/static/experiments/beast_fmri_test/images/T.png'></img>	89,71	2750.0	test	<img class = center src='/static/experiments/beast_fmri_test/images/redT.png'></img>	go	1950.0	2.0	25.0	go	target	T	89,Middle Finger	71,Index Finger	800.0	1400.0	1950.0	1350.0	1.0	800.0	1.0	n/a	ITI
116599	500	n/a	-1	-1	500	0.0	fixation	poldrack-single-stim	251	728395	0.0-13.26-0.26	beast_fmri_test	391	728126,/	t	<div class = centerbox2><div class = fixation>+</div></div>	none	500.0	test	n/a	n/a	n/a	n/a	n/a	n/a	n/a	n/a	n/a	n/a	n/a	n/a	n/a	n/a	n/a	n/a	n/a	n/a	fixation
116262.73393186578	800.0	n/a	-1	-1	2750	341.266068134	stim	stop-signal	252	731150	0.0-13.26-1.26	beast_fmri_test	391	728807,/,729487,/,730168,/,730848,/	t,t,t,t	<img class = center src='/static/experiments/beast_fmri_test/images/B.png'></img>	89,71	2750.0	test	<img class = center src='/static/experiments/beast_fmri_test/images/redB.png'></img>	stop	1950.0	2.0	26.0	stop	target	B	89,Middle Finger	71,Index Finger	800.0	1400.0	1950.0	1350.0	0.0	800.0	n/a	1.0	go_stim
118212.73393186578	1950.0	n/a	-1	-1	2750	341.266068134	stim	stop-signal	252	731150	0.0-13.26-1.26	beast_fmri_test	391	728807,/,729487,/,730168,/,730848,/	t,t,t,t	<img class = center src='/static/experiments/beast_fmri_test/images/B.png'></img>	89,71	2750.0	test	<img class = center src='/static/experiments/beast_fmri_test/images/redB.png'></img>	stop	1950.0	2.0	26.0	stop	target	B	89,Middle Finger	71,Index Finger	800.0	1400.0	1950.0	1350.0	0.0	800.0	n/a	1.0	stop_stim
119012.73393186578	341.26606813419619	n/a	-1	-1	2750	341.266068134	stim	stop-signal	252	731150	0.0-13.26-1.26	beast_fmri_test	391	728807,/,729487,/,730168,/,730848,/	t,t,t,t	<img class = center src='/static/experiments/beast_fmri_test/images/B.png'></img>	89,71	2750.0	test	<img class = center src='/static/experiments/beast_fmri_test/images/redB.png'></img>	stop	1950.0	2.0	26.0	stop	target	B	89,Middle Finger	71,Index Finger	800.0	1400.0	1950.0	1350.0	0.0	800.0	n/a	1.0	ITI
120227	500	n/a	-1	-1	500	0.0	fixation	poldrack-single-stim	253	732023	0.0-13.27-0.27	beast_fmri_test	391	731527,/	t	<div class = centerbox2><div class = fixation>+</div></div>	none	500.0	test	n/a	n/a	n/a	n/a	n/a	n/a	n/a	n/a	n/a	n/a	n/a	n/a	n/a	n/a	n/a	n/a	n/a	n/a	fixation
119685.74974701612	1400.0	n/a	-1	-1	2750	546.250252984	stim	stop-signal	254	734778	0.0-13.27-1.27	beast_fmri_test	391	732208,/,732889,/,733568,/,734248,/,734929,/	t,t,t,t,t	<img class = center src='/static/experiments/beast_fmri_test/images/D.png'></img>	89,71	2750.0	test	<img class = center src='/static/experiments/beast_fmri_test/images/redD.png'></img>	stop	1350.0	2.0	27.0	stop	non-target	D	89,Middle Finger	71,Index Finger	850.0	1400.0	1950.0	1350.0	0.0	1400.0	n/a	1.0	go_stim
121035.74974701612	1350.0	n/a	-1	-1	2750	546.250252984	stim	stop-signal	254	734778	0.0-13.27-1.27	beast_fmri_test	391	732208,/,732889,/,733568,/,734248,/,734929,/	t,t,t,t,t	<img class = center src='/static/experiments/beast_fmri_test/images/D.png'></img>	89,71	2750.0	test	<img class = center src='/static/experiments/beast_fmri_test/images/redD.png'></img>	stop	1350.0	2.0	27.0	stop	non-target	D	89,Middle Finger	71,Index Finger	850.0	1400.0	1950.0	1350.0	0.0	1400.0	n/a	1.0	stop_stim
122435.74974701612	546.2502529838888	n/a	-1	-1	2750	546.250252984	stim	stop-signal	254	734778	0.0-13.27-1.27	beast_fmri_test	391	732208,/,732889,/,733568,/,734248,/,734929,/	t,t,t,t,t	<img class = center src='/static/experiments/beast_fmri_test/images/D.png'></img>	89,71	2750.0	test	<img class = center src='/static/experiments/beast_fmri_test/images/redD.png'></img>	stop	1350.0	2.0	27.0	stop	non-target	D	89,Middle Finger	71,Index Finger	850.0	1400.0	1950.0	1350.0	0.0	1400.0	n/a	1.0	ITI
124063	500	n/a	-1	-1	500	0.0	fixation	poldrack-single-stim	255	735859	0.0-13.28-0.28	beast_fmri_test	391	735610,/	t	<div class = centerbox2><div class = fixation>+</div></div>	none	500.0	test	n/a	n/a	n/a	n/a	n/a	n/a	n/a	n/a	n/a	n/a	n/a	n/a	n/a	n/a	n/a	n/a	n/a	n/a	fixation
123124.37541003828	2750	n/a	1904	71	2750	942.624589962	stim	stop-signal	256	738613	0.0-13.28-1.28	beast_fmri_test	391	736289,/,736969,/,737651,/,738331,/,739011,/	t,t,t,t,t	<img class = center src='/static/experiments/beast_fmri_test/images/P.png'></img>	89,71	2750.0	test	<img class = center src='/static/experiments/beast_fmri_test/images/redP.png'></img>	go	1300.0	2.0	28.0	go	non-target	P	89,Middle Finger	71,Index Finger	850.0	1450.0	1950.0	1300.0	1.0	1450.0	1.0	n/a	go_stim
125874.37541003828	942.62458996167027	n/a	1904	71	2750	942.624589962	stim	stop-signal	256	738613	0.0-13.28-1.28	beast_fmri_test	391	736289,/,736969,/,737651,/,738331,/,739011,/	t,t,t,t,t	<img class = center src='/static/experiments/beast_fmri_test/images/P.png'></img>	89,71	2750.0	test	<img class = center src='/static/experiments/beast_fmri_test/images/redP.png'></img>	go	1300.0	2.0	28.0	go	non-target	P	89,Middle Finger	71,Index Finger	850.0	1450.0	1950.0	1300.0	1.0	1450.0	1.0	n/a	ITI
128289	500	n/a	-1	-1	500	0.0	fixation	poldrack-single-stim	257	740085	0.0-13.29-0.29	beast_fmri_test	391	739692,/	t	<div class = centerbox2><div class = fixation>+</div></div>	none	500.0	test	n/a	n/a	n/a	n/a	n/a	n/a	n/a	n/a	n/a	n/a	n/a	n/a	n/a	n/a	n/a	n/a	n/a	n/a	fixation
127898.74195554585	2750	n/a	1055	89	2750	396.258044454	stim	stop-signal	258	742841	0.0-13.29-1.29	beast_fmri_test	391	740372,/,741052,/,741731,/,742412,/,743092,/	t,t,t,t,t	<img class = center src='/static/experiments/beast_fmri_test/images/D.png'></img>	89,71	2750.0	test	<img class = center src='/static/experiments/beast_fmri_test/images/redD.png'></img>	go	1900.0	2.0	29.0	go	target	D	89,Middle Finger	71,Index Finger	850.0	1450.0	1900.0	1300.0	1.0	850.0	1.0	n/a	go_stim
130648.74195554585	396.25804445420198	n/a	1055	89	2750	396.258044454	stim	stop-signal	258	742841	0.0-13.29-1.29	beast_fmri_test	391	740372,/,741052,/,741731,/,742412,/,743092,/	t,t,t,t,t	<img class = center src='/static/experiments/beast_fmri_test/images/D.png'></img>	89,71	2750.0	test	<img class = center src='/static/experiments/beast_fmri_test/images/redD.png'></img>	go	1900.0	2.0	29.0	go	target	D	89,Middle Finger	71,Index Finger	850.0	1450.0	1900.0	1300.0	1.0	850.0	1.0	n/a	ITI
131972	500	n/a	-1	-1	500	0.0	fixation	poldrack-single-stim	259	743768	0.0-13.30-0.30	beast_fmri_test	391	n/a	n/a	<div class = centerbox2><div class = fixation>+</div></div>	none	500.0	test	n/a	n/a	n/a	n/a	n/a	n/a	n/a	n/a	n/a	n/a	n/a	n/a	n/a	n/a	n/a	n/a	n/a	n/a	fixation
131112.80707767862	2750	n/a	1860	71	2750	863.192922321	stim	stop-signal	260	746522	0.0-13.30-1.30	beast_fmri_test	391	743772,/,744454,/,745134,/,745814,/,746494,/,747173,/	t,t,t,t,t,t	<img class = center src='/static/experiments/beast_fmri_test/images/D.png'></img>	89,71	2750.0	test	<img class = center src='/static/experiments/beast_fmri_test/images/redD.png'></img>	go	1300.0	2.0	30.0	go	non-target	D	89,Middle Finger	71,Index Finger	850.0	1450.0	1900.0	1300.0	1.0	1450.0	1.0	n/a	go_stim
133862.80707767862	863.19292232141561	n/a	1860	71	2750	863.192922321	stim	stop-signal	260	746522	0.0-13.30-1.30	beast_fmri_test	391	743772,/,744454,/,745134,/,745814,/,746494,/,747173,/	t,t,t,t,t,t	<img class = center src='/static/experiments/beast_fmri_test/images/D.png'></img>	89,71	2750.0	test	<img class = center src='/static/experiments/beast_fmri_test/images/redD.png'></img>	go	1300.0	2.0	30.0	go	non-target	D	89,Middle Finger	71,Index Finger	850.0	1450.0	1900.0	1300.0	1.0	1450.0	1.0	n/a	ITI
136120	500	n/a	-1	-1	500	0.0	fixation	poldrack-single-stim	261	747916	0.0-13.31-0.31	beast_fmri_test	391	747855,/	t	<div class = centerbox2><div class = fixation>+</div></div>	none	500.0	test	n/a	n/a	n/a	n/a	n/a	n/a	n/a	n/a	n/a	n/a	n/a	n/a	n/a	n/a	n/a	n/a	n/a	n/a	fixation
134991.06979506568	2750	n/a	2103	71	2750	1133.93020493	stim	stop-signal	262	750671	0.0-13.31-1.31	beast_fmri_test	391	748535,/,749215,/,749896,/,750576,/,751256,/	t,t,t,t,t	<img class = center src='/static/experiments/beast_fmri_test/images/P.png'></img>	89,71	2750.0	test	<img class = center src='/static/experiments/beast_fmri_test/images/redP.png'></img>	go	1300.0	2.0	31.0	go	non-target	P	89,Middle Finger	71,Index Finger	850.0	1450.0	1900.0	1300.0	1.0	1450.0	1.0	n/a	go_stim
137741.06979506568	1133.9302049343323	n/a	2103	71	2750	1133.93020493	stim	stop-signal	262	750671	0.0-13.31-1.31	beast_fmri_test	391	748535,/,749215,/,749896,/,750576,/,751256,/	t,t,t,t,t	<img class = center src='/static/experiments/beast_fmri_test/images/P.png'></img>	89,71	2750.0	test	<img class = center src='/static/experiments/beast_fmri_test/images/redP.png'></img>	go	1300.0	2.0	31.0	go	non-target	P	89,Middle Finger	71,Index Finger	850.0	1450.0	1900.0	1300.0	1.0	1450.0	1.0	n/a	ITI
140540	500	n/a	-1	-1	500	0.0	fixation	poldrack-single-stim	263	752336	0.0-13.32-0.32	beast_fmri_test	391	751937,/	t	<div class = centerbox2><div class = fixation>+</div></div>	none	500.0	test	n/a	n/a	n/a	n/a	n/a	n/a	n/a	n/a	n/a	n/a	n/a	n/a	n/a	n/a	n/a	n/a	n/a	n/a	fixation
140163.06519281457	2750	n/a	1357	71	2750	380.934807185	stim	stop-signal	264	755090	0.0-13.32-1.32	beast_fmri_test	391	752617,/,753297,/,753976,/,754657,/,755338,/	t,t,t,t,t	<img class = center src='/static/experiments/beast_fmri_test/images/T.png'></img>	89,71	2750.0	test	<img class = center src='/static/experiments/beast_fmri_test/images/redT.png'></img>	go	1300.0	2.0	32.0	go	non-target	T	89,Middle Finger	71,Index Finger	850.0	1450.0	1900.0	1300.0	1.0	1450.0	1.0	n/a	go_stim
142913.06519281457	380.93480718543196	n/a	1357	71	2750	380.934807185	stim	stop-signal	264	755090	0.0-13.32-1.32	beast_fmri_test	391	752617,/,753297,/,753976,/,754657,/,755338,/	t,t,t,t,t	<img class = center src='/static/experiments/beast_fmri_test/images/T.png'></img>	89,71	2750.0	test	<img class = center src='/static/experiments/beast_fmri_test/images/redT.png'></img>	go	1300.0	2.0	32.0	go	non-target	T	89,Middle Finger	71,Index Finger	850.0	1450.0	1900.0	1300.0	1.0	1450.0	1.0	n/a	ITI
144207	500	n/a	-1	-1	500	0.0	fixation	poldrack-single-stim	265	756003	0.0-13.33-0.33	beast_fmri_test	391	n/a	n/a	<div class = centerbox2><div class = fixation>+</div></div>	none	500.0	test	n/a	n/a	n/a	n/a	n/a	n/a	n/a	n/a	n/a	n/a	n/a	n/a	n/a	n/a	n/a	n/a	n/a	n/a	fixation
143704.98740773299	2750	n/a	2169	71	2750	505.012592267	stim	stop-signal	266	758756	0.0-13.33-1.33	beast_fmri_test	391	756018,/,756699,/,757379,/,758060,/,758740,/	t,t,t,t,t	<img class = center src='/static/experiments/beast_fmri_test/images/T.png'></img>	89,71	2750.0	test	<img class = center src='/static/experiments/beast_fmri_test/images/redT.png'></img>	go	1300.0	2.0	33.0	go	non-target	T	89,Middle Finger	71,Index Finger	850.0	1450.0	1900.0	1300.0	1.0	1450.0	1.0	n/a	go_stim
146454.98740773299	505.01259226699386	n/a	2169	71	2750	505.012592267	stim	stop-signal	266	758756	0.0-13.33-1.33	beast_fmri_test	391	756018,/,756699,/,757379,/,758060,/,758740,/	t,t,t,t,t	<img class = center src='/static/experiments/beast_fmri_test/images/T.png'></img>	89,71	2750.0	test	<img class = center src='/static/experiments/beast_fmri_test/images/redT.png'></img>	go	1300.0	2.0	33.0	go	non-target	T	89,Middle Finger	71,Index Finger	850.0	1450.0	1900.0	1300.0	1.0	1450.0	1.0	n/a	ITI
147994	500	n/a	-1	-1	500	0.0	fixation	poldrack-single-stim	267	759790	0.0-13.34-0.34	beast_fmri_test	391	759421,/	t	<div class = centerbox2><div class = fixation>+</div></div>	none	500.0	test	n/a	n/a	n/a	n/a	n/a	n/a	n/a	n/a	n/a	n/a	n/a	n/a	n/a	n/a	n/a	n/a	n/a	n/a	fixation
147949.74013508006	2750	n/a	1526	89	2750	48.2598649199	stim	stop-signal	268	762544	0.0-13.34-1.34	beast_fmri_test	391	760101,/,760781,/,761461,/,762141,/	t,t,t,t	<img class = center src='/static/experiments/beast_fmri_test/images/T.png'></img>	89,71	2750.0	test	<img class = center src='/static/experiments/beast_fmri_test/images/redT.png'></img>	go	1900.0	2.0	34.0	go	target	T	89,Middle Finger	71,Index Finger	850.0	1450.0	1900.0	1300.0	1.0	850.0	1.0	n/a	go_stim
150699.74013508006	48.259864919932326	n/a	1526	89	2750	48.2598649199	stim	stop-signal	268	762544	0.0-13.34-1.34	beast_fmri_test	391	760101,/,760781,/,761461,/,762141,/	t,t,t,t	<img class = center src='/static/experiments/beast_fmri_test/images/T.png'></img>	89,71	2750.0	test	<img class = center src='/static/experiments/beast_fmri_test/images/redT.png'></img>	go	1900.0	2.0	34.0	go	target	T	89,Middle Finger	71,Index Finger	850.0	1450.0	1900.0	1300.0	1.0	850.0	1.0	n/a	ITI
151327	500	n/a	-1	-1	500	0.0	fixation	poldrack-single-stim	269	763123	0.0-13.35-0.35	beast_fmri_test	391	762822,/	t	<div class = centerbox2><div class = fixation>+</div></div>	none	500.0	test	n/a	n/a	n/a	n/a	n/a	n/a	n/a	n/a	n/a	n/a	n/a	n/a	n/a	n/a	n/a	n/a	n/a	n/a	fixation
151205.74694458174	1450.0	n/a	1429	71	2750	125.253055418	stim	stop-signal	270	765877	0.0-13.35-1.35	beast_fmri_test	391	763503,/,764182,/,764863,/,765543,/	t,t,t,t	<img class = center src='/static/experiments/beast_fmri_test/images/V.png'></img>	89,71	2750.0	test	<img class = center src='/static/experiments/beast_fmri_test/images/redV.png'></img>	stop	1300.0	2.0	35.0	stop	non-target	V	89,Middle Finger	71,Index Finger	850.0	1450.0	1900.0	1300.0	0.0	1450.0	n/a	0.0	go_stim
152505.74694458174	1300.0	n/a	1429	71	2750	125.253055418	stim	stop-signal	270	765877	0.0-13.35-1.35	beast_fmri_test	391	763503,/,764182,/,764863,/,765543,/	t,t,t,t	<img class = center src='/static/experiments/beast_fmri_test/images/V.png'></img>	89,71	2750.0	test	<img class = center src='/static/experiments/beast_fmri_test/images/redV.png'></img>	stop	1300.0	2.0	35.0	stop	non-target	V	89,Middle Finger	71,Index Finger	850.0	1450.0	1900.0	1300.0	0.0	1450.0	n/a	0.0	stop_stim
153955.74694458174	125.25305541829182	n/a	1429	71	2750	125.253055418	stim	stop-signal	270	765877	0.0-13.35-1.35	beast_fmri_test	391	763503,/,764182,/,764863,/,765543,/	t,t,t,t	<img class = center src='/static/experiments/beast_fmri_test/images/V.png'></img>	89,71	2750.0	test	<img class = center src='/static/experiments/beast_fmri_test/images/redV.png'></img>	stop	1300.0	2.0	35.0	stop	non-target	V	89,Middle Finger	71,Index Finger	850.0	1450.0	1900.0	1300.0	0.0	1450.0	n/a	0.0	ITI
154739	500	n/a	-1	-1	500	0.0	fixation	poldrack-single-stim	271	766535	0.0-13.36-0.36	beast_fmri_test	391	766223,/	t	<div class = centerbox2><div class = fixation>+</div></div>	none	500.0	test	n/a	n/a	n/a	n/a	n/a	n/a	n/a	n/a	n/a	n/a	n/a	n/a	n/a	n/a	n/a	n/a	n/a	n/a	fixation
153445.62626895786	2750	n/a	2274	71	2750	1297.37373104	stim	stop-signal	272	769289	0.0-13.36-1.36	beast_fmri_test	391	766902,/,767584,/,768264,/,768944,/,769625,/,770305,/	t,t,t,t,t,t	<img class = center src='/static/experiments/beast_fmri_test/images/P.png'></img>	89,71	2750.0	test	<img class = center src='/static/experiments/beast_fmri_test/images/redP.png'></img>	go	1350.0	2.0	36.0	go	non-target	P	89,Middle Finger	71,Index Finger	850.0	1400.0	1900.0	1350.0	1.0	1400.0	1.0	n/a	go_stim
156195.62626895786	1297.3737310421427	n/a	2274	71	2750	1297.37373104	stim	stop-signal	272	769289	0.0-13.36-1.36	beast_fmri_test	391	766902,/,767584,/,768264,/,768944,/,769625,/,770305,/	t,t,t,t,t,t	<img class = center src='/static/experiments/beast_fmri_test/images/P.png'></img>	89,71	2750.0	test	<img class = center src='/static/experiments/beast_fmri_test/images/redP.png'></img>	go	1350.0	2.0	36.0	go	non-target	P	89,Middle Finger	71,Index Finger	850.0	1400.0	1900.0	1350.0	1.0	1400.0	1.0	n/a	ITI
159325	500	n/a	-1	-1	500	0.0	fixation	poldrack-single-stim	273	771121	0.0-13.37-0.37	beast_fmri_test	391	770984,/	t	<div class = centerbox2><div class = fixation>+</div></div>	none	500.0	test	n/a	n/a	n/a	n/a	n/a	n/a	n/a	n/a	n/a	n/a	n/a	n/a	n/a	n/a	n/a	n/a	n/a	n/a	fixation
158885.55888756178	2750	n/a	1952	71	2750	444.441112438	stim	stop-signal	274	773876	0.0-13.37-1.37	beast_fmri_test	391	771665,/,772346,/,773026,/,773706,/	t,t,t,t	<img class = center src='/static/experiments/beast_fmri_test/images/T.png'></img>	89,71	2750.0	test	<img class = center src='/static/experiments/beast_fmri_test/images/redT.png'></img>	go	1350.0	2.0	37.0	go	non-target	T	89,Middle Finger	71,Index Finger	850.0	1400.0	1900.0	1350.0	1.0	1400.0	1.0	n/a	go_stim
161635.55888756178	444.44111243816872	n/a	1952	71	2750	444.441112438	stim	stop-signal	274	773876	0.0-13.37-1.37	beast_fmri_test	391	771665,/,772346,/,773026,/,773706,/	t,t,t,t	<img class = center src='/static/experiments/beast_fmri_test/images/T.png'></img>	89,71	2750.0	test	<img class = center src='/static/experiments/beast_fmri_test/images/redT.png'></img>	go	1350.0	2.0	37.0	go	non-target	T	89,Middle Finger	71,Index Finger	850.0	1400.0	1900.0	1350.0	1.0	1400.0	1.0	n/a	ITI
163054	500	n/a	-1	-1	500	0.0	fixation	poldrack-single-stim	275	774850	0.0-13.38-0.38	beast_fmri_test	391	774386,/	t	<div class = centerbox2><div class = fixation>+</div></div>	none	500.0	test	n/a	n/a	n/a	n/a	n/a	n/a	n/a	n/a	n/a	n/a	n/a	n/a	n/a	n/a	n/a	n/a	n/a	n/a	fixation
161848.40883459337	2750	n/a	1828	71	2750	1208.59116541	stim	stop-signal	276	777603	0.0-13.38-1.38	beast_fmri_test	391	775067,/,775747,/,776427,/,777107,/,777788,/,778468,/	t,t,t,t,t,t	<img class = center src='/static/experiments/beast_fmri_test/images/V.png'></img>	89,71	2750.0	test	<img class = center src='/static/experiments/beast_fmri_test/images/redV.png'></img>	go	1350.0	2.0	38.0	go	non-target	V	89,Middle Finger	71,Index Finger	850.0	1400.0	1900.0	1350.0	1.0	1400.0	1.0	n/a	go_stim
164598.40883459337	1208.5911654066815	n/a	1828	71	2750	1208.59116541	stim	stop-signal	276	777603	0.0-13.38-1.38	beast_fmri_test	391	775067,/,775747,/,776427,/,777107,/,777788,/,778468,/	t,t,t,t,t,t	<img class = center src='/static/experiments/beast_fmri_test/images/V.png'></img>	89,71	2750.0	test	<img class = center src='/static/experiments/beast_fmri_test/images/redV.png'></img>	go	1350.0	2.0	38.0	go	non-target	V	89,Middle Finger	71,Index Finger	850.0	1400.0	1900.0	1350.0	1.0	1400.0	1.0	n/a	ITI
167548	500	n/a	-1	-1	500	0.0	fixation	poldrack-single-stim	277	779344	0.0-13.39-0.39	beast_fmri_test	391	779147,/	t	<div class = centerbox2><div class = fixation>+</div></div>	none	500.0	test	n/a	n/a	n/a	n/a	n/a	n/a	n/a	n/a	n/a	n/a	n/a	n/a	n/a	n/a	n/a	n/a	n/a	n/a	fixation
166194.60974695149	1400.0	n/a	-1	-1	2750	1357.39025305	stim	stop-signal	278	782098	0.0-13.39-1.39	beast_fmri_test	391	779829,/,780509,/,781189,/,781869,/,782550,/,783230,/	t,t,t,t,t,t	<img class = center src='/static/experiments/beast_fmri_test/images/D.png'></img>	89,71	2750.0	test	<img class = center src='/static/experiments/beast_fmri_test/images/redD.png'></img>	stop	1350.0	2.0	39.0	stop	non-target	D	89,Middle Finger	71,Index Finger	850.0	1400.0	1900.0	1350.0	0.0	1400.0	n/a	1.0	go_stim
167544.60974695149	1350.0	n/a	-1	-1	2750	1357.39025305	stim	stop-signal	278	782098	0.0-13.39-1.39	beast_fmri_test	391	779829,/,780509,/,781189,/,781869,/,782550,/,783230,/	t,t,t,t,t,t	<img class = center src='/static/experiments/beast_fmri_test/images/D.png'></img>	89,71	2750.0	test	<img class = center src='/static/experiments/beast_fmri_test/images/redD.png'></img>	stop	1350.0	2.0	39.0	stop	non-target	D	89,Middle Finger	71,Index Finger	850.0	1400.0	1900.0	1350.0	0.0	1400.0	n/a	1.0	stop_stim
168944.60974695149	1357.3902530484736	n/a	-1	-1	2750	1357.39025305	stim	stop-signal	278	782098	0.0-13.39-1.39	beast_fmri_test	391	779829,/,780509,/,781189,/,781869,/,782550,/,783230,/	t,t,t,t,t,t	<img class = center src='/static/experiments/beast_fmri_test/images/D.png'></img>	89,71	2750.0	test	<img class = center src='/static/experiments/beast_fmri_test/images/redD.png'></img>	stop	1350.0	2.0	39.0	stop	non-target	D	89,Middle Finger	71,Index Finger	850.0	1400.0	1900.0	1350.0	0.0	1400.0	n/a	1.0	ITI
172192	500	n/a	-1	-1	500	0.0	fixation	poldrack-single-stim	279	783988	0.0-13.40-0.40	beast_fmri_test	391	783911,/	t	<div class = centerbox2><div class = fixation>+</div></div>	none	500.0	test	n/a	n/a	n/a	n/a	n/a	n/a	n/a	n/a	n/a	n/a	n/a	n/a	n/a	n/a	n/a	n/a	n/a	n/a	fixation
172112.22279345721	1450.0	n/a	1399	71	2750	83.7772065428	stim	stop-signal	280	786742	0.0-13.40-1.40	beast_fmri_test	391	784591,/,785272,/,785952,/,786633,/	t,t,t,t	<img class = center src='/static/experiments/beast_fmri_test/images/T.png'></img>	89,71	2750.0	test	<img class = center src='/static/experiments/beast_fmri_test/images/redT.png'></img>	stop	1300.0	2.0	40.0	stop	non-target	T	89,Middle Finger	71,Index Finger	850.0	1450.0	1900.0	1300.0	0.0	1450.0	n/a	0.0	go_stim
173412.22279345721	1300.0	n/a	1399	71	2750	83.7772065428	stim	stop-signal	280	786742	0.0-13.40-1.40	beast_fmri_test	391	784591,/,785272,/,785952,/,786633,/	t,t,t,t	<img class = center src='/static/experiments/beast_fmri_test/images/T.png'></img>	89,71	2750.0	test	<img class = center src='/static/experiments/beast_fmri_test/images/redT.png'></img>	stop	1300.0	2.0	40.0	stop	non-target	T	89,Middle Finger	71,Index Finger	850.0	1450.0	1900.0	1300.0	0.0	1450.0	n/a	0.0	stop_stim
174862.22279345721	83.777206542819869	n/a	1399	71	2750	83.7772065428	stim	stop-signal	280	786742	0.0-13.40-1.40	beast_fmri_test	391	784591,/,785272,/,785952,/,786633,/	t,t,t,t	<img class = center src='/static/experiments/beast_fmri_test/images/T.png'></img>	89,71	2750.0	test	<img class = center src='/static/experiments/beast_fmri_test/images/redT.png'></img>	stop	1300.0	2.0	40.0	stop	non-target	T	89,Middle Finger	71,Index Finger	850.0	1450.0	1900.0	1300.0	0.0	1450.0	n/a	0.0	ITI
175563	500	n/a	-1	-1	500	0.0	fixation	poldrack-single-stim	281	787359	0.0-13.41-0.41	beast_fmri_test	391	787313,/	t	<div class = centerbox2><div class = fixation>+</div></div>	none	500.0	test	n/a	n/a	n/a	n/a	n/a	n/a	n/a	n/a	n/a	n/a	n/a	n/a	n/a	n/a	n/a	n/a	n/a	n/a	fixation
175391.67929771496	2750	n/a	1536	71	2750	175.320702285	stim	stop-signal	282	790113	0.0-13.41-1.41	beast_fmri_test	391	787996,/,788672,/,789354,/,790034,/	t,t,t,t	<img class = center src='/static/experiments/beast_fmri_test/images/P.png'></img>	89,71	2750.0	test	<img class = center src='/static/experiments/beast_fmri_test/images/redP.png'></img>	go	1350.0	2.0	41.0	go	non-target	P	89,Middle Finger	71,Index Finger	850.0	1400.0	1900.0	1350.0	1.0	1400.0	1.0	n/a	go_stim
178141.67929771496	175.32070228507641	n/a	1536	71	2750	175.320702285	stim	stop-signal	282	790113	0.0-13.41-1.41	beast_fmri_test	391	787996,/,788672,/,789354,/,790034,/	t,t,t,t	<img class = center src='/static/experiments/beast_fmri_test/images/P.png'></img>	89,71	2750.0	test	<img class = center src='/static/experiments/beast_fmri_test/images/redP.png'></img>	go	1350.0	2.0	41.0	go	non-target	P	89,Middle Finger	71,Index Finger	850.0	1400.0	1900.0	1350.0	1.0	1400.0	1.0	n/a	ITI
179025	500	n/a	-1	-1	500	0.0	fixation	poldrack-single-stim	283	790821	0.0-13.42-0.42	beast_fmri_test	391	790714,/	t	<div class = centerbox2><div class = fixation>+</div></div>	none	500.0	test	n/a	n/a	n/a	n/a	n/a	n/a	n/a	n/a	n/a	n/a	n/a	n/a	n/a	n/a	n/a	n/a	n/a	n/a	fixation
177305.40847762523	1400.0	n/a	1600	71	2750	1722.59152237	stim	stop-signal	284	793574	0.0-13.42-1.42	beast_fmri_test	391	791395,/,792075,/,792755,/,793435,/,794116,/,794796,/	t,t,t,t,t,t	<img class = center src='/static/experiments/beast_fmri_test/images/V.png'></img>	89,71	2750.0	test	<img class = center src='/static/experiments/beast_fmri_test/images/redV.png'></img>	stop	1350.0	2.0	42.0	stop	non-target	V	89,Middle Finger	71,Index Finger	850.0	1400.0	1900.0	1350.0	0.0	1400.0	n/a	0.0	go_stim
178655.40847762523	1350.0	n/a	1600	71	2750	1722.59152237	stim	stop-signal	284	793574	0.0-13.42-1.42	beast_fmri_test	391	791395,/,792075,/,792755,/,793435,/,794116,/,794796,/	t,t,t,t,t,t	<img class = center src='/static/experiments/beast_fmri_test/images/V.png'></img>	89,71	2750.0	test	<img class = center src='/static/experiments/beast_fmri_test/images/redV.png'></img>	stop	1350.0	2.0	42.0	stop	non-target	V	89,Middle Finger	71,Index Finger	850.0	1400.0	1900.0	1350.0	0.0	1400.0	n/a	0.0	stop_stim
180055.40847762523	1722.5915223747525	n/a	1600	71	2750	1722.59152237	stim	stop-signal	284	793574	0.0-13.42-1.42	beast_fmri_test	391	791395,/,792075,/,792755,/,793435,/,794116,/,794796,/	t,t,t,t,t,t	<img class = center src='/static/experiments/beast_fmri_test/images/V.png'></img>	89,71	2750.0	test	<img class = center src='/static/experiments/beast_fmri_test/images/redV.png'></img>	stop	1350.0	2.0	42.0	stop	non-target	V	89,Middle Finger	71,Index Finger	850.0	1400.0	1900.0	1350.0	0.0	1400.0	n/a	0.0	ITI
184034	500	n/a	-1	-1	500	0.0	fixation	poldrack-single-stim	285	795830	0.0-13.43-0.43	beast_fmri_test	391	795475,/	t	<div class = centerbox2><div class = fixation>+</div></div>	none	500.0	test	n/a	n/a	n/a	n/a	n/a	n/a	n/a	n/a	n/a	n/a	n/a	n/a	n/a	n/a	n/a	n/a	n/a	n/a	fixation
181910.93578749988	850.0	n/a	-1	-1	2750	2127.0642125	stim	stop-signal	286	798584	0.0-13.43-1.43	beast_fmri_test	391	796156,/,796836,/,797518,/,798197,/,798878,/,799557,/,800238,/	t,t,t,t,t,t,t	<img class = center src='/static/experiments/beast_fmri_test/images/P.png'></img>	89,71	2750.0	test	<img class = center src='/static/experiments/beast_fmri_test/images/redP.png'></img>	stop	1900.0	2.0	43.0	stop	target	P	89,Middle Finger	71,Index Finger	850.0	1350.0	1900.0	1350.0	0.0	850.0	n/a	1.0	go_stim
183810.93578749988	1900.0	n/a	-1	-1	2750	2127.0642125	stim	stop-signal	286	798584	0.0-13.43-1.43	beast_fmri_test	391	796156,/,796836,/,797518,/,798197,/,798878,/,799557,/,800238,/	t,t,t,t,t,t,t	<img class = center src='/static/experiments/beast_fmri_test/images/P.png'></img>	89,71	2750.0	test	<img class = center src='/static/experiments/beast_fmri_test/images/redP.png'></img>	stop	1900.0	2.0	43.0	stop	target	P	89,Middle Finger	71,Index Finger	850.0	1350.0	1900.0	1350.0	0.0	850.0	n/a	1.0	stop_stim
184660.93578749988	2127.0642125001214	n/a	-1	-1	2750	2127.0642125	stim	stop-signal	286	798584	0.0-13.43-1.43	beast_fmri_test	391	796156,/,796836,/,797518,/,798197,/,798878,/,799557,/,800238,/	t,t,t,t,t,t,t	<img class = center src='/static/experiments/beast_fmri_test/images/P.png'></img>	89,71	2750.0	test	<img class = center src='/static/experiments/beast_fmri_test/images/redP.png'></img>	stop	1900.0	2.0	43.0	stop	target	P	89,Middle Finger	71,Index Finger	850.0	1350.0	1900.0	1350.0	0.0	850.0	n/a	1.0	ITI
189450	500	n/a	-1	-1	500	0.0	fixation	poldrack-single-stim	287	801246	0.0-13.44-0.44	beast_fmri_test	391	800918,/	t	<div class = centerbox2><div class = fixation>+</div></div>	none	500.0	test	n/a	n/a	n/a	n/a	n/a	n/a	n/a	n/a	n/a	n/a	n/a	n/a	n/a	n/a	n/a	n/a	n/a	n/a	fixation
189433.75856528769	900.0	n/a	-1	-1	2750	20.2414347123	stim	stop-signal	288	804000	0.0-13.44-1.44	beast_fmri_test	391	801599,/,802278,/,802959,/,803640,/	t,t,t,t	<img class = center src='/static/experiments/beast_fmri_test/images/V.png'></img>	89,71	2750.0	test	<img class = center src='/static/experiments/beast_fmri_test/images/redV.png'></img>	stop	1850.0	2.0	44.0	stop	target	V	89,Middle Finger	71,Index Finger	900.0	1350.0	1850.0	1350.0	0.0	900.0	n/a	1.0	go_stim
191283.75856528769	1850.0	n/a	-1	-1	2750	20.2414347123	stim	stop-signal	288	804000	0.0-13.44-1.44	beast_fmri_test	391	801599,/,802278,/,802959,/,803640,/	t,t,t,t	<img class = center src='/static/experiments/beast_fmri_test/images/V.png'></img>	89,71	2750.0	test	<img class = center src='/static/experiments/beast_fmri_test/images/redV.png'></img>	stop	1850.0	2.0	44.0	stop	target	V	89,Middle Finger	71,Index Finger	900.0	1350.0	1850.0	1350.0	0.0	900.0	n/a	1.0	stop_stim
192183.75856528769	20.241434712347942	n/a	-1	-1	2750	20.2414347123	stim	stop-signal	288	804000	0.0-13.44-1.44	beast_fmri_test	391	801599,/,802278,/,802959,/,803640,/	t,t,t,t	<img class = center src='/static/experiments/beast_fmri_test/images/V.png'></img>	89,71	2750.0	test	<img class = center src='/static/experiments/beast_fmri_test/images/redV.png'></img>	stop	1850.0	2.0	44.0	stop	target	V	89,Middle Finger	71,Index Finger	900.0	1350.0	1850.0	1350.0	0.0	900.0	n/a	1.0	ITI
192759	500	n/a	-1	-1	500	0.0	fixation	poldrack-single-stim	289	804555	0.0-13.45-0.45	beast_fmri_test	391	804320,/	t	<div class = centerbox2><div class = fixation>+</div></div>	none	500.0	test	n/a	n/a	n/a	n/a	n/a	n/a	n/a	n/a	n/a	n/a	n/a	n/a	n/a	n/a	n/a	n/a	n/a	n/a	fixation
191560.02097997442	2750	n/a	2429	71	2750	1201.97902003	stim	stop-signal	290	807308	0.0-13.45-1.45	beast_fmri_test	391	804999,/,805681,/,806361,/,807041,/,807720,/,808402,/	t,t,t,t,t,t	<img class = center src='/static/experiments/beast_fmri_test/images/V.png'></img>	89,71	2750.0	test	<img class = center src='/static/experiments/beast_fmri_test/images/redV.png'></img>	go	1400.0	2.0	45.0	go	non-target	V	89,Middle Finger	71,Index Finger	950.0	1350.0	1850.0	1400.0	1.0	1350.0	1.0	n/a	go_stim
194310.02097997442	1201.9790200255734	n/a	2429	71	2750	1201.97902003	stim	stop-signal	290	807308	0.0-13.45-1.45	beast_fmri_test	391	804999,/,805681,/,806361,/,807041,/,807720,/,808402,/	t,t,t,t,t,t	<img class = center src='/static/experiments/beast_fmri_test/images/V.png'></img>	89,71	2750.0	test	<img class = center src='/static/experiments/beast_fmri_test/images/redV.png'></img>	go	1400.0	2.0	45.0	go	non-target	V	89,Middle Finger	71,Index Finger	950.0	1350.0	1850.0	1400.0	1.0	1350.0	1.0	n/a	ITI
197247	500	n/a	-1	-1	500	0.0	fixation	poldrack-single-stim	291	809043	0.0-13.46-0.46	beast_fmri_test	391	n/a	n/a	<div class = centerbox2><div class = fixation>+</div></div>	none	500.0	test	n/a	n/a	n/a	n/a	n/a	n/a	n/a	n/a	n/a	n/a	n/a	n/a	n/a	n/a	n/a	n/a	n/a	n/a	fixation
196281.39958368614	1350.0	n/a	-1	-1	2750	969.600416314	stim	stop-signal	292	811797	0.0-13.46-1.46	beast_fmri_test	391	809080,/,809762,/,810441,/,811122,/,811802,/,812483,/	t,t,t,t,t,t	<img class = center src='/static/experiments/beast_fmri_test/images/B.png'></img>	89,71	2750.0	test	<img class = center src='/static/experiments/beast_fmri_test/images/redB.png'></img>	stop	1400.0	2.0	46.0	stop	non-target	B	89,Middle Finger	71,Index Finger	950.0	1350.0	1850.0	1400.0	0.0	1350.0	n/a	1.0	go_stim
197681.39958368614	1400.0	n/a	-1	-1	2750	969.600416314	stim	stop-signal	292	811797	0.0-13.46-1.46	beast_fmri_test	391	809080,/,809762,/,810441,/,811122,/,811802,/,812483,/	t,t,t,t,t,t	<img class = center src='/static/experiments/beast_fmri_test/images/B.png'></img>	89,71	2750.0	test	<img class = center src='/static/experiments/beast_fmri_test/images/redB.png'></img>	stop	1400.0	2.0	46.0	stop	non-target	B	89,Middle Finger	71,Index Finger	950.0	1350.0	1850.0	1400.0	0.0	1350.0	n/a	1.0	stop_stim
199031.39958368614	969.60041631388242	n/a	-1	-1	2750	969.600416314	stim	stop-signal	292	811797	0.0-13.46-1.46	beast_fmri_test	391	809080,/,809762,/,810441,/,811122,/,811802,/,812483,/	t,t,t,t,t,t	<img class = center src='/static/experiments/beast_fmri_test/images/B.png'></img>	89,71	2750.0	test	<img class = center src='/static/experiments/beast_fmri_test/images/redB.png'></img>	stop	1400.0	2.0	46.0	stop	non-target	B	89,Middle Finger	71,Index Finger	950.0	1350.0	1850.0	1400.0	0.0	1350.0	n/a	1.0	ITI
216011	15000	n/a	-1	-1	15000	0.0	practice-no-stop-feedback	poldrack-single-stim	293	827807	0.0-14.0	beast_fmri_test	391	813164,/,813843,/,814525,/,815205,/,815886,/,816566,/,817246,/,817926,/,818607,/,819287,/,819967,/,820648,/,821328,/,822007,/,822688,/,823369,/,824049,/,824729,/,825410,/,826090,/,826770,/,827450,/	t,t,t,t,t,t,t,t,t,t,t,t,t,t,t,t,t,t,t,t,t,t	"<div class = ""centerbox2_2""><p class = ""block-text2"">Your delay is 3 trials.</p><p class = block-text2>Please wait for the scanner to start the block</p></div>"	77	15000.0	n/a	n/a	n/a	n/a	n/a	n/a	n/a	n/a	n/a	n/a	n/a	n/a	n/a	n/a	n/a	n/a	n/a	n/a	n/a	practice-no-stop-feedback
216514	500	n/a	-1	-1	500	0.0	fixation	poldrack-single-stim	294	828310	0.0-15.0-0.0	beast_fmri_test	391	828130,/	t	<div class = centerbox2><div class = fixation>+</div></div>	none	500.0	test	n/a	n/a	n/a	n/a	n/a	n/a	n/a	n/a	n/a	n/a	n/a	n/a	n/a	n/a	n/a	n/a	n/a	n/a	fixation
216446.53296393366	2750	n/a	2340	71	2750	72.4670360664	stim	stop-signal	295	831065	0.0-15.0-1.0	beast_fmri_test	391	828811,/,829491,/,830171,/,830852,/	t,t,t,t	<img class = center src='/static/experiments/beast_fmri_test/images/D.png'></img>	89,71	2750.0	test	<img class = center src='/static/experiments/beast_fmri_test/images/redD.png'></img>	go	-1.0	3.0	0.0	go	temp-non-target	D	89,Middle Finger	71,Index Finger	950.0	1400.0	1850.0	1400.0	0.0	n/a	n/a	n/a	go_stim
219196.53296393366	72.467036066395991	n/a	2340	71	2750	72.4670360664	stim	stop-signal	295	831065	0.0-15.0-1.0	beast_fmri_test	391	828811,/,829491,/,830171,/,830852,/	t,t,t,t	<img class = center src='/static/experiments/beast_fmri_test/images/D.png'></img>	89,71	2750.0	test	<img class = center src='/static/experiments/beast_fmri_test/images/redD.png'></img>	go	-1.0	3.0	0.0	go	temp-non-target	D	89,Middle Finger	71,Index Finger	950.0	1400.0	1850.0	1400.0	0.0	n/a	n/a	n/a	ITI
219879	500	n/a	-1	-1	500	0.0	fixation	poldrack-single-stim	296	831675	0.0-15.1-0.1	beast_fmri_test	391	831532,/	t	<div class = centerbox2><div class = fixation>+</div></div>	none	500.0	test	n/a	n/a	n/a	n/a	n/a	n/a	n/a	n/a	n/a	n/a	n/a	n/a	n/a	n/a	n/a	n/a	n/a	n/a	fixation
219273.79159875924	2750	n/a	1707	71	2750	610.208401241	stim	stop-signal	297	834430	0.0-15.1-1.1	beast_fmri_test	391	832212,/,832892,/,833573,/,834253,/,834933,/	t,t,t,t,t	<img class = center src='/static/experiments/beast_fmri_test/images/T.png'></img>	89,71	2750.0	test	<img class = center src='/static/experiments/beast_fmri_test/images/redT.png'></img>	go	-1.0	3.0	1.0	go	temp-non-target	T	89,Middle Finger	71,Index Finger	950.0	1400.0	1850.0	1400.0	0.0	n/a	n/a	n/a	go_stim
222023.79159875924	610.20840124081258	n/a	1707	71	2750	610.208401241	stim	stop-signal	297	834430	0.0-15.1-1.1	beast_fmri_test	391	832212,/,832892,/,833573,/,834253,/,834933,/	t,t,t,t,t	<img class = center src='/static/experiments/beast_fmri_test/images/T.png'></img>	89,71	2750.0	test	<img class = center src='/static/experiments/beast_fmri_test/images/redT.png'></img>	go	-1.0	3.0	1.0	go	temp-non-target	T	89,Middle Finger	71,Index Finger	950.0	1400.0	1850.0	1400.0	0.0	n/a	n/a	n/a	ITI
223779	500	n/a	-1	-1	500	0.0	fixation	poldrack-single-stim	298	835575	0.0-15.2-0.2	beast_fmri_test	391	n/a	n/a	<div class = centerbox2><div class = fixation>+</div></div>	none	500.0	test	n/a	n/a	n/a	n/a	n/a	n/a	n/a	n/a	n/a	n/a	n/a	n/a	n/a	n/a	n/a	n/a	n/a	n/a	fixation
223678.41338177631	temp_go_duration	n/a	1275	71	2750	104.586618224	stim	stop-signal	299	838329	0.0-15.2-1.2	beast_fmri_test	391	835615,/,836294,/,836974,/,837654,/,838334,/	t,t,t,t,t	<img class = center src='/static/experiments/beast_fmri_test/images/T.png'></img>	89,71	2750.0	test	<img class = center src='/static/experiments/beast_fmri_test/images/redT.png'></img>	stop	-1.0	3.0	2.0	stop	temp-non-target	T	89,Middle Finger	71,Index Finger	950.0	1400.0	1850.0	1400.0	0.0	n/a	n/a	0.0	go_stim
temp-non-target	temp_stop_duration	n/a	1275	71	2750	104.586618224	stim	stop-signal	299	838329	0.0-15.2-1.2	beast_fmri_test	391	835615,/,836294,/,836974,/,837654,/,838334,/	t,t,t,t,t	<img class = center src='/static/experiments/beast_fmri_test/images/T.png'></img>	89,71	2750.0	test	<img class = center src='/static/experiments/beast_fmri_test/images/redT.png'></img>	stop	-1.0	3.0	2.0	stop	temp-non-target	T	89,Middle Finger	71,Index Finger	950.0	1400.0	1850.0	1400.0	0.0	n/a	n/a	0.0	stop_stim
226428.41338177631	104.58661822374451	n/a	1275	71	2750	104.586618224	stim	stop-signal	299	838329	0.0-15.2-1.2	beast_fmri_test	391	835615,/,836294,/,836974,/,837654,/,838334,/	t,t,t,t,t	<img class = center src='/static/experiments/beast_fmri_test/images/T.png'></img>	89,71	2750.0	test	<img class = center src='/static/experiments/beast_fmri_test/images/redT.png'></img>	stop	-1.0	3.0	2.0	stop	temp-non-target	T	89,Middle Finger	71,Index Finger	950.0	1400.0	1850.0	1400.0	0.0	n/a	n/a	0.0	ITI
227172	500	n/a	-1	-1	500	0.0	fixation	poldrack-single-stim	300	838968	0.0-15.3-0.3	beast_fmri_test	391	n/a	n/a	<div class = centerbox2><div class = fixation>+</div></div>	none	500.0	test	n/a	n/a	n/a	n/a	n/a	n/a	n/a	n/a	n/a	n/a	n/a	n/a	n/a	n/a	n/a	n/a	n/a	n/a	fixation
226319.33570395655	2750	n/a	1142	71	2750	856.664296044	stim	stop-signal	301	841722	0.0-15.3-1.3	beast_fmri_test	391	839014,/,839695,/,840376,/,841056,/,841736,/,842417,/	t,t,t,t,t,t	<img class = center src='/static/experiments/beast_fmri_test/images/V.png'></img>	89,71	2750.0	test	<img class = center src='/static/experiments/beast_fmri_test/images/redV.png'></img>	go	1350.0	3.0	3.0	go	non-target	V	89,Middle Finger	71,Index Finger	950.0	1400.0	1850.0	1350.0	1.0	1400.0	1.0	n/a	go_stim
229069.33570395655	856.66429604350969	n/a	1142	71	2750	856.664296044	stim	stop-signal	301	841722	0.0-15.3-1.3	beast_fmri_test	391	839014,/,839695,/,840376,/,841056,/,841736,/,842417,/	t,t,t,t,t,t	<img class = center src='/static/experiments/beast_fmri_test/images/V.png'></img>	89,71	2750.0	test	<img class = center src='/static/experiments/beast_fmri_test/images/redV.png'></img>	go	1350.0	3.0	3.0	go	non-target	V	89,Middle Finger	71,Index Finger	950.0	1400.0	1850.0	1350.0	1.0	1400.0	1.0	n/a	ITI
231316	500	n/a	-1	-1	500	0.0	fixation	poldrack-single-stim	302	843112	0.0-15.4-0.4	beast_fmri_test	391	843098,/	t	<div class = centerbox2><div class = fixation>+</div></div>	none	500.0	test	n/a	n/a	n/a	n/a	n/a	n/a	n/a	n/a	n/a	n/a	n/a	n/a	n/a	n/a	n/a	n/a	n/a	n/a	fixation
231110.45127761562	2750	n/a	1582	71	2750	210.548722384	stim	stop-signal	303	845867	0.0-15.4-1.4	beast_fmri_test	391	843777,/,844458,/,845138,/,845818,/	t,t,t,t	<img class = center src='/static/experiments/beast_fmri_test/images/P.png'></img>	89,71	2750.0	test	<img class = center src='/static/experiments/beast_fmri_test/images/redP.png'></img>	go	1350.0	3.0	4.0	go	non-target	P	89,Middle Finger	71,Index Finger	950.0	1400.0	1850.0	1350.0	1.0	1400.0	1.0	n/a	go_stim
233860.45127761562	210.54872238442931	n/a	1582	71	2750	210.548722384	stim	stop-signal	303	845867	0.0-15.4-1.4	beast_fmri_test	391	843777,/,844458,/,845138,/,845818,/	t,t,t,t	<img class = center src='/static/experiments/beast_fmri_test/images/P.png'></img>	89,71	2750.0	test	<img class = center src='/static/experiments/beast_fmri_test/images/redP.png'></img>	go	1350.0	3.0	4.0	go	non-target	P	89,Middle Finger	71,Index Finger	950.0	1400.0	1850.0	1350.0	1.0	1400.0	1.0	n/a	ITI
234816	500	n/a	-1	-1	500	0.0	fixation	poldrack-single-stim	304	846612	0.0-15.5-0.5	beast_fmri_test	391	846499,/	t	<div class = centerbox2><div class = fixation>+</div></div>	none	500.0	test	n/a	n/a	n/a	n/a	n/a	n/a	n/a	n/a	n/a	n/a	n/a	n/a	n/a	n/a	n/a	n/a	n/a	n/a	fixation
233605.23004443012	1400.0	n/a	-1	-1	2750	1215.76995557	stim	stop-signal	305	849367	0.0-15.5-1.5	beast_fmri_test	391	847179,/,847860,/,848540,/,849220,/,849900,/,850581,/	t,t,t,t,t,t	<img class = center src='/static/experiments/beast_fmri_test/images/B.png'></img>	89,71	2750.0	test	<img class = center src='/static/experiments/beast_fmri_test/images/redB.png'></img>	stop	1350.0	3.0	5.0	stop	non-target	B	89,Middle Finger	71,Index Finger	950.0	1400.0	1850.0	1350.0	0.0	1400.0	n/a	1.0	go_stim
234955.23004443012	1350.0	n/a	-1	-1	2750	1215.76995557	stim	stop-signal	305	849367	0.0-15.5-1.5	beast_fmri_test	391	847179,/,847860,/,848540,/,849220,/,849900,/,850581,/	t,t,t,t,t,t	<img class = center src='/static/experiments/beast_fmri_test/images/B.png'></img>	89,71	2750.0	test	<img class = center src='/static/experiments/beast_fmri_test/images/redB.png'></img>	stop	1350.0	3.0	5.0	stop	non-target	B	89,Middle Finger	71,Index Finger	950.0	1400.0	1850.0	1350.0	0.0	1400.0	n/a	1.0	stop_stim
236355.23004443012	1215.7699555698946	n/a	-1	-1	2750	1215.76995557	stim	stop-signal	305	849367	0.0-15.5-1.5	beast_fmri_test	391	847179,/,847860,/,848540,/,849220,/,849900,/,850581,/	t,t,t,t,t,t	<img class = center src='/static/experiments/beast_fmri_test/images/B.png'></img>	89,71	2750.0	test	<img class = center src='/static/experiments/beast_fmri_test/images/redB.png'></img>	stop	1350.0	3.0	5.0	stop	non-target	B	89,Middle Finger	71,Index Finger	950.0	1400.0	1850.0	1350.0	0.0	1400.0	n/a	1.0	ITI
239320	500	n/a	-1	-1	500	0.0	fixation	poldrack-single-stim	306	851116	0.0-15.6-0.6	beast_fmri_test	391	n/a	n/a	<div class = centerbox2><div class = fixation>+</div></div>	none	500.0	test	n/a	n/a	n/a	n/a	n/a	n/a	n/a	n/a	n/a	n/a	n/a	n/a	n/a	n/a	n/a	n/a	n/a	n/a	fixation
239043.43321890594	2750	n/a	1186	71	2750	281.566781094	stim	stop-signal	307	853871	0.0-15.6-1.6	beast_fmri_test	391	851261,/,851941,/,852622,/,853302,/,853982,/	t,t,t,t,t	<img class = center src='/static/experiments/beast_fmri_test/images/T.png'></img>	89,71	2750.0	test	<img class = center src='/static/experiments/beast_fmri_test/images/redT.png'></img>	go	1300.0	3.0	6.0	go	non-target	T	89,Middle Finger	71,Index Finger	950.0	1450.0	1850.0	1300.0	1.0	1450.0	1.0	n/a	go_stim
241793.43321890594	281.56678109406448	n/a	1186	71	2750	281.566781094	stim	stop-signal	307	853871	0.0-15.6-1.6	beast_fmri_test	391	851261,/,851941,/,852622,/,853302,/,853982,/	t,t,t,t,t	<img class = center src='/static/experiments/beast_fmri_test/images/T.png'></img>	89,71	2750.0	test	<img class = center src='/static/experiments/beast_fmri_test/images/redT.png'></img>	go	1300.0	3.0	6.0	go	non-target	T	89,Middle Finger	71,Index Finger	950.0	1450.0	1850.0	1300.0	1.0	1450.0	1.0	n/a	ITI
242891	500	n/a	-1	-1	500	0.0	fixation	poldrack-single-stim	308	854687	0.0-15.7-0.7	beast_fmri_test	391	854662,/	t	<div class = centerbox2><div class = fixation>+</div></div>	none	500.0	test	n/a	n/a	n/a	n/a	n/a	n/a	n/a	n/a	n/a	n/a	n/a	n/a	n/a	n/a	n/a	n/a	n/a	n/a	fixation
241933.42658855754	1450.0	n/a	1329	71	2750	961.573411442	stim	stop-signal	309	857441	0.0-15.7-1.7	beast_fmri_test	391	855343,/,856021,/,856703,/,857384,/,858063,/	t,t,t,t,t	<img class = center src='/static/experiments/beast_fmri_test/images/V.png'></img>	89,71	2750.0	test	<img class = center src='/static/experiments/beast_fmri_test/images/redV.png'></img>	stop	1300.0	3.0	7.0	stop	non-target	V	89,Middle Finger	71,Index Finger	950.0	1450.0	1850.0	1300.0	0.0	1450.0	n/a	0.0	go_stim
243233.42658855754	1300.0	n/a	1329	71	2750	961.573411442	stim	stop-signal	309	857441	0.0-15.7-1.7	beast_fmri_test	391	855343,/,856021,/,856703,/,857384,/,858063,/	t,t,t,t,t	<img class = center src='/static/experiments/beast_fmri_test/images/V.png'></img>	89,71	2750.0	test	<img class = center src='/static/experiments/beast_fmri_test/images/redV.png'></img>	stop	1300.0	3.0	7.0	stop	non-target	V	89,Middle Finger	71,Index Finger	950.0	1450.0	1850.0	1300.0	0.0	1450.0	n/a	0.0	stop_stim
244683.42658855754	961.57341144246084	n/a	1329	71	2750	961.573411442	stim	stop-signal	309	857441	0.0-15.7-1.7	beast_fmri_test	391	855343,/,856021,/,856703,/,857384,/,858063,/	t,t,t,t,t	<img class = center src='/static/experiments/beast_fmri_test/images/V.png'></img>	89,71	2750.0	test	<img class = center src='/static/experiments/beast_fmri_test/images/redV.png'></img>	stop	1300.0	3.0	7.0	stop	non-target	V	89,Middle Finger	71,Index Finger	950.0	1450.0	1850.0	1300.0	0.0	1450.0	n/a	0.0	ITI
247142	500	n/a	-1	-1	500	0.0	fixation	poldrack-single-stim	310	858938	0.0-15.8-0.8	beast_fmri_test	391	858744,/	t	<div class = centerbox2><div class = fixation>+</div></div>	none	500.0	test	n/a	n/a	n/a	n/a	n/a	n/a	n/a	n/a	n/a	n/a	n/a	n/a	n/a	n/a	n/a	n/a	n/a	n/a	fixation
244507.61106750043	2750	n/a	866	89	2750	2637.3889325	stim	stop-signal	311	861691	0.0-15.8-1.8	beast_fmri_test	391	859424,/,860105,/,860785,/,861465,/,862146,/,862826,/,863506,/,864186,/	t,t,t,t,t,t,t,t	<img class = center src='/static/experiments/beast_fmri_test/images/T.png'></img>	89,71	2750.0	test	<img class = center src='/static/experiments/beast_fmri_test/images/redT.png'></img>	go	1350.0	3.0	8.0	go	non-target	T	89,Middle Finger	71,Index Finger	950.0	1400.0	1850.0	1350.0	0.0	1400.0	0.0	n/a	go_stim
247257.61106750043	2637.388932499613	n/a	866	89	2750	2637.3889325	stim	stop-signal	311	861691	0.0-15.8-1.8	beast_fmri_test	391	859424,/,860105,/,860785,/,861465,/,862146,/,862826,/,863506,/,864186,/	t,t,t,t,t,t,t,t	<img class = center src='/static/experiments/beast_fmri_test/images/T.png'></img>	89,71	2750.0	test	<img class = center src='/static/experiments/beast_fmri_test/images/redT.png'></img>	go	1350.0	3.0	8.0	go	non-target	T	89,Middle Finger	71,Index Finger	950.0	1400.0	1850.0	1350.0	0.0	1400.0	0.0	n/a	ITI
253071	500	n/a	-1	-1	500	0.0	fixation	poldrack-single-stim	312	864867	0.0-15.9-0.9	beast_fmri_test	391	n/a	n/a	<div class = centerbox2><div class = fixation>+</div></div>	none	500.0	test	n/a	n/a	n/a	n/a	n/a	n/a	n/a	n/a	n/a	n/a	n/a	n/a	n/a	n/a	n/a	n/a	n/a	n/a	fixation
252007.84708553681	2750	n/a	1522	71	2750	1067.15291446	stim	stop-signal	313	867621	0.0-15.9-1.9	beast_fmri_test	391	864868,/,865547,/,866227,/,866907,/,867588,/,868268,/	t,t,t,t,t,t	<img class = center src='/static/experiments/beast_fmri_test/images/B.png'></img>	89,71	2750.0	test	<img class = center src='/static/experiments/beast_fmri_test/images/redB.png'></img>	go	1350.0	3.0	9.0	go	non-target	B	89,Middle Finger	71,Index Finger	950.0	1400.0	1850.0	1350.0	1.0	1400.0	1.0	n/a	go_stim
254757.84708553681	1067.1529144631866	n/a	1522	71	2750	1067.15291446	stim	stop-signal	313	867621	0.0-15.9-1.9	beast_fmri_test	391	864868,/,865547,/,866227,/,866907,/,867588,/,868268,/	t,t,t,t,t,t	<img class = center src='/static/experiments/beast_fmri_test/images/B.png'></img>	89,71	2750.0	test	<img class = center src='/static/experiments/beast_fmri_test/images/redB.png'></img>	go	1350.0	3.0	9.0	go	non-target	B	89,Middle Finger	71,Index Finger	950.0	1400.0	1850.0	1350.0	1.0	1400.0	1.0	n/a	ITI
257428	500	n/a	-1	-1	500	0.0	fixation	poldrack-single-stim	314	869224	0.0-15.10-0.10	beast_fmri_test	391	868948,/	t	<div class = centerbox2><div class = fixation>+</div></div>	none	500.0	test	n/a	n/a	n/a	n/a	n/a	n/a	n/a	n/a	n/a	n/a	n/a	n/a	n/a	n/a	n/a	n/a	n/a	n/a	fixation
255499.86651797965	2750	n/a	1256	71	2750	1933.13348202	stim	stop-signal	315	871979	0.0-15.10-1.10	beast_fmri_test	391	869628,/,870309,/,870990,/,871669,/,872351,/,873031,/,873711,/	t,t,t,t,t,t,t	<img class = center src='/static/experiments/beast_fmri_test/images/D.png'></img>	89,71	2750.0	test	<img class = center src='/static/experiments/beast_fmri_test/images/redD.png'></img>	go	1350.0	3.0	10.0	go	non-target	D	89,Middle Finger	71,Index Finger	950.0	1400.0	1850.0	1350.0	1.0	1400.0	1.0	n/a	go_stim
258249.86651797965	1933.1334820203872	n/a	1256	71	2750	1933.13348202	stim	stop-signal	315	871979	0.0-15.10-1.10	beast_fmri_test	391	869628,/,870309,/,870990,/,871669,/,872351,/,873031,/,873711,/	t,t,t,t,t,t,t	<img class = center src='/static/experiments/beast_fmri_test/images/D.png'></img>	89,71	2750.0	test	<img class = center src='/static/experiments/beast_fmri_test/images/redD.png'></img>	go	1350.0	3.0	10.0	go	non-target	D	89,Middle Finger	71,Index Finger	950.0	1400.0	1850.0	1350.0	1.0	1400.0	1.0	n/a	ITI
262654	500	n/a	-1	-1	500	0.0	fixation	poldrack-single-stim	316	874450	0.0-15.11-0.11	beast_fmri_test	391	874392,/	t	<div class = centerbox2><div class = fixation>+</div></div>	none	500.0	test	n/a	n/a	n/a	n/a	n/a	n/a	n/a	n/a	n/a	n/a	n/a	n/a	n/a	n/a	n/a	n/a	n/a	n/a	fixation
262266.9427571625	2750	n/a	1337	71	2750	392.057242837	stim	stop-signal	317	877205	0.0-15.11-1.11	beast_fmri_test	391	875071,/,875752,/,876432,/,877112,/	t,t,t,t	<img class = center src='/static/experiments/beast_fmri_test/images/V.png'></img>	89,71	2750.0	test	<img class = center src='/static/experiments/beast_fmri_test/images/redV.png'></img>	go	1350.0	3.0	11.0	go	non-target	V	89,Middle Finger	71,Index Finger	950.0	1400.0	1850.0	1350.0	1.0	1400.0	1.0	n/a	go_stim
265016.9427571625	392.0572428374565	n/a	1337	71	2750	392.057242837	stim	stop-signal	317	877205	0.0-15.11-1.11	beast_fmri_test	391	875071,/,875752,/,876432,/,877112,/	t,t,t,t	<img class = center src='/static/experiments/beast_fmri_test/images/V.png'></img>	89,71	2750.0	test	<img class = center src='/static/experiments/beast_fmri_test/images/redV.png'></img>	go	1350.0	3.0	11.0	go	non-target	V	89,Middle Finger	71,Index Finger	950.0	1400.0	1850.0	1350.0	1.0	1400.0	1.0	n/a	ITI
266337	500	n/a	-1	-1	500	0.0	fixation	poldrack-single-stim	318	878133	0.0-15.12-0.12	beast_fmri_test	391	877793,/	t	<div class = centerbox2><div class = fixation>+</div></div>	none	500.0	test	n/a	n/a	n/a	n/a	n/a	n/a	n/a	n/a	n/a	n/a	n/a	n/a	n/a	n/a	n/a	n/a	n/a	n/a	fixation
266154.51571360521	1400.0	n/a	-1	-1	2750	186.484286395	stim	stop-signal	319	880887	0.0-15.12-1.12	beast_fmri_test	391	878473,/,879153,/,879833,/,880513,/	t,t,t,t	<img class = center src='/static/experiments/beast_fmri_test/images/P.png'></img>	89,71	2750.0	test	<img class = center src='/static/experiments/beast_fmri_test/images/redP.png'></img>	stop	1350.0	3.0	12.0	stop	non-target	P	89,Middle Finger	71,Index Finger	950.0	1400.0	1850.0	1350.0	0.0	1400.0	n/a	1.0	go_stim
267504.51571360521	1350.0	n/a	-1	-1	2750	186.484286395	stim	stop-signal	319	880887	0.0-15.12-1.12	beast_fmri_test	391	878473,/,879153,/,879833,/,880513,/	t,t,t,t	<img class = center src='/static/experiments/beast_fmri_test/images/P.png'></img>	89,71	2750.0	test	<img class = center src='/static/experiments/beast_fmri_test/images/redP.png'></img>	stop	1350.0	3.0	12.0	stop	non-target	P	89,Middle Finger	71,Index Finger	950.0	1400.0	1850.0	1350.0	0.0	1400.0	n/a	1.0	stop_stim
268904.51571360521	186.48428639481304	n/a	-1	-1	2750	186.484286395	stim	stop-signal	319	880887	0.0-15.12-1.12	beast_fmri_test	391	878473,/,879153,/,879833,/,880513,/	t,t,t,t	<img class = center src='/static/experiments/beast_fmri_test/images/P.png'></img>	89,71	2750.0	test	<img class = center src='/static/experiments/beast_fmri_test/images/redP.png'></img>	stop	1350.0	3.0	12.0	stop	non-target	P	89,Middle Finger	71,Index Finger	950.0	1400.0	1850.0	1350.0	0.0	1400.0	n/a	1.0	ITI
269815	500	n/a	-1	-1	500	0.0	fixation	poldrack-single-stim	320	881611	0.0-15.13-0.13	beast_fmri_test	391	881193,/	t	<div class = centerbox2><div class = fixation>+</div></div>	none	500.0	test	n/a	n/a	n/a	n/a	n/a	n/a	n/a	n/a	n/a	n/a	n/a	n/a	n/a	n/a	n/a	n/a	n/a	n/a	fixation
269216.15636624477	2750	n/a	1605	71	2750	602.843633755	stim	stop-signal	321	884365	0.0-15.13-1.13	beast_fmri_test	391	881874,/,882555,/,883234,/,883915,/,884594,/	t,t,t,t,t	<img class = center src='/static/experiments/beast_fmri_test/images/D.png'></img>	89,71	2750.0	test	<img class = center src='/static/experiments/beast_fmri_test/images/redD.png'></img>	go	1800.0	3.0	13.0	go	target	D	89,Middle Finger	71,Index Finger	950.0	1450.0	1800.0	1350.0	0.0	950.0	0.0	n/a	go_stim
271966.15636624477	602.84363375523969	n/a	1605	71	2750	602.843633755	stim	stop-signal	321	884365	0.0-15.13-1.13	beast_fmri_test	391	881874,/,882555,/,883234,/,883915,/,884594,/	t,t,t,t,t	<img class = center src='/static/experiments/beast_fmri_test/images/D.png'></img>	89,71	2750.0	test	<img class = center src='/static/experiments/beast_fmri_test/images/redD.png'></img>	go	1800.0	3.0	13.0	go	target	D	89,Middle Finger	71,Index Finger	950.0	1450.0	1800.0	1350.0	0.0	950.0	0.0	n/a	ITI
273710	500	n/a	-1	-1	500	0.0	fixation	poldrack-single-stim	322	885506	0.0-15.14-0.14	beast_fmri_test	391	885276,/	t	<div class = centerbox2><div class = fixation>+</div></div>	none	500.0	test	n/a	n/a	n/a	n/a	n/a	n/a	n/a	n/a	n/a	n/a	n/a	n/a	n/a	n/a	n/a	n/a	n/a	n/a	fixation
273702.26678508846	2750	n/a	1084	71	2750	12.7332149116	stim	stop-signal	323	888261	0.0-15.14-1.14	beast_fmri_test	391	885956,/,886636,/,887316,/,887996,/	t,t,t,t	<img class = center src='/static/experiments/beast_fmri_test/images/V.png'></img>	89,71	2750.0	test	<img class = center src='/static/experiments/beast_fmri_test/images/redV.png'></img>	go	1800.0	3.0	14.0	go	target	V	89,Middle Finger	71,Index Finger	950.0	1450.0	1800.0	1350.0	0.0	950.0	0.0	n/a	go_stim
276452.26678508846	12.733214911583849	n/a	1084	71	2750	12.7332149116	stim	stop-signal	323	888261	0.0-15.14-1.14	beast_fmri_test	391	885956,/,886636,/,887316,/,887996,/	t,t,t,t	<img class = center src='/static/experiments/beast_fmri_test/images/V.png'></img>	89,71	2750.0	test	<img class = center src='/static/experiments/beast_fmri_test/images/redV.png'></img>	go	1800.0	3.0	14.0	go	target	V	89,Middle Finger	71,Index Finger	950.0	1450.0	1800.0	1350.0	0.0	950.0	0.0	n/a	ITI
277013	500	n/a	-1	-1	500	0.0	fixation	poldrack-single-stim	324	888809	0.0-15.15-0.15	beast_fmri_test	391	888677,/	t	<div class = centerbox2><div class = fixation>+</div></div>	none	500.0	test	n/a	n/a	n/a	n/a	n/a	n/a	n/a	n/a	n/a	n/a	n/a	n/a	n/a	n/a	n/a	n/a	n/a	n/a	fixation
276800.216052979	950.0	n/a	-1	-1	2750	217.783947021	stim	stop-signal	325	891564	0.0-15.15-1.15	beast_fmri_test	391	889357,/,890036,/,890718,/,891398,/	t,t,t,t	<img class = center src='/static/experiments/beast_fmri_test/images/P.png'></img>	89,71	2750.0	test	<img class = center src='/static/experiments/beast_fmri_test/images/redP.png'></img>	stop	1800.0	3.0	15.0	stop	target	P	89,Middle Finger	71,Index Finger	950.0	1450.0	1800.0	1350.0	0.0	950.0	n/a	1.0	go_stim
278600.216052979	1800.0	n/a	-1	-1	2750	217.783947021	stim	stop-signal	325	891564	0.0-15.15-1.15	beast_fmri_test	391	889357,/,890036,/,890718,/,891398,/	t,t,t,t	<img class = center src='/static/experiments/beast_fmri_test/images/P.png'></img>	89,71	2750.0	test	<img class = center src='/static/experiments/beast_fmri_test/images/redP.png'></img>	stop	1800.0	3.0	15.0	stop	target	P	89,Middle Finger	71,Index Finger	950.0	1450.0	1800.0	1350.0	0.0	950.0	n/a	1.0	stop_stim
279550.216052979	217.78394702100658	n/a	-1	-1	2750	217.783947021	stim	stop-signal	325	891564	0.0-15.15-1.15	beast_fmri_test	391	889357,/,890036,/,890718,/,891398,/	t,t,t,t	<img class = center src='/static/experiments/beast_fmri_test/images/P.png'></img>	89,71	2750.0	test	<img class = center src='/static/experiments/beast_fmri_test/images/redP.png'></img>	stop	1800.0	3.0	15.0	stop	target	P	89,Middle Finger	71,Index Finger	950.0	1450.0	1800.0	1350.0	0.0	950.0	n/a	1.0	ITI
280524	500	n/a	-1	-1	500	0.0	fixation	poldrack-single-stim	326	892320	0.0-15.16-0.16	beast_fmri_test	391	892078,/	t	<div class = centerbox2><div class = fixation>+</div></div>	none	500.0	test	n/a	n/a	n/a	n/a	n/a	n/a	n/a	n/a	n/a	n/a	n/a	n/a	n/a	n/a	n/a	n/a	n/a	n/a	fixation
279651.96797722823	1450.0	n/a	1082	89	2750	876.032022772	stim	stop-signal	327	895074	0.0-15.16-1.16	beast_fmri_test	391	892759,/,893438,/,894119,/,894799,/,895480,/	t,t,t,t,t	<img class = center src='/static/experiments/beast_fmri_test/images/V.png'></img>	89,71	2750.0	test	<img class = center src='/static/experiments/beast_fmri_test/images/redV.png'></img>	stop	1300.0	3.0	16.0	stop	non-target	V	89,Middle Finger	71,Index Finger	1000.0	1450.0	1800.0	1300.0	0.0	1450.0	n/a	0.0	go_stim
280951.96797722823	1300.0	n/a	1082	89	2750	876.032022772	stim	stop-signal	327	895074	0.0-15.16-1.16	beast_fmri_test	391	892759,/,893438,/,894119,/,894799,/,895480,/	t,t,t,t,t	<img class = center src='/static/experiments/beast_fmri_test/images/V.png'></img>	89,71	2750.0	test	<img class = center src='/static/experiments/beast_fmri_test/images/redV.png'></img>	stop	1300.0	3.0	16.0	stop	non-target	V	89,Middle Finger	71,Index Finger	1000.0	1450.0	1800.0	1300.0	0.0	1450.0	n/a	0.0	stop_stim
282401.96797722823	876.03202277179219	n/a	1082	89	2750	876.032022772	stim	stop-signal	327	895074	0.0-15.16-1.16	beast_fmri_test	391	892759,/,893438,/,894119,/,894799,/,895480,/	t,t,t,t,t	<img class = center src='/static/experiments/beast_fmri_test/images/V.png'></img>	89,71	2750.0	test	<img class = center src='/static/experiments/beast_fmri_test/images/redV.png'></img>	stop	1300.0	3.0	16.0	stop	non-target	V	89,Middle Finger	71,Index Finger	1000.0	1450.0	1800.0	1300.0	0.0	1450.0	n/a	0.0	ITI
284693	500	n/a	-1	-1	500	0.0	fixation	poldrack-single-stim	328	896489	0.0-15.17-0.17	beast_fmri_test	391	896160,/	t	<div class = centerbox2><div class = fixation>+</div></div>	none	500.0	test	n/a	n/a	n/a	n/a	n/a	n/a	n/a	n/a	n/a	n/a	n/a	n/a	n/a	n/a	n/a	n/a	n/a	n/a	fixation
281859.33904235205	2750	n/a	1281	89	2750	2838.66095765	stim	stop-signal	329	899244	0.0-15.17-1.17	beast_fmri_test	391	896840,/,897520,/,898200,/,898882,/,899561,/,900241,/,900923,/,901603,/	t,t,t,t,t,t,t,t	<img class = center src='/static/experiments/beast_fmri_test/images/P.png'></img>	89,71	2750.0	test	<img class = center src='/static/experiments/beast_fmri_test/images/redP.png'></img>	go	1350.0	3.0	17.0	go	non-target	P	89,Middle Finger	71,Index Finger	1000.0	1400.0	1800.0	1350.0	0.0	1400.0	0.0	n/a	go_stim
284609.33904235205	2838.66095764792	n/a	1281	89	2750	2838.66095765	stim	stop-signal	329	899244	0.0-15.17-1.17	beast_fmri_test	391	896840,/,897520,/,898200,/,898882,/,899561,/,900241,/,900923,/,901603,/	t,t,t,t,t,t,t,t	<img class = center src='/static/experiments/beast_fmri_test/images/P.png'></img>	89,71	2750.0	test	<img class = center src='/static/experiments/beast_fmri_test/images/redP.png'></img>	go	1350.0	3.0	17.0	go	non-target	P	89,Middle Finger	71,Index Finger	1000.0	1400.0	1800.0	1350.0	0.0	1400.0	0.0	n/a	ITI
290825	500	n/a	-1	-1	500	0.0	fixation	poldrack-single-stim	330	902621	0.0-15.18-0.18	beast_fmri_test	391	902283,/	t	<div class = centerbox2><div class = fixation>+</div></div>	none	500.0	test	n/a	n/a	n/a	n/a	n/a	n/a	n/a	n/a	n/a	n/a	n/a	n/a	n/a	n/a	n/a	n/a	n/a	n/a	fixation
289180.56714212103	2750	n/a	1388	71	2750	1650.43285788	stim	stop-signal	331	905377	0.0-15.18-1.18	beast_fmri_test	391	902962,/,903644,/,904325,/,905004,/,905685,/,906365,/	t,t,t,t,t,t	<img class = center src='/static/experiments/beast_fmri_test/images/B.png'></img>	89,71	2750.0	test	<img class = center src='/static/experiments/beast_fmri_test/images/redB.png'></img>	go	1350.0	3.0	18.0	go	non-target	B	89,Middle Finger	71,Index Finger	1000.0	1400.0	1800.0	1350.0	1.0	1400.0	1.0	n/a	go_stim
291930.56714212103	1650.4328578790112	n/a	1388	71	2750	1650.43285788	stim	stop-signal	331	905377	0.0-15.18-1.18	beast_fmri_test	391	902962,/,903644,/,904325,/,905004,/,905685,/,906365,/	t,t,t,t,t,t	<img class = center src='/static/experiments/beast_fmri_test/images/B.png'></img>	89,71	2750.0	test	<img class = center src='/static/experiments/beast_fmri_test/images/redB.png'></img>	go	1350.0	3.0	18.0	go	non-target	B	89,Middle Finger	71,Index Finger	1000.0	1400.0	1800.0	1350.0	1.0	1400.0	1.0	n/a	ITI
295770	500	n/a	-1	-1	500	0.0	fixation	poldrack-single-stim	332	907566	0.0-15.19-0.19	beast_fmri_test	391	907064,/	t	<div class = centerbox2><div class = fixation>+</div></div>	none	500.0	test	n/a	n/a	n/a	n/a	n/a	n/a	n/a	n/a	n/a	n/a	n/a	n/a	n/a	n/a	n/a	n/a	n/a	n/a	fixation
292979.94828683557	2750	n/a	1764	71	2750	2794.05171316	stim	stop-signal	333	910320	0.0-15.19-1.19	beast_fmri_test	391	907726,/,908406,/,909086,/,909766,/,910446,/,911127,/,911807,/,912487,/	t,t,t,t,t,t,t,t	<img class = center src='/static/experiments/beast_fmri_test/images/D.png'></img>	89,71	2750.0	test	<img class = center src='/static/experiments/beast_fmri_test/images/redD.png'></img>	go	1350.0	3.0	19.0	go	non-target	D	89,Middle Finger	71,Index Finger	1000.0	1400.0	1800.0	1350.0	1.0	1400.0	1.0	n/a	go_stim
295729.94828683557	2794.0517131643883	n/a	1764	71	2750	2794.05171316	stim	stop-signal	333	910320	0.0-15.19-1.19	beast_fmri_test	391	907726,/,908406,/,909086,/,909766,/,910446,/,911127,/,911807,/,912487,/	t,t,t,t,t,t,t,t	<img class = center src='/static/experiments/beast_fmri_test/images/D.png'></img>	89,71	2750.0	test	<img class = center src='/static/experiments/beast_fmri_test/images/redD.png'></img>	go	1350.0	3.0	19.0	go	non-target	D	89,Middle Finger	71,Index Finger	1000.0	1400.0	1800.0	1350.0	1.0	1400.0	1.0	n/a	ITI
301863	500	n/a	-1	-1	500	0.0	fixation	poldrack-single-stim	334	913659	0.0-15.20-0.20	beast_fmri_test	391	913170,/	t	<div class = centerbox2><div class = fixation>+</div></div>	none	500.0	test	n/a	n/a	n/a	n/a	n/a	n/a	n/a	n/a	n/a	n/a	n/a	n/a	n/a	n/a	n/a	n/a	n/a	n/a	fixation
301531.94646751962	1400.0	n/a	1155	89	2750	337.05353248	stim	stop-signal	335	916415	0.0-15.20-1.20	beast_fmri_test	391	913849,/,914529,/,915209,/,915889,/,916569,/	t,t,t,t,t	<img class = center src='/static/experiments/beast_fmri_test/images/B.png'></img>	89,71	2750.0	test	<img class = center src='/static/experiments/beast_fmri_test/images/redB.png'></img>	stop	1350.0	3.0	20.0	stop	non-target	B	89,Middle Finger	71,Index Finger	1000.0	1400.0	1800.0	1350.0	0.0	1400.0	n/a	0.0	go_stim
302881.94646751962	1350.0	n/a	1155	89	2750	337.05353248	stim	stop-signal	335	916415	0.0-15.20-1.20	beast_fmri_test	391	913849,/,914529,/,915209,/,915889,/,916569,/	t,t,t,t,t	<img class = center src='/static/experiments/beast_fmri_test/images/B.png'></img>	89,71	2750.0	test	<img class = center src='/static/experiments/beast_fmri_test/images/redB.png'></img>	stop	1350.0	3.0	20.0	stop	non-target	B	89,Middle Finger	71,Index Finger	1000.0	1400.0	1800.0	1350.0	0.0	1400.0	n/a	0.0	stop_stim
304281.94646751962	337.05353248042388	n/a	1155	89	2750	337.05353248	stim	stop-signal	335	916415	0.0-15.20-1.20	beast_fmri_test	391	913849,/,914529,/,915209,/,915889,/,916569,/	t,t,t,t,t	<img class = center src='/static/experiments/beast_fmri_test/images/B.png'></img>	89,71	2750.0	test	<img class = center src='/static/experiments/beast_fmri_test/images/redB.png'></img>	stop	1350.0	3.0	20.0	stop	non-target	B	89,Middle Finger	71,Index Finger	1000.0	1400.0	1800.0	1350.0	0.0	1400.0	n/a	0.0	ITI
305495	500	n/a	-1	-1	500	0.0	fixation	poldrack-single-stim	336	917291	0.0-15.21-0.21	beast_fmri_test	391	917249,/	t	<div class = centerbox2><div class = fixation>+</div></div>	none	500.0	test	n/a	n/a	n/a	n/a	n/a	n/a	n/a	n/a	n/a	n/a	n/a	n/a	n/a	n/a	n/a	n/a	n/a	n/a	fixation
305391.83459276659	2750	n/a	1858	71	2750	108.165407233	stim	stop-signal	337	920046	0.0-15.21-1.21	beast_fmri_test	391	917930,/,918610,/,919290,/,919971,/	t,t,t,t	<img class = center src='/static/experiments/beast_fmri_test/images/P.png'></img>	89,71	2750.0	test	<img class = center src='/static/experiments/beast_fmri_test/images/redP.png'></img>	go	1400.0	3.0	21.0	go	non-target	P	89,Middle Finger	71,Index Finger	1000.0	1350.0	1800.0	1400.0	1.0	1350.0	1.0	n/a	go_stim
308141.83459276659	108.16540723336462	n/a	1858	71	2750	108.165407233	stim	stop-signal	337	920046	0.0-15.21-1.21	beast_fmri_test	391	917930,/,918610,/,919290,/,919971,/	t,t,t,t	<img class = center src='/static/experiments/beast_fmri_test/images/P.png'></img>	89,71	2750.0	test	<img class = center src='/static/experiments/beast_fmri_test/images/redP.png'></img>	go	1400.0	3.0	21.0	go	non-target	P	89,Middle Finger	71,Index Finger	1000.0	1350.0	1800.0	1400.0	1.0	1350.0	1.0	n/a	ITI
308899	500	n/a	-1	-1	500	0.0	fixation	poldrack-single-stim	338	920695	0.0-15.22-0.22	beast_fmri_test	391	920651,/	t	<div class = centerbox2><div class = fixation>+</div></div>	none	500.0	test	n/a	n/a	n/a	n/a	n/a	n/a	n/a	n/a	n/a	n/a	n/a	n/a	n/a	n/a	n/a	n/a	n/a	n/a	fixation
308355.17259230663	1000.0	n/a	-1	-1	2750	547.827407693	stim	stop-signal	339	923449	0.0-15.22-1.22	beast_fmri_test	391	921332,/,922011,/,922692,/,923372,/	t,t,t,t	<img class = center src='/static/experiments/beast_fmri_test/images/D.png'></img>	89,71	2750.0	test	<img class = center src='/static/experiments/beast_fmri_test/images/redD.png'></img>	stop	1750.0	3.0	22.0	stop	target	D	89,Middle Finger	71,Index Finger	1000.0	1350.0	1750.0	1400.0	0.0	1000.0	n/a	1.0	go_stim
310105.17259230663	1750.0	n/a	-1	-1	2750	547.827407693	stim	stop-signal	339	923449	0.0-15.22-1.22	beast_fmri_test	391	921332,/,922011,/,922692,/,923372,/	t,t,t,t	<img class = center src='/static/experiments/beast_fmri_test/images/D.png'></img>	89,71	2750.0	test	<img class = center src='/static/experiments/beast_fmri_test/images/redD.png'></img>	stop	1750.0	3.0	22.0	stop	target	D	89,Middle Finger	71,Index Finger	1000.0	1350.0	1750.0	1400.0	0.0	1000.0	n/a	1.0	stop_stim
