onset	duration	"”text"""	rt	key_press	block_duration	timing_post_trial	trial_id	trial_type	trial_index	time_elapsed	internal_node_id	exp_id	subject_id	trigger_times	triggers	stimulus	possible_responses	stim_duration	exp_stage	SS_stimulus	SS_trial_type	SS_duration	load	trial_num	stop_trial_type	adaptive_trial_type	stim	yes_response_key	no_response_key	SSD_target	SSD_non_target	SSTarget	SSNonTarget	go_acc	stop_acc	SS_delay	adaptive_acc	new_trial_type
test	10880.0	n/a	-1	-1	10880	0.0	practice-no-stop-feedback	poldrack-single-stim	196	622235	0.0-12.0	beast_fmri_test	337	611359,/,612037,/,612717,/,613396,/,614075,/,614755,/,615436,/,616115,/,616796,/,617475,/,618155,/,618834,/,619514,/,620194,/,620873,/,621554,/,622233,/	t,t,t,t,t,t,t,t,t,t,t,t,t,t,t,t,t	"<div class = ""centerbox""><p class = ""block-text"">Your delay is 2 trials.</p><p class = block-text>Please wait for the scanner to start the block</p></div>"	77	10880.0	n/a	n/a	n/a	n/a	n/a	n/a	n/a	n/a	n/a	n/a	n/a	n/a	n/a	n/a	n/a	n/a	n/a	n/a	n/a	start_functional_block
11378	500.0	n/a	-1	-1	500	0.0	fixation	poldrack-single-stim	197	622737	0.0-13.0-0.0	beast_fmri_test	337	n/a	n/a	<div class = centerbox2><div class = fixation>+</div></div>	none	500.0	test	n/a	n/a	n/a	n/a	n/a	n/a	n/a	n/a	n/a	n/a	n/a	n/a	n/a	n/a	n/a	n/a	n/a	n/a	fixation
10585.098050459404	2750.0	n/a	1690	71	2750	795.901949541	stim	stop-signal	198	625490	0.0-13.0-1.0	beast_fmri_test	337	622912,/,623592,/,624272,/,624952,/,625641,/	t,t,t,t,t	<img class = center src='/static/experiments/beast_fmri_test/images/D.png'></img>	89,71	2750.0	test	<img class = center src='/static/experiments/beast_fmri_test/images/redD.png'></img>	go	-1.0	2.0	0.0	go	temp-non-target	D	89,Middle Finger	71,Index Finger	600.0	700.0	2150.0	2050.0	0.0	n/a	n/a	n/a	go_stim
13335.098050459404	795.901949541	n/a	1690	71	2750	795.901949541	stim	stop-signal	198	625490	0.0-13.0-1.0	beast_fmri_test	337	622912,/,623592,/,624272,/,624952,/,625641,/	t,t,t,t,t	<img class = center src='/static/experiments/beast_fmri_test/images/D.png'></img>	89,71	2750.0	test	<img class = center src='/static/experiments/beast_fmri_test/images/redD.png'></img>	go	-1.0	2.0	0.0	go	temp-non-target	D	89,Middle Finger	71,Index Finger	600.0	700.0	2150.0	2050.0	0.0	n/a	n/a	n/a	ITI
15452	500.0	n/a	-1	-1	500	0.0	fixation	poldrack-single-stim	199	626811	0.0-13.1-0.1	beast_fmri_test	337	626310,/	t	<div class = centerbox2><div class = fixation>+</div></div>	none	500.0	test	n/a	n/a	n/a	n/a	n/a	n/a	n/a	n/a	n/a	n/a	n/a	n/a	n/a	n/a	n/a	n/a	n/a	n/a	fixation
12611.210887285415	2750.0	n/a	689	71	2750	2842.78911271	stim	stop-signal	200	629563	0.0-13.1-1.1	beast_fmri_test	337	626990,/,627670,/,628350,/,629030,/,629710,/,630389,/,631069,/,631748,/	t,t,t,t,t,t,t,t	<img class = center src='/static/experiments/beast_fmri_test/images/P.png'></img>	89,71	2750.0	test	<img class = center src='/static/experiments/beast_fmri_test/images/redP.png'></img>	go	-1.0	2.0	1.0	go	temp-non-target	P	89,Middle Finger	71,Index Finger	600.0	700.0	2150.0	2050.0	0.0	n/a	n/a	n/a	go_stim
15361.210887285415	2842.78911271	n/a	689	71	2750	2842.78911271	stim	stop-signal	200	629563	0.0-13.1-1.1	beast_fmri_test	337	626990,/,627670,/,628350,/,629030,/,629710,/,630389,/,631069,/,631748,/	t,t,t,t,t,t,t,t	<img class = center src='/static/experiments/beast_fmri_test/images/P.png'></img>	89,71	2750.0	test	<img class = center src='/static/experiments/beast_fmri_test/images/redP.png'></img>	go	-1.0	2.0	1.0	go	temp-non-target	P	89,Middle Finger	71,Index Finger	600.0	700.0	2150.0	2050.0	0.0	n/a	n/a	n/a	ITI
21572	500.0	n/a	-1	-1	500	0.0	fixation	poldrack-single-stim	201	632931	0.0-13.2-0.2	beast_fmri_test	337	632429,/	t	<div class = centerbox2><div class = fixation>+</div></div>	none	500.0	test	n/a	n/a	n/a	n/a	n/a	n/a	n/a	n/a	n/a	n/a	n/a	n/a	n/a	n/a	n/a	n/a	n/a	n/a	fixation
20536.729675279232	2750.0	n/a	1576	71	2750	1036.27032472	stim	stop-signal	202	635682	0.0-13.2-1.2	beast_fmri_test	337	633108,/,633788,/,634467,/,635145,/,635827,/,636506,/	t,t,t,t,t,t	<img class = center src='/static/experiments/beast_fmri_test/images/P.png'></img>	89,71	2750.0	test	<img class = center src='/static/experiments/beast_fmri_test/images/redP.png'></img>	go	2050.0	2.0	2.0	go	non-target	P	89,Middle Finger	71,Index Finger	600.0	700.0	2150.0	2050.0	1.0	n/a	700.0	1.0	go_stim
23286.729675279232	1036.27032472	n/a	1576	71	2750	1036.27032472	stim	stop-signal	202	635682	0.0-13.2-1.2	beast_fmri_test	337	633108,/,633788,/,634467,/,635145,/,635827,/,636506,/	t,t,t,t,t,t	<img class = center src='/static/experiments/beast_fmri_test/images/P.png'></img>	89,71	2750.0	test	<img class = center src='/static/experiments/beast_fmri_test/images/redP.png'></img>	go	2050.0	2.0	2.0	go	non-target	P	89,Middle Finger	71,Index Finger	600.0	700.0	2150.0	2050.0	1.0	n/a	700.0	1.0	ITI
25887	500.0	n/a	-1	-1	500	0.0	fixation	poldrack-single-stim	203	637246	0.0-13.3-0.3	beast_fmri_test	337	637184,/	t	<div class = centerbox2><div class = fixation>+</div></div>	none	500.0	test	n/a	n/a	n/a	n/a	n/a	n/a	n/a	n/a	n/a	n/a	n/a	n/a	n/a	n/a	n/a	n/a	n/a	n/a	fixation
25309.292156477342	700.0	n/a	-1	-1	2750	579.707843523	stim	stop-signal	204	639998	0.0-13.3-1.3	beast_fmri_test	337	637866,/,638546,/,639225,/,639904,/	t,t,t,t	<img class = center src='/static/experiments/beast_fmri_test/images/B.png'></img>	89,71	2750.0	test	<img class = center src='/static/experiments/beast_fmri_test/images/redB.png'></img>	stop	2050.0	2.0	3.0	stop	non-target	B	89,Middle Finger	71,Index Finger	600.0	700.0	2150.0	2050.0	0.0	1.0	700.0	n/a	go_stim
27359.292156477342	2050.0	n/a	-1	-1	2750	579.707843523	stim	stop-signal	204	639998	0.0-13.3-1.3	beast_fmri_test	337	637866,/,638546,/,639225,/,639904,/	t,t,t,t	<img class = center src='/static/experiments/beast_fmri_test/images/B.png'></img>	89,71	2750.0	test	<img class = center src='/static/experiments/beast_fmri_test/images/redB.png'></img>	stop	2050.0	2.0	3.0	stop	non-target	B	89,Middle Finger	71,Index Finger	600.0	700.0	2150.0	2050.0	0.0	1.0	700.0	n/a	stop_stim
28059.292156477342	579.707843523	n/a	-1	-1	2750	579.707843523	stim	stop-signal	204	639998	0.0-13.3-1.3	beast_fmri_test	337	637866,/,638546,/,639225,/,639904,/	t,t,t,t	<img class = center src='/static/experiments/beast_fmri_test/images/B.png'></img>	89,71	2750.0	test	<img class = center src='/static/experiments/beast_fmri_test/images/redB.png'></img>	stop	2050.0	2.0	3.0	stop	non-target	B	89,Middle Finger	71,Index Finger	600.0	700.0	2150.0	2050.0	0.0	1.0	700.0	n/a	ITI
29748	500.0	n/a	-1	-1	500	0.0	fixation	poldrack-single-stim	205	641107	0.0-13.4-0.4	beast_fmri_test	337	640606,/	t	<div class = centerbox2><div class = fixation>+</div></div>	none	500.0	test	n/a	n/a	n/a	n/a	n/a	n/a	n/a	n/a	n/a	n/a	n/a	n/a	n/a	n/a	n/a	n/a	n/a	n/a	fixation
25996.610225479119	600.0	n/a	-1	-1	2750	3754.38977452	stim	stop-signal	206	643860	0.0-13.4-1.4	beast_fmri_test	337	641263,/,641943,/,642622,/,643303,/,643982,/,644662,/,645342,/,646022,/,646701,/,647381,/	t,t,t,t,t,t,t,t,t,t	<img class = center src='/static/experiments/beast_fmri_test/images/P.png'></img>	89,71	2750.0	test	<img class = center src='/static/experiments/beast_fmri_test/images/redP.png'></img>	stop	2150.0	2.0	4.0	stop	target	P	89,Middle Finger	71,Index Finger	600.0	750.0	2150.0	2050.0	0.0	1.0	600.0	n/a	go_stim
28146.610225479119	2150.0	n/a	-1	-1	2750	3754.38977452	stim	stop-signal	206	643860	0.0-13.4-1.4	beast_fmri_test	337	641263,/,641943,/,642622,/,643303,/,643982,/,644662,/,645342,/,646022,/,646701,/,647381,/	t,t,t,t,t,t,t,t,t,t	<img class = center src='/static/experiments/beast_fmri_test/images/P.png'></img>	89,71	2750.0	test	<img class = center src='/static/experiments/beast_fmri_test/images/redP.png'></img>	stop	2150.0	2.0	4.0	stop	target	P	89,Middle Finger	71,Index Finger	600.0	750.0	2150.0	2050.0	0.0	1.0	600.0	n/a	stop_stim
28746.610225479119	3754.38977452	n/a	-1	-1	2750	3754.38977452	stim	stop-signal	206	643860	0.0-13.4-1.4	beast_fmri_test	337	641263,/,641943,/,642622,/,643303,/,643982,/,644662,/,645342,/,646022,/,646701,/,647381,/	t,t,t,t,t,t,t,t,t,t	<img class = center src='/static/experiments/beast_fmri_test/images/P.png'></img>	89,71	2750.0	test	<img class = center src='/static/experiments/beast_fmri_test/images/redP.png'></img>	stop	2150.0	2.0	4.0	stop	target	P	89,Middle Finger	71,Index Finger	600.0	750.0	2150.0	2050.0	0.0	1.0	600.0	n/a	ITI
36782	500.0	n/a	-1	-1	500	0.0	fixation	poldrack-single-stim	207	648141	0.0-13.5-0.5	beast_fmri_test	337	648062,/	t	<div class = centerbox2><div class = fixation>+</div></div>	none	500.0	test	n/a	n/a	n/a	n/a	n/a	n/a	n/a	n/a	n/a	n/a	n/a	n/a	n/a	n/a	n/a	n/a	n/a	n/a	fixation
33550.673978047445	750.0	n/a	725	71	2750	3232.32602195	stim	stop-signal	208	650892	0.0-13.5-1.5	beast_fmri_test	337	648740,/,649421,/,650100,/,650779,/,651460,/,652139,/,652819,/,653499,/	t,t,t,t,t,t,t,t	<img class = center src='/static/experiments/beast_fmri_test/images/T.png'></img>	89,71	2750.0	test	<img class = center src='/static/experiments/beast_fmri_test/images/redT.png'></img>	stop	2000.0	2.0	5.0	stop	non-target	T	89,Middle Finger	71,Index Finger	650.0	750.0	2150.0	2000.0	0.0	0.0	750.0	n/a	go_stim
35550.673978047445	2000.0	n/a	725	71	2750	3232.32602195	stim	stop-signal	208	650892	0.0-13.5-1.5	beast_fmri_test	337	648740,/,649421,/,650100,/,650779,/,651460,/,652139,/,652819,/,653499,/	t,t,t,t,t,t,t,t	<img class = center src='/static/experiments/beast_fmri_test/images/T.png'></img>	89,71	2750.0	test	<img class = center src='/static/experiments/beast_fmri_test/images/redT.png'></img>	stop	2000.0	2.0	5.0	stop	non-target	T	89,Middle Finger	71,Index Finger	650.0	750.0	2150.0	2000.0	0.0	0.0	750.0	n/a	stop_stim
36300.673978047445	3232.32602195	n/a	725	71	2750	3232.32602195	stim	stop-signal	208	650892	0.0-13.5-1.5	beast_fmri_test	337	648740,/,649421,/,650100,/,650779,/,651460,/,652139,/,652819,/,653499,/	t,t,t,t,t,t,t,t	<img class = center src='/static/experiments/beast_fmri_test/images/T.png'></img>	89,71	2750.0	test	<img class = center src='/static/experiments/beast_fmri_test/images/redT.png'></img>	stop	2000.0	2.0	5.0	stop	non-target	T	89,Middle Finger	71,Index Finger	650.0	750.0	2150.0	2000.0	0.0	0.0	750.0	n/a	ITI
43294	500.0	n/a	-1	-1	500	0.0	fixation	poldrack-single-stim	209	654653	0.0-13.6-0.6	beast_fmri_test	337	654178,/	t	<div class = centerbox2><div class = fixation>+</div></div>	none	500.0	test	n/a	n/a	n/a	n/a	n/a	n/a	n/a	n/a	n/a	n/a	n/a	n/a	n/a	n/a	n/a	n/a	n/a	n/a	fixation
42601.763240822824	2750.0	n/a	1633	71	2750	693.236759177	stim	stop-signal	210	657404	0.0-13.6-1.6	beast_fmri_test	337	654858,/,655538,/,656217,/,656895,/,657576,/	t,t,t,t,t	<img class = center src='/static/experiments/beast_fmri_test/images/P.png'></img>	89,71	2750.0	test	<img class = center src='/static/experiments/beast_fmri_test/images/redP.png'></img>	go	2100.0	2.0	6.0	go	target	P	89,Middle Finger	71,Index Finger	650.0	700.0	2100.0	2000.0	0.0	n/a	650.0	0.0	go_stim
45351.763240822824	693.236759177	n/a	1633	71	2750	693.236759177	stim	stop-signal	210	657404	0.0-13.6-1.6	beast_fmri_test	337	654858,/,655538,/,656217,/,656895,/,657576,/	t,t,t,t,t	<img class = center src='/static/experiments/beast_fmri_test/images/P.png'></img>	89,71	2750.0	test	<img class = center src='/static/experiments/beast_fmri_test/images/redP.png'></img>	go	2100.0	2.0	6.0	go	target	P	89,Middle Finger	71,Index Finger	650.0	700.0	2100.0	2000.0	0.0	n/a	650.0	0.0	ITI
47267	500.0	n/a	-1	-1	500	0.0	fixation	poldrack-single-stim	211	658626	0.0-13.7-0.7	beast_fmri_test	337	658256,/	t	<div class = centerbox2><div class = fixation>+</div></div>	none	500.0	test	n/a	n/a	n/a	n/a	n/a	n/a	n/a	n/a	n/a	n/a	n/a	n/a	n/a	n/a	n/a	n/a	n/a	n/a	fixation
46942.773263724404	2750.0	n/a	1544	71	2750	325.226736276	stim	stop-signal	212	661377	0.0-13.7-1.7	beast_fmri_test	337	658936,/,659614,/,660294,/,660974,/,661655,/	t,t,t,t,t	<img class = center src='/static/experiments/beast_fmri_test/images/D.png'></img>	89,71	2750.0	test	<img class = center src='/static/experiments/beast_fmri_test/images/redD.png'></img>	go	2050.0	2.0	7.0	go	non-target	D	89,Middle Finger	71,Index Finger	650.0	700.0	2100.0	2050.0	1.0	n/a	700.0	1.0	go_stim
49692.773263724404	325.226736276	n/a	1544	71	2750	325.226736276	stim	stop-signal	212	661377	0.0-13.7-1.7	beast_fmri_test	337	658936,/,659614,/,660294,/,660974,/,661655,/	t,t,t,t,t	<img class = center src='/static/experiments/beast_fmri_test/images/D.png'></img>	89,71	2750.0	test	<img class = center src='/static/experiments/beast_fmri_test/images/redD.png'></img>	go	2050.0	2.0	7.0	go	non-target	D	89,Middle Finger	71,Index Finger	650.0	700.0	2100.0	2050.0	1.0	n/a	700.0	1.0	ITI
50873	500.0	n/a	-1	-1	500	0.0	fixation	poldrack-single-stim	213	662232	0.0-13.8-0.8	beast_fmri_test	337	n/a	n/a	<div class = centerbox2><div class = fixation>+</div></div>	none	500.0	test	n/a	n/a	n/a	n/a	n/a	n/a	n/a	n/a	n/a	n/a	n/a	n/a	n/a	n/a	n/a	n/a	n/a	n/a	fixation
50199.737972295145	2750.0	n/a	1454	71	2750	674.262027705	stim	stop-signal	214	664983	0.0-13.8-1.8	beast_fmri_test	337	662335,/,663014,/,663692,/,664373,/,665052,/	t,t,t,t,t	<img class = center src='/static/experiments/beast_fmri_test/images/T.png'></img>	89,71	2750.0	test	<img class = center src='/static/experiments/beast_fmri_test/images/redT.png'></img>	go	2050.0	2.0	8.0	go	non-target	T	89,Middle Finger	71,Index Finger	650.0	700.0	2100.0	2050.0	1.0	n/a	700.0	1.0	go_stim
52949.737972295145	674.262027705	n/a	1454	71	2750	674.262027705	stim	stop-signal	214	664983	0.0-13.8-1.8	beast_fmri_test	337	662335,/,663014,/,663692,/,664373,/,665052,/	t,t,t,t,t	<img class = center src='/static/experiments/beast_fmri_test/images/T.png'></img>	89,71	2750.0	test	<img class = center src='/static/experiments/beast_fmri_test/images/redT.png'></img>	go	2050.0	2.0	8.0	go	non-target	T	89,Middle Finger	71,Index Finger	650.0	700.0	2100.0	2050.0	1.0	n/a	700.0	1.0	ITI
54827	500.0	n/a	-1	-1	500	0.0	fixation	poldrack-single-stim	215	666186	0.0-13.9-0.9	beast_fmri_test	337	665731,/	t	<div class = centerbox2><div class = fixation>+</div></div>	none	500.0	test	n/a	n/a	n/a	n/a	n/a	n/a	n/a	n/a	n/a	n/a	n/a	n/a	n/a	n/a	n/a	n/a	n/a	n/a	fixation
54335.691275295685	700.0	n/a	705	89	2750	493.308724704	stim	stop-signal	216	668938	0.0-13.9-1.9	beast_fmri_test	337	666412,/,667092,/,667772,/,668451,/,669130,/	t,t,t,t,t	<img class = center src='/static/experiments/beast_fmri_test/images/P.png'></img>	89,71	2750.0	test	<img class = center src='/static/experiments/beast_fmri_test/images/redP.png'></img>	stop	2050.0	2.0	9.0	stop	non-target	P	89,Middle Finger	71,Index Finger	650.0	700.0	2100.0	2050.0	0.0	0.0	700.0	n/a	go_stim
56385.691275295685	2050.0	n/a	705	89	2750	493.308724704	stim	stop-signal	216	668938	0.0-13.9-1.9	beast_fmri_test	337	666412,/,667092,/,667772,/,668451,/,669130,/	t,t,t,t,t	<img class = center src='/static/experiments/beast_fmri_test/images/P.png'></img>	89,71	2750.0	test	<img class = center src='/static/experiments/beast_fmri_test/images/redP.png'></img>	stop	2050.0	2.0	9.0	stop	non-target	P	89,Middle Finger	71,Index Finger	650.0	700.0	2100.0	2050.0	0.0	0.0	700.0	n/a	stop_stim
57085.691275295685	493.308724704	n/a	705	89	2750	493.308724704	stim	stop-signal	216	668938	0.0-13.9-1.9	beast_fmri_test	337	666412,/,667092,/,667772,/,668451,/,669130,/	t,t,t,t,t	<img class = center src='/static/experiments/beast_fmri_test/images/P.png'></img>	89,71	2750.0	test	<img class = center src='/static/experiments/beast_fmri_test/images/redP.png'></img>	stop	2050.0	2.0	9.0	stop	non-target	P	89,Middle Finger	71,Index Finger	650.0	700.0	2100.0	2050.0	0.0	0.0	700.0	n/a	ITI
58599	500.0	n/a	-1	-1	500	0.0	fixation	poldrack-single-stim	217	669958	0.0-13.10-0.10	beast_fmri_test	337	669809,/	t	<div class = centerbox2><div class = fixation>+</div></div>	none	500.0	test	n/a	n/a	n/a	n/a	n/a	n/a	n/a	n/a	n/a	n/a	n/a	n/a	n/a	n/a	n/a	n/a	n/a	n/a	fixation
58216.756265999167	2750.0	n/a	1232	71	2750	385.243734001	stim	stop-signal	218	672711	0.0-13.10-1.10	beast_fmri_test	337	670490,/,671170,/,671849,/,672529,/	t,t,t,t	<img class = center src='/static/experiments/beast_fmri_test/images/D.png'></img>	89,71	2750.0	test	<img class = center src='/static/experiments/beast_fmri_test/images/redD.png'></img>	go	2100.0	2.0	10.0	go	non-target	D	89,Middle Finger	71,Index Finger	650.0	650.0	2100.0	2100.0	1.0	n/a	650.0	1.0	go_stim
60966.756265999167	385.243734001	n/a	1232	71	2750	385.243734001	stim	stop-signal	218	672711	0.0-13.10-1.10	beast_fmri_test	337	670490,/,671170,/,671849,/,672529,/	t,t,t,t	<img class = center src='/static/experiments/beast_fmri_test/images/D.png'></img>	89,71	2750.0	test	<img class = center src='/static/experiments/beast_fmri_test/images/redD.png'></img>	go	2100.0	2.0	10.0	go	non-target	D	89,Middle Finger	71,Index Finger	650.0	650.0	2100.0	2100.0	1.0	n/a	650.0	1.0	ITI
62266	500.0	n/a	-1	-1	500	0.0	fixation	poldrack-single-stim	219	673625	0.0-13.11-0.11	beast_fmri_test	337	673208,/	t	<div class = centerbox2><div class = fixation>+</div></div>	none	500.0	test	n/a	n/a	n/a	n/a	n/a	n/a	n/a	n/a	n/a	n/a	n/a	n/a	n/a	n/a	n/a	n/a	n/a	n/a	fixation
61684.656154385419	2750.0	n/a	1252	89	2750	583.343845615	stim	stop-signal	220	676377	0.0-13.11-1.11	beast_fmri_test	337	673888,/,674570,/,675248,/,675928,/,676608,/	t,t,t,t,t	<img class = center src='/static/experiments/beast_fmri_test/images/P.png'></img>	89,71	2750.0	test	<img class = center src='/static/experiments/beast_fmri_test/images/redP.png'></img>	go	2100.0	2.0	11.0	go	target	P	89,Middle Finger	71,Index Finger	650.0	650.0	2100.0	2100.0	1.0	n/a	650.0	1.0	go_stim
64434.656154385419	583.343845615	n/a	1252	89	2750	583.343845615	stim	stop-signal	220	676377	0.0-13.11-1.11	beast_fmri_test	337	673888,/,674570,/,675248,/,675928,/,676608,/	t,t,t,t,t	<img class = center src='/static/experiments/beast_fmri_test/images/P.png'></img>	89,71	2750.0	test	<img class = center src='/static/experiments/beast_fmri_test/images/redP.png'></img>	go	2100.0	2.0	11.0	go	target	P	89,Middle Finger	71,Index Finger	650.0	650.0	2100.0	2100.0	1.0	n/a	650.0	1.0	ITI
66130	500.0	n/a	-1	-1	500	0.0	fixation	poldrack-single-stim	221	677489	0.0-13.12-0.12	beast_fmri_test	337	677288,/	t	<div class = centerbox2><div class = fixation>+</div></div>	none	500.0	test	n/a	n/a	n/a	n/a	n/a	n/a	n/a	n/a	n/a	n/a	n/a	n/a	n/a	n/a	n/a	n/a	n/a	n/a	fixation
65934.752156758448	2750.0	n/a	1321	71	2750	195.247843242	stim	stop-signal	222	680239	0.0-13.12-1.12	beast_fmri_test	337	677967,/,678646,/,679326,/,680006,/	t,t,t,t	<img class = center src='/static/experiments/beast_fmri_test/images/B.png'></img>	89,71	2750.0	test	<img class = center src='/static/experiments/beast_fmri_test/images/redB.png'></img>	go	2100.0	2.0	12.0	go	non-target	B	89,Middle Finger	71,Index Finger	650.0	650.0	2100.0	2100.0	1.0	n/a	650.0	1.0	go_stim
68684.752156758448	195.247843242	n/a	1321	71	2750	195.247843242	stim	stop-signal	222	680239	0.0-13.12-1.12	beast_fmri_test	337	677967,/,678646,/,679326,/,680006,/	t,t,t,t	<img class = center src='/static/experiments/beast_fmri_test/images/B.png'></img>	89,71	2750.0	test	<img class = center src='/static/experiments/beast_fmri_test/images/redB.png'></img>	go	2100.0	2.0	12.0	go	non-target	B	89,Middle Finger	71,Index Finger	650.0	650.0	2100.0	2100.0	1.0	n/a	650.0	1.0	ITI
69605	500.0	n/a	-1	-1	500	0.0	fixation	poldrack-single-stim	223	680964	0.0-13.13-0.13	beast_fmri_test	337	680686,/	t	<div class = centerbox2><div class = fixation>+</div></div>	none	500.0	test	n/a	n/a	n/a	n/a	n/a	n/a	n/a	n/a	n/a	n/a	n/a	n/a	n/a	n/a	n/a	n/a	n/a	n/a	fixation
69503.375081119826	2750.0	n/a	1335	89	2750	103.62491888	stim	stop-signal	224	683716	0.0-13.13-1.13	beast_fmri_test	337	681365,/,682045,/,682726,/,683404,/	t,t,t,t	<img class = center src='/static/experiments/beast_fmri_test/images/P.png'></img>	89,71	2750.0	test	<img class = center src='/static/experiments/beast_fmri_test/images/redP.png'></img>	go	2100.0	2.0	13.0	go	target	P	89,Middle Finger	71,Index Finger	650.0	650.0	2100.0	2100.0	1.0	n/a	650.0	1.0	go_stim
72253.375081119826	103.62491888	n/a	1335	89	2750	103.62491888	stim	stop-signal	224	683716	0.0-13.13-1.13	beast_fmri_test	337	681365,/,682045,/,682726,/,683404,/	t,t,t,t	<img class = center src='/static/experiments/beast_fmri_test/images/P.png'></img>	89,71	2750.0	test	<img class = center src='/static/experiments/beast_fmri_test/images/redP.png'></img>	go	2100.0	2.0	13.0	go	target	P	89,Middle Finger	71,Index Finger	650.0	650.0	2100.0	2100.0	1.0	n/a	650.0	1.0	ITI
73018	500.0	n/a	-1	-1	500	0.0	fixation	poldrack-single-stim	225	684377	0.0-13.14-0.14	beast_fmri_test	337	684083,/	t	<div class = centerbox2><div class = fixation>+</div></div>	none	500.0	test	n/a	n/a	n/a	n/a	n/a	n/a	n/a	n/a	n/a	n/a	n/a	n/a	n/a	n/a	n/a	n/a	n/a	n/a	fixation
70952.362487508333	650.0	n/a	-1	-1	2750	2067.63751249	stim	stop-signal	226	687129	0.0-13.14-1.14	beast_fmri_test	337	684763,/,685444,/,686124,/,686803,/,687483,/,688162,/,688842,/	t,t,t,t,t,t,t	<img class = center src='/static/experiments/beast_fmri_test/images/T.png'></img>	89,71	2750.0	test	<img class = center src='/static/experiments/beast_fmri_test/images/redT.png'></img>	stop	2100.0	2.0	14.0	stop	non-target	T	89,Middle Finger	71,Index Finger	650.0	650.0	2100.0	2100.0	0.0	1.0	650.0	n/a	go_stim
73052.362487508333	2100.0	n/a	-1	-1	2750	2067.63751249	stim	stop-signal	226	687129	0.0-13.14-1.14	beast_fmri_test	337	684763,/,685444,/,686124,/,686803,/,687483,/,688162,/,688842,/	t,t,t,t,t,t,t	<img class = center src='/static/experiments/beast_fmri_test/images/T.png'></img>	89,71	2750.0	test	<img class = center src='/static/experiments/beast_fmri_test/images/redT.png'></img>	stop	2100.0	2.0	14.0	stop	non-target	T	89,Middle Finger	71,Index Finger	650.0	650.0	2100.0	2100.0	0.0	1.0	650.0	n/a	stop_stim
73702.362487508333	2067.63751249	n/a	-1	-1	2750	2067.63751249	stim	stop-signal	226	687129	0.0-13.14-1.14	beast_fmri_test	337	684763,/,685444,/,686124,/,686803,/,687483,/,688162,/,688842,/	t,t,t,t,t,t,t	<img class = center src='/static/experiments/beast_fmri_test/images/T.png'></img>	89,71	2750.0	test	<img class = center src='/static/experiments/beast_fmri_test/images/redT.png'></img>	stop	2100.0	2.0	14.0	stop	non-target	T	89,Middle Finger	71,Index Finger	650.0	650.0	2100.0	2100.0	0.0	1.0	650.0	n/a	ITI
78365	500.0	n/a	-1	-1	500	0.0	fixation	poldrack-single-stim	227	689724	0.0-13.15-0.15	beast_fmri_test	337	689522,/	t	<div class = centerbox2><div class = fixation>+</div></div>	none	500.0	test	n/a	n/a	n/a	n/a	n/a	n/a	n/a	n/a	n/a	n/a	n/a	n/a	n/a	n/a	n/a	n/a	n/a	n/a	fixation
78363.652839033399	2750.0	n/a	1237	71	2750	2.34716096661	stim	stop-signal	228	692475	0.0-13.15-1.15	beast_fmri_test	337	690201,/,690881,/,691560,/,692240,/	t,t,t,t	<img class = center src='/static/experiments/beast_fmri_test/images/D.png'></img>	89,71	2750.0	test	<img class = center src='/static/experiments/beast_fmri_test/images/redD.png'></img>	go	2050.0	2.0	15.0	go	non-target	D	89,Middle Finger	71,Index Finger	650.0	700.0	2100.0	2050.0	1.0	n/a	700.0	1.0	go_stim
81113.652839033399	2.34716096661	n/a	1237	71	2750	2.34716096661	stim	stop-signal	228	692475	0.0-13.15-1.15	beast_fmri_test	337	690201,/,690881,/,691560,/,692240,/	t,t,t,t	<img class = center src='/static/experiments/beast_fmri_test/images/D.png'></img>	89,71	2750.0	test	<img class = center src='/static/experiments/beast_fmri_test/images/redD.png'></img>	go	2050.0	2.0	15.0	go	non-target	D	89,Middle Finger	71,Index Finger	650.0	700.0	2100.0	2050.0	1.0	n/a	700.0	1.0	ITI
81647	500.0	n/a	-1	-1	500	0.0	fixation	poldrack-single-stim	229	693006	0.0-13.16-0.16	beast_fmri_test	337	692920,/	t	<div class = centerbox2><div class = fixation>+</div></div>	none	500.0	test	n/a	n/a	n/a	n/a	n/a	n/a	n/a	n/a	n/a	n/a	n/a	n/a	n/a	n/a	n/a	n/a	n/a	n/a	fixation
80941.204607001622	2750.0	n/a	1597	71	2750	706.795392998	stim	stop-signal	230	695757	0.0-13.16-1.16	beast_fmri_test	337	693600,/,694280,/,694958,/,695637,/,696317,/	t,t,t,t,t	<img class = center src='/static/experiments/beast_fmri_test/images/V.png'></img>	89,71	2750.0	test	<img class = center src='/static/experiments/beast_fmri_test/images/redV.png'></img>	go	2050.0	2.0	16.0	go	non-target	V	89,Middle Finger	71,Index Finger	650.0	700.0	2100.0	2050.0	1.0	n/a	700.0	1.0	go_stim
83691.204607001622	706.795392998	n/a	1597	71	2750	706.795392998	stim	stop-signal	230	695757	0.0-13.16-1.16	beast_fmri_test	337	693600,/,694280,/,694958,/,695637,/,696317,/	t,t,t,t,t	<img class = center src='/static/experiments/beast_fmri_test/images/V.png'></img>	89,71	2750.0	test	<img class = center src='/static/experiments/beast_fmri_test/images/redV.png'></img>	go	2050.0	2.0	16.0	go	non-target	V	89,Middle Finger	71,Index Finger	650.0	700.0	2100.0	2050.0	1.0	n/a	700.0	1.0	ITI
85634	500.0	n/a	-1	-1	500	0.0	fixation	poldrack-single-stim	231	696993	0.0-13.17-0.17	beast_fmri_test	337	n/a	n/a	<div class = centerbox2><div class = fixation>+</div></div>	none	500.0	test	n/a	n/a	n/a	n/a	n/a	n/a	n/a	n/a	n/a	n/a	n/a	n/a	n/a	n/a	n/a	n/a	n/a	n/a	fixation
83699.067578221788	700.0	n/a	1170	71	2750	1935.93242178	stim	stop-signal	232	699744	0.0-13.17-1.17	beast_fmri_test	337	696997,/,697678,/,698357,/,699036,/,699717,/,700396,/,701076,/	t,t,t,t,t,t,t	<img class = center src='/static/experiments/beast_fmri_test/images/V.png'></img>	89,71	2750.0	test	<img class = center src='/static/experiments/beast_fmri_test/images/redV.png'></img>	stop	2050.0	2.0	17.0	stop	non-target	V	89,Middle Finger	71,Index Finger	650.0	700.0	2100.0	2050.0	0.0	0.0	700.0	n/a	go_stim
85749.067578221788	2050.0	n/a	1170	71	2750	1935.93242178	stim	stop-signal	232	699744	0.0-13.17-1.17	beast_fmri_test	337	696997,/,697678,/,698357,/,699036,/,699717,/,700396,/,701076,/	t,t,t,t,t,t,t	<img class = center src='/static/experiments/beast_fmri_test/images/V.png'></img>	89,71	2750.0	test	<img class = center src='/static/experiments/beast_fmri_test/images/redV.png'></img>	stop	2050.0	2.0	17.0	stop	non-target	V	89,Middle Finger	71,Index Finger	650.0	700.0	2100.0	2050.0	0.0	0.0	700.0	n/a	stop_stim
86449.067578221788	1935.93242178	n/a	1170	71	2750	1935.93242178	stim	stop-signal	232	699744	0.0-13.17-1.17	beast_fmri_test	337	696997,/,697678,/,698357,/,699036,/,699717,/,700396,/,701076,/	t,t,t,t,t,t,t	<img class = center src='/static/experiments/beast_fmri_test/images/V.png'></img>	89,71	2750.0	test	<img class = center src='/static/experiments/beast_fmri_test/images/redV.png'></img>	stop	2050.0	2.0	17.0	stop	non-target	V	89,Middle Finger	71,Index Finger	650.0	700.0	2100.0	2050.0	0.0	0.0	700.0	n/a	ITI
90847	500.0	n/a	-1	-1	500	0.0	fixation	poldrack-single-stim	233	702206	0.0-13.18-0.18	beast_fmri_test	337	701756,/	t	<div class = centerbox2><div class = fixation>+</div></div>	none	500.0	test	n/a	n/a	n/a	n/a	n/a	n/a	n/a	n/a	n/a	n/a	n/a	n/a	n/a	n/a	n/a	n/a	n/a	n/a	fixation
90508.725374573725	650.0	n/a	944	89	2750	339.274625426	stim	stop-signal	234	704957	0.0-13.18-1.18	beast_fmri_test	337	702436,/,703116,/,703796,/,704475,/,705155,/	t,t,t,t,t	<img class = center src='/static/experiments/beast_fmri_test/images/V.png'></img>	89,71	2750.0	test	<img class = center src='/static/experiments/beast_fmri_test/images/redV.png'></img>	stop	2100.0	2.0	18.0	stop	target	V	89,Middle Finger	71,Index Finger	650.0	650.0	2100.0	2050.0	0.0	0.0	650.0	n/a	go_stim
92608.725374573725	2100.0	n/a	944	89	2750	339.274625426	stim	stop-signal	234	704957	0.0-13.18-1.18	beast_fmri_test	337	702436,/,703116,/,703796,/,704475,/,705155,/	t,t,t,t,t	<img class = center src='/static/experiments/beast_fmri_test/images/V.png'></img>	89,71	2750.0	test	<img class = center src='/static/experiments/beast_fmri_test/images/redV.png'></img>	stop	2100.0	2.0	18.0	stop	target	V	89,Middle Finger	71,Index Finger	650.0	650.0	2100.0	2050.0	0.0	0.0	650.0	n/a	stop_stim
93258.725374573725	339.274625426	n/a	944	89	2750	339.274625426	stim	stop-signal	234	704957	0.0-13.18-1.18	beast_fmri_test	337	702436,/,703116,/,703796,/,704475,/,705155,/	t,t,t,t,t	<img class = center src='/static/experiments/beast_fmri_test/images/V.png'></img>	89,71	2750.0	test	<img class = center src='/static/experiments/beast_fmri_test/images/redV.png'></img>	stop	2100.0	2.0	18.0	stop	target	V	89,Middle Finger	71,Index Finger	650.0	650.0	2100.0	2050.0	0.0	0.0	650.0	n/a	ITI
94467	500.0	n/a	-1	-1	500	0.0	fixation	poldrack-single-stim	235	705826	0.0-13.19-0.19	beast_fmri_test	337	n/a	n/a	<div class = centerbox2><div class = fixation>+</div></div>	none	500.0	test	n/a	n/a	n/a	n/a	n/a	n/a	n/a	n/a	n/a	n/a	n/a	n/a	n/a	n/a	n/a	n/a	n/a	n/a	fixation
92296.540501018637	2750.0	n/a	663	71	2750	2172.45949898	stim	stop-signal	236	708578	0.0-13.19-1.19	beast_fmri_test	337	705834,/,706514,/,707193,/,707873,/,708553,/,709232,/,709912,/,710592,/	t,t,t,t,t,t,t,t	<img class = center src='/static/experiments/beast_fmri_test/images/D.png'></img>	89,71	2750.0	test	<img class = center src='/static/experiments/beast_fmri_test/images/redD.png'></img>	go	2100.0	2.0	19.0	go	non-target	D	89,Middle Finger	71,Index Finger	600.0	650.0	2100.0	2100.0	1.0	n/a	650.0	1.0	go_stim
95046.540501018637	2172.45949898	n/a	663	71	2750	2172.45949898	stim	stop-signal	236	708578	0.0-13.19-1.19	beast_fmri_test	337	705834,/,706514,/,707193,/,707873,/,708553,/,709232,/,709912,/,710592,/	t,t,t,t,t,t,t,t	<img class = center src='/static/experiments/beast_fmri_test/images/D.png'></img>	89,71	2750.0	test	<img class = center src='/static/experiments/beast_fmri_test/images/redD.png'></img>	go	2100.0	2.0	19.0	go	non-target	D	89,Middle Finger	71,Index Finger	600.0	650.0	2100.0	2100.0	1.0	n/a	650.0	1.0	ITI
99920	500.0	n/a	-1	-1	500	0.0	fixation	poldrack-single-stim	237	711279	0.0-13.20-0.20	beast_fmri_test	337	711271,/	t	<div class = centerbox2><div class = fixation>+</div></div>	none	500.0	test	n/a	n/a	n/a	n/a	n/a	n/a	n/a	n/a	n/a	n/a	n/a	n/a	n/a	n/a	n/a	n/a	n/a	n/a	fixation
99261.138146702433	2750.0	n/a	728	71	2750	659.861853298	stim	stop-signal	238	714030	0.0-13.20-1.20	beast_fmri_test	337	711950,/,712631,/,713310,/,713989,/,714669,/	t,t,t,t,t	<img class = center src='/static/experiments/beast_fmri_test/images/B.png'></img>	89,71	2750.0	test	<img class = center src='/static/experiments/beast_fmri_test/images/redB.png'></img>	go	2100.0	2.0	20.0	go	non-target	B	89,Middle Finger	71,Index Finger	600.0	650.0	2100.0	2100.0	1.0	n/a	650.0	1.0	go_stim
102011.13814670243	659.861853298	n/a	728	71	2750	659.861853298	stim	stop-signal	238	714030	0.0-13.20-1.20	beast_fmri_test	337	711950,/,712631,/,713310,/,713989,/,714669,/	t,t,t,t,t	<img class = center src='/static/experiments/beast_fmri_test/images/B.png'></img>	89,71	2750.0	test	<img class = center src='/static/experiments/beast_fmri_test/images/redB.png'></img>	go	2100.0	2.0	20.0	go	non-target	B	89,Middle Finger	71,Index Finger	600.0	650.0	2100.0	2100.0	1.0	n/a	650.0	1.0	ITI
103858	500.0	n/a	-1	-1	500	0.0	fixation	poldrack-single-stim	239	715217	0.0-13.21-0.21	beast_fmri_test	337	n/a	n/a	<div class = centerbox2><div class = fixation>+</div></div>	none	500.0	test	n/a	n/a	n/a	n/a	n/a	n/a	n/a	n/a	n/a	n/a	n/a	n/a	n/a	n/a	n/a	n/a	n/a	n/a	fixation
103487.96253491344	2750.0	n/a	1177	71	2750	373.037465087	stim	stop-signal	240	717970	0.0-13.21-1.21	beast_fmri_test	337	715350,/,716029,/,716708,/,717388,/,718068,/	t,t,t,t,t	<img class = center src='/static/experiments/beast_fmri_test/images/B.png'></img>	89,71	2750.0	test	<img class = center src='/static/experiments/beast_fmri_test/images/redB.png'></img>	go	2100.0	2.0	21.0	go	non-target	B	89,Middle Finger	71,Index Finger	600.0	650.0	2100.0	2100.0	1.0	n/a	650.0	1.0	go_stim
106237.96253491344	373.037465087	n/a	1177	71	2750	373.037465087	stim	stop-signal	240	717970	0.0-13.21-1.21	beast_fmri_test	337	715350,/,716029,/,716708,/,717388,/,718068,/	t,t,t,t,t	<img class = center src='/static/experiments/beast_fmri_test/images/B.png'></img>	89,71	2750.0	test	<img class = center src='/static/experiments/beast_fmri_test/images/redB.png'></img>	go	2100.0	2.0	21.0	go	non-target	B	89,Middle Finger	71,Index Finger	600.0	650.0	2100.0	2100.0	1.0	n/a	650.0	1.0	ITI
107514	500.0	n/a	-1	-1	500	0.0	fixation	poldrack-single-stim	241	718873	0.0-13.22-0.22	beast_fmri_test	337	718749,/	t	<div class = centerbox2><div class = fixation>+</div></div>	none	500.0	test	n/a	n/a	n/a	n/a	n/a	n/a	n/a	n/a	n/a	n/a	n/a	n/a	n/a	n/a	n/a	n/a	n/a	n/a	fixation
106453.92024010408	2750.0	n/a	963	71	2750	1062.0797599	stim	stop-signal	242	721625	0.0-13.22-1.22	beast_fmri_test	337	719427,/,720108,/,720787,/,721467,/,722146,/	t,t,t,t,t	<img class = center src='/static/experiments/beast_fmri_test/images/T.png'></img>	89,71	2750.0	test	<img class = center src='/static/experiments/beast_fmri_test/images/redT.png'></img>	go	2100.0	2.0	22.0	go	non-target	T	89,Middle Finger	71,Index Finger	600.0	650.0	2100.0	2100.0	1.0	n/a	650.0	1.0	go_stim
109203.92024010408	1062.0797599	n/a	963	71	2750	1062.0797599	stim	stop-signal	242	721625	0.0-13.22-1.22	beast_fmri_test	337	719427,/,720108,/,720787,/,721467,/,722146,/	t,t,t,t,t	<img class = center src='/static/experiments/beast_fmri_test/images/T.png'></img>	89,71	2750.0	test	<img class = center src='/static/experiments/beast_fmri_test/images/redT.png'></img>	go	2100.0	2.0	22.0	go	non-target	T	89,Middle Finger	71,Index Finger	600.0	650.0	2100.0	2100.0	1.0	n/a	650.0	1.0	ITI
111859	500.0	n/a	-1	-1	500	0.0	fixation	poldrack-single-stim	243	723218	0.0-13.23-0.23	beast_fmri_test	337	722826,/	t	<div class = centerbox2><div class = fixation>+</div></div>	none	500.0	test	n/a	n/a	n/a	n/a	n/a	n/a	n/a	n/a	n/a	n/a	n/a	n/a	n/a	n/a	n/a	n/a	n/a	n/a	fixation
111338.76140677813	2750.0	n/a	565	89	2750	522.238593222	stim	stop-signal	244	725970	0.0-13.23-1.23	beast_fmri_test	337	723506,/,724185,/,724865,/,725544,/,726223,/	t,t,t,t,t	<img class = center src='/static/experiments/beast_fmri_test/images/B.png'></img>	89,71	2750.0	test	<img class = center src='/static/experiments/beast_fmri_test/images/redB.png'></img>	go	2150.0	2.0	23.0	go	target	B	89,Middle Finger	71,Index Finger	600.0	650.0	2150.0	2100.0	1.0	n/a	600.0	1.0	go_stim
114088.76140677813	522.238593222	n/a	565	89	2750	522.238593222	stim	stop-signal	244	725970	0.0-13.23-1.23	beast_fmri_test	337	723506,/,724185,/,724865,/,725544,/,726223,/	t,t,t,t,t	<img class = center src='/static/experiments/beast_fmri_test/images/B.png'></img>	89,71	2750.0	test	<img class = center src='/static/experiments/beast_fmri_test/images/redB.png'></img>	go	2150.0	2.0	23.0	go	target	B	89,Middle Finger	71,Index Finger	600.0	650.0	2150.0	2100.0	1.0	n/a	600.0	1.0	ITI
115662	500.0	n/a	-1	-1	500	0.0	fixation	poldrack-single-stim	245	727021	0.0-13.24-0.24	beast_fmri_test	337	726903,/	t	<div class = centerbox2><div class = fixation>+</div></div>	none	500.0	test	n/a	n/a	n/a	n/a	n/a	n/a	n/a	n/a	n/a	n/a	n/a	n/a	n/a	n/a	n/a	n/a	n/a	n/a	fixation
114186.01179815247	600.0	n/a	-1	-1	2750	1476.98820185	stim	stop-signal	246	729772	0.0-13.24-1.24	beast_fmri_test	337	727584,/,728263,/,728943,/,729623,/,730302,/,730983,/	t,t,t,t,t,t	<img class = center src='/static/experiments/beast_fmri_test/images/T.png'></img>	89,71	2750.0	test	<img class = center src='/static/experiments/beast_fmri_test/images/redT.png'></img>	stop	2150.0	2.0	24.0	stop	target	T	89,Middle Finger	71,Index Finger	600.0	650.0	2150.0	2100.0	0.0	1.0	600.0	n/a	go_stim
116336.01179815247	2150.0	n/a	-1	-1	2750	1476.98820185	stim	stop-signal	246	729772	0.0-13.24-1.24	beast_fmri_test	337	727584,/,728263,/,728943,/,729623,/,730302,/,730983,/	t,t,t,t,t,t	<img class = center src='/static/experiments/beast_fmri_test/images/T.png'></img>	89,71	2750.0	test	<img class = center src='/static/experiments/beast_fmri_test/images/redT.png'></img>	stop	2150.0	2.0	24.0	stop	target	T	89,Middle Finger	71,Index Finger	600.0	650.0	2150.0	2100.0	0.0	1.0	600.0	n/a	stop_stim
116936.01179815247	1476.98820185	n/a	-1	-1	2750	1476.98820185	stim	stop-signal	246	729772	0.0-13.24-1.24	beast_fmri_test	337	727584,/,728263,/,728943,/,729623,/,730302,/,730983,/	t,t,t,t,t,t	<img class = center src='/static/experiments/beast_fmri_test/images/T.png'></img>	89,71	2750.0	test	<img class = center src='/static/experiments/beast_fmri_test/images/redT.png'></img>	stop	2150.0	2.0	24.0	stop	target	T	89,Middle Finger	71,Index Finger	600.0	650.0	2150.0	2100.0	0.0	1.0	600.0	n/a	ITI
120417	500.0	n/a	-1	-1	500	0.0	fixation	poldrack-single-stim	247	731776	0.0-13.25-0.25	beast_fmri_test	337	731662,/	t	<div class = centerbox2><div class = fixation>+</div></div>	none	500.0	test	n/a	n/a	n/a	n/a	n/a	n/a	n/a	n/a	n/a	n/a	n/a	n/a	n/a	n/a	n/a	n/a	n/a	n/a	fixation
117085.98421635618	2750.0	n/a	753	71	2750	3333.01578364	stim	stop-signal	248	734528	0.0-13.25-1.25	beast_fmri_test	337	732342,/,733022,/,733707,/,734381,/,735060,/,735741,/,736420,/,737100,/,737780,/	t,t,t,t,t,t,t,t,t	<img class = center src='/static/experiments/beast_fmri_test/images/P.png'></img>	89,71	2750.0	test	<img class = center src='/static/experiments/beast_fmri_test/images/redP.png'></img>	go	2100.0	2.0	25.0	go	non-target	P	89,Middle Finger	71,Index Finger	650.0	650.0	2150.0	2100.0	1.0	n/a	650.0	1.0	go_stim
119835.98421635618	3333.01578364	n/a	753	71	2750	3333.01578364	stim	stop-signal	248	734528	0.0-13.25-1.25	beast_fmri_test	337	732342,/,733022,/,733707,/,734381,/,735060,/,735741,/,736420,/,737100,/,737780,/	t,t,t,t,t,t,t,t,t	<img class = center src='/static/experiments/beast_fmri_test/images/P.png'></img>	89,71	2750.0	test	<img class = center src='/static/experiments/beast_fmri_test/images/redP.png'></img>	go	2100.0	2.0	25.0	go	non-target	P	89,Middle Finger	71,Index Finger	650.0	650.0	2150.0	2100.0	1.0	n/a	650.0	1.0	ITI
127031	500.0	n/a	-1	-1	500	0.0	fixation	poldrack-single-stim	249	738390	0.0-13.26-0.26	beast_fmri_test	337	n/a	n/a	<div class = centerbox2><div class = fixation>+</div></div>	none	500.0	test	n/a	n/a	n/a	n/a	n/a	n/a	n/a	n/a	n/a	n/a	n/a	n/a	n/a	n/a	n/a	n/a	n/a	n/a	fixation
125918.14085086132	650.0	n/a	-1	-1	2750	1114.85914914	stim	stop-signal	250	741142	0.0-13.26-1.26	beast_fmri_test	337	738459,/,739138,/,739817,/,740498,/,741176,/,741857,/	t,t,t,t,t,t	<img class = center src='/static/experiments/beast_fmri_test/images/B.png'></img>	89,71	2750.0	test	<img class = center src='/static/experiments/beast_fmri_test/images/redB.png'></img>	stop	2100.0	2.0	26.0	stop	non-target	B	89,Middle Finger	71,Index Finger	650.0	650.0	2150.0	2100.0	0.0	1.0	650.0	n/a	go_stim
128018.14085086132	2100.0	n/a	-1	-1	2750	1114.85914914	stim	stop-signal	250	741142	0.0-13.26-1.26	beast_fmri_test	337	738459,/,739138,/,739817,/,740498,/,741176,/,741857,/	t,t,t,t,t,t	<img class = center src='/static/experiments/beast_fmri_test/images/B.png'></img>	89,71	2750.0	test	<img class = center src='/static/experiments/beast_fmri_test/images/redB.png'></img>	stop	2100.0	2.0	26.0	stop	non-target	B	89,Middle Finger	71,Index Finger	650.0	650.0	2150.0	2100.0	0.0	1.0	650.0	n/a	stop_stim
128668.14085086132	1114.85914914	n/a	-1	-1	2750	1114.85914914	stim	stop-signal	250	741142	0.0-13.26-1.26	beast_fmri_test	337	738459,/,739138,/,739817,/,740498,/,741176,/,741857,/	t,t,t,t,t,t	<img class = center src='/static/experiments/beast_fmri_test/images/B.png'></img>	89,71	2750.0	test	<img class = center src='/static/experiments/beast_fmri_test/images/redB.png'></img>	stop	2100.0	2.0	26.0	stop	non-target	B	89,Middle Finger	71,Index Finger	650.0	650.0	2150.0	2100.0	0.0	1.0	650.0	n/a	ITI
131427	500.0	n/a	-1	-1	500	0.0	fixation	poldrack-single-stim	251	742786	0.0-13.27-0.27	beast_fmri_test	337	742537,/	t	<div class = centerbox2><div class = fixation>+</div></div>	none	500.0	test	n/a	n/a	n/a	n/a	n/a	n/a	n/a	n/a	n/a	n/a	n/a	n/a	n/a	n/a	n/a	n/a	n/a	n/a	fixation
129731.07395753474	650.0	n/a	871	89	2750	1697.92604247	stim	stop-signal	252	745538	0.0-13.27-1.27	beast_fmri_test	337	743217,/,743896,/,744576,/,745255,/,745936,/,746615,/	t,t,t,t,t,t	<img class = center src='/static/experiments/beast_fmri_test/images/P.png'></img>	89,71	2750.0	test	<img class = center src='/static/experiments/beast_fmri_test/images/redP.png'></img>	stop	2100.0	2.0	27.0	stop	target	P	89,Middle Finger	71,Index Finger	650.0	700.0	2100.0	2100.0	0.0	0.0	650.0	n/a	go_stim
131831.07395753474	2100.0	n/a	871	89	2750	1697.92604247	stim	stop-signal	252	745538	0.0-13.27-1.27	beast_fmri_test	337	743217,/,743896,/,744576,/,745255,/,745936,/,746615,/	t,t,t,t,t,t	<img class = center src='/static/experiments/beast_fmri_test/images/P.png'></img>	89,71	2750.0	test	<img class = center src='/static/experiments/beast_fmri_test/images/redP.png'></img>	stop	2100.0	2.0	27.0	stop	target	P	89,Middle Finger	71,Index Finger	650.0	700.0	2100.0	2100.0	0.0	0.0	650.0	n/a	stop_stim
132481.07395753474	1697.92604247	n/a	871	89	2750	1697.92604247	stim	stop-signal	252	745538	0.0-13.27-1.27	beast_fmri_test	337	743217,/,743896,/,744576,/,745255,/,745936,/,746615,/	t,t,t,t,t,t	<img class = center src='/static/experiments/beast_fmri_test/images/P.png'></img>	89,71	2750.0	test	<img class = center src='/static/experiments/beast_fmri_test/images/redP.png'></img>	stop	2100.0	2.0	27.0	stop	target	P	89,Middle Finger	71,Index Finger	650.0	700.0	2100.0	2100.0	0.0	0.0	650.0	n/a	ITI
136405	500.0	n/a	-1	-1	500	0.0	fixation	poldrack-single-stim	253	747764	0.0-13.28-0.28	beast_fmri_test	337	747294,/	t	<div class = centerbox2><div class = fixation>+</div></div>	none	500.0	test	n/a	n/a	n/a	n/a	n/a	n/a	n/a	n/a	n/a	n/a	n/a	n/a	n/a	n/a	n/a	n/a	n/a	n/a	fixation
135397.04825505009	700.0	n/a	-1	-1	2750	1008.95174495	stim	stop-signal	254	750515	0.0-13.28-1.28	beast_fmri_test	337	747974,/,748655,/,749334,/,750013,/,750692,/,751373,/	t,t,t,t,t,t	<img class = center src='/static/experiments/beast_fmri_test/images/P.png'></img>	89,71	2750.0	test	<img class = center src='/static/experiments/beast_fmri_test/images/redP.png'></img>	stop	2050.0	2.0	28.0	stop	non-target	P	89,Middle Finger	71,Index Finger	600.0	700.0	2100.0	2050.0	0.0	1.0	700.0	n/a	go_stim
137447.04825505009	2050.0	n/a	-1	-1	2750	1008.95174495	stim	stop-signal	254	750515	0.0-13.28-1.28	beast_fmri_test	337	747974,/,748655,/,749334,/,750013,/,750692,/,751373,/	t,t,t,t,t,t	<img class = center src='/static/experiments/beast_fmri_test/images/P.png'></img>	89,71	2750.0	test	<img class = center src='/static/experiments/beast_fmri_test/images/redP.png'></img>	stop	2050.0	2.0	28.0	stop	non-target	P	89,Middle Finger	71,Index Finger	600.0	700.0	2100.0	2050.0	0.0	1.0	700.0	n/a	stop_stim
138147.04825505009	1008.95174495	n/a	-1	-1	2750	1008.95174495	stim	stop-signal	254	750515	0.0-13.28-1.28	beast_fmri_test	337	747974,/,748655,/,749334,/,750013,/,750692,/,751373,/	t,t,t,t,t,t	<img class = center src='/static/experiments/beast_fmri_test/images/P.png'></img>	89,71	2750.0	test	<img class = center src='/static/experiments/beast_fmri_test/images/redP.png'></img>	stop	2050.0	2.0	28.0	stop	non-target	P	89,Middle Finger	71,Index Finger	600.0	700.0	2100.0	2050.0	0.0	1.0	700.0	n/a	ITI
140694	500.0	n/a	-1	-1	500	0.0	fixation	poldrack-single-stim	255	752053	0.0-13.29-0.29	beast_fmri_test	337	752053,/	t	<div class = centerbox2><div class = fixation>+</div></div>	none	500.0	test	n/a	n/a	n/a	n/a	n/a	n/a	n/a	n/a	n/a	n/a	n/a	n/a	n/a	n/a	n/a	n/a	n/a	n/a	fixation
139759.03439411544	2750.0	n/a	688	71	2750	936.965605885	stim	stop-signal	256	754805	0.0-13.29-1.29	beast_fmri_test	337	752732,/,753413,/,754091,/,754771,/,755450,/	t,t,t,t,t	<img class = center src='/static/experiments/beast_fmri_test/images/V.png'></img>	89,71	2750.0	test	<img class = center src='/static/experiments/beast_fmri_test/images/redV.png'></img>	go	2000.0	2.0	29.0	go	non-target	V	89,Middle Finger	71,Index Finger	600.0	750.0	2100.0	2000.0	1.0	n/a	750.0	1.0	go_stim
142509.03439411544	936.965605885	n/a	688	71	2750	936.965605885	stim	stop-signal	256	754805	0.0-13.29-1.29	beast_fmri_test	337	752732,/,753413,/,754091,/,754771,/,755450,/	t,t,t,t,t	<img class = center src='/static/experiments/beast_fmri_test/images/V.png'></img>	89,71	2750.0	test	<img class = center src='/static/experiments/beast_fmri_test/images/redV.png'></img>	go	2000.0	2.0	29.0	go	non-target	V	89,Middle Finger	71,Index Finger	600.0	750.0	2100.0	2000.0	1.0	n/a	750.0	1.0	ITI
144915	500.0	n/a	-1	-1	500	0.0	fixation	poldrack-single-stim	257	756274	0.0-13.30-0.30	beast_fmri_test	337	756130,/	t	<div class = centerbox2><div class = fixation>+</div></div>	none	500.0	test	n/a	n/a	n/a	n/a	n/a	n/a	n/a	n/a	n/a	n/a	n/a	n/a	n/a	n/a	n/a	n/a	n/a	n/a	fixation
144437.35507676087	750.0	n/a	-1	-1	2750	479.644923239	stim	stop-signal	258	759026	0.0-13.30-1.30	beast_fmri_test	337	756809,/,757490,/,758170,/,758848,/	t,t,t,t	<img class = center src='/static/experiments/beast_fmri_test/images/D.png'></img>	89,71	2750.0	test	<img class = center src='/static/experiments/beast_fmri_test/images/redD.png'></img>	stop	2000.0	2.0	30.0	stop	non-target	D	89,Middle Finger	71,Index Finger	600.0	750.0	2100.0	2000.0	0.0	1.0	750.0	n/a	go_stim
146437.35507676087	2000.0	n/a	-1	-1	2750	479.644923239	stim	stop-signal	258	759026	0.0-13.30-1.30	beast_fmri_test	337	756809,/,757490,/,758170,/,758848,/	t,t,t,t	<img class = center src='/static/experiments/beast_fmri_test/images/D.png'></img>	89,71	2750.0	test	<img class = center src='/static/experiments/beast_fmri_test/images/redD.png'></img>	stop	2000.0	2.0	30.0	stop	non-target	D	89,Middle Finger	71,Index Finger	600.0	750.0	2100.0	2000.0	0.0	1.0	750.0	n/a	stop_stim
147187.35507676087	479.644923239	n/a	-1	-1	2750	479.644923239	stim	stop-signal	258	759026	0.0-13.30-1.30	beast_fmri_test	337	756809,/,757490,/,758170,/,758848,/	t,t,t,t	<img class = center src='/static/experiments/beast_fmri_test/images/D.png'></img>	89,71	2750.0	test	<img class = center src='/static/experiments/beast_fmri_test/images/redD.png'></img>	stop	2000.0	2.0	30.0	stop	non-target	D	89,Middle Finger	71,Index Finger	600.0	750.0	2100.0	2000.0	0.0	1.0	750.0	n/a	ITI
148679	500.0	n/a	-1	-1	500	0.0	fixation	poldrack-single-stim	259	760038	0.0-13.31-0.31	beast_fmri_test	337	759537,/	t	<div class = centerbox2><div class = fixation>+</div></div>	none	500.0	test	n/a	n/a	n/a	n/a	n/a	n/a	n/a	n/a	n/a	n/a	n/a	n/a	n/a	n/a	n/a	n/a	n/a	n/a	fixation
147897.89211510052	2750.0	n/a	915	71	2750	783.107884899	stim	stop-signal	260	762790	0.0-13.31-1.31	beast_fmri_test	337	760209,/,760889,/,761568,/,762248,/,762928,/	t,t,t,t,t	<img class = center src='/static/experiments/beast_fmri_test/images/V.png'></img>	89,71	2750.0	test	<img class = center src='/static/experiments/beast_fmri_test/images/redV.png'></img>	go	2150.0	2.0	31.0	go	target	V	89,Middle Finger	71,Index Finger	600.0	800.0	2150.0	2000.0	0.0	n/a	600.0	0.0	go_stim
150647.89211510052	783.107884899	n/a	915	71	2750	783.107884899	stim	stop-signal	260	762790	0.0-13.31-1.31	beast_fmri_test	337	760209,/,760889,/,761568,/,762248,/,762928,/	t,t,t,t,t	<img class = center src='/static/experiments/beast_fmri_test/images/V.png'></img>	89,71	2750.0	test	<img class = center src='/static/experiments/beast_fmri_test/images/redV.png'></img>	go	2150.0	2.0	31.0	go	target	V	89,Middle Finger	71,Index Finger	600.0	800.0	2150.0	2000.0	0.0	n/a	600.0	0.0	ITI
152745	500.0	n/a	-1	-1	500	0.0	fixation	poldrack-single-stim	261	764104	0.0-13.32-0.32	beast_fmri_test	337	763607,/	t	<div class = centerbox2><div class = fixation>+</div></div>	none	500.0	test	n/a	n/a	n/a	n/a	n/a	n/a	n/a	n/a	n/a	n/a	n/a	n/a	n/a	n/a	n/a	n/a	n/a	n/a	fixation
150739.86347830063	2750.0	n/a	1681	71	2750	2006.1365217	stim	stop-signal	262	766855	0.0-13.32-1.32	beast_fmri_test	337	764288,/,764967,/,765646,/,766326,/,767006,/,767685,/,768364,/	t,t,t,t,t,t,t	<img class = center src='/static/experiments/beast_fmri_test/images/B.png'></img>	89,71	2750.0	test	<img class = center src='/static/experiments/beast_fmri_test/images/redB.png'></img>	go	1950.0	2.0	32.0	go	non-target	B	89,Middle Finger	71,Index Finger	600.0	800.0	2150.0	1950.0	1.0	n/a	800.0	1.0	go_stim
153489.86347830063	2006.1365217	n/a	1681	71	2750	2006.1365217	stim	stop-signal	262	766855	0.0-13.32-1.32	beast_fmri_test	337	764288,/,764967,/,765646,/,766326,/,767006,/,767685,/,768364,/	t,t,t,t,t,t,t	<img class = center src='/static/experiments/beast_fmri_test/images/B.png'></img>	89,71	2750.0	test	<img class = center src='/static/experiments/beast_fmri_test/images/redB.png'></img>	go	1950.0	2.0	32.0	go	non-target	B	89,Middle Finger	71,Index Finger	600.0	800.0	2150.0	1950.0	1.0	n/a	800.0	1.0	ITI
158035	500.0	n/a	-1	-1	500	0.0	fixation	poldrack-single-stim	263	769394	0.0-13.33-0.33	beast_fmri_test	337	769045,/	t	<div class = centerbox2><div class = fixation>+</div></div>	none	500.0	test	n/a	n/a	n/a	n/a	n/a	n/a	n/a	n/a	n/a	n/a	n/a	n/a	n/a	n/a	n/a	n/a	n/a	n/a	fixation
157523.18363092968	2750.0	n/a	727	71	2750	512.81636907	stim	stop-signal	264	772145	0.0-13.33-1.33	beast_fmri_test	337	769725,/,770404,/,771084,/,771763,/,772443,/	t,t,t,t,t	<img class = center src='/static/experiments/beast_fmri_test/images/T.png'></img>	89,71	2750.0	test	<img class = center src='/static/experiments/beast_fmri_test/images/redT.png'></img>	go	1950.0	2.0	33.0	go	non-target	T	89,Middle Finger	71,Index Finger	600.0	800.0	2150.0	1950.0	1.0	n/a	800.0	1.0	go_stim
160273.18363092968	512.81636907	n/a	727	71	2750	512.81636907	stim	stop-signal	264	772145	0.0-13.33-1.33	beast_fmri_test	337	769725,/,770404,/,771084,/,771763,/,772443,/	t,t,t,t,t	<img class = center src='/static/experiments/beast_fmri_test/images/T.png'></img>	89,71	2750.0	test	<img class = center src='/static/experiments/beast_fmri_test/images/redT.png'></img>	go	1950.0	2.0	33.0	go	non-target	T	89,Middle Finger	71,Index Finger	600.0	800.0	2150.0	1950.0	1.0	n/a	800.0	1.0	ITI
161830	500.0	n/a	-1	-1	500	0.0	fixation	poldrack-single-stim	265	773189	0.0-13.34-0.34	beast_fmri_test	337	773123,/	t	<div class = centerbox2><div class = fixation>+</div></div>	none	500.0	test	n/a	n/a	n/a	n/a	n/a	n/a	n/a	n/a	n/a	n/a	n/a	n/a	n/a	n/a	n/a	n/a	n/a	n/a	fixation
158869.43316071667	2750.0	n/a	1108	71	2750	2961.56683928	stim	stop-signal	266	775940	0.0-13.34-1.34	beast_fmri_test	337	773803,/,774482,/,775162,/,775840,/,776522,/,777201,/,777880,/,778560,/	t,t,t,t,t,t,t,t	<img class = center src='/static/experiments/beast_fmri_test/images/D.png'></img>	89,71	2750.0	test	<img class = center src='/static/experiments/beast_fmri_test/images/redD.png'></img>	go	1950.0	2.0	34.0	go	non-target	D	89,Middle Finger	71,Index Finger	600.0	800.0	2150.0	1950.0	1.0	n/a	800.0	1.0	go_stim
161619.43316071667	2961.56683928	n/a	1108	71	2750	2961.56683928	stim	stop-signal	266	775940	0.0-13.34-1.34	beast_fmri_test	337	773803,/,774482,/,775162,/,775840,/,776522,/,777201,/,777880,/,778560,/	t,t,t,t,t,t,t,t	<img class = center src='/static/experiments/beast_fmri_test/images/D.png'></img>	89,71	2750.0	test	<img class = center src='/static/experiments/beast_fmri_test/images/redD.png'></img>	go	1950.0	2.0	34.0	go	non-target	D	89,Middle Finger	71,Index Finger	600.0	800.0	2150.0	1950.0	1.0	n/a	800.0	1.0	ITI
168073	500.0	n/a	-1	-1	500	0.0	fixation	poldrack-single-stim	267	779432	0.0-13.35-0.35	beast_fmri_test	337	779239,/	t	<div class = centerbox2><div class = fixation>+</div></div>	none	500.0	test	n/a	n/a	n/a	n/a	n/a	n/a	n/a	n/a	n/a	n/a	n/a	n/a	n/a	n/a	n/a	n/a	n/a	n/a	fixation
168000.14043682045	2750.0	n/a	808	71	2750	75.8595631796	stim	stop-signal	268	782185	0.0-13.35-1.35	beast_fmri_test	337	779920,/,780600,/,781279,/,781958,/	t,t,t,t	<img class = center src='/static/experiments/beast_fmri_test/images/V.png'></img>	89,71	2750.0	test	<img class = center src='/static/experiments/beast_fmri_test/images/redV.png'></img>	go	1950.0	2.0	35.0	go	non-target	V	89,Middle Finger	71,Index Finger	600.0	800.0	2150.0	1950.0	1.0	n/a	800.0	1.0	go_stim
170750.14043682045	75.8595631796	n/a	808	71	2750	75.8595631796	stim	stop-signal	268	782185	0.0-13.35-1.35	beast_fmri_test	337	779920,/,780600,/,781279,/,781958,/	t,t,t,t	<img class = center src='/static/experiments/beast_fmri_test/images/V.png'></img>	89,71	2750.0	test	<img class = center src='/static/experiments/beast_fmri_test/images/redV.png'></img>	go	1950.0	2.0	35.0	go	non-target	V	89,Middle Finger	71,Index Finger	600.0	800.0	2150.0	1950.0	1.0	n/a	800.0	1.0	ITI
171432	500.0	n/a	-1	-1	500	0.0	fixation	poldrack-single-stim	269	782791	0.0-13.36-0.36	beast_fmri_test	337	782637,/	t	<div class = centerbox2><div class = fixation>+</div></div>	none	500.0	test	n/a	n/a	n/a	n/a	n/a	n/a	n/a	n/a	n/a	n/a	n/a	n/a	n/a	n/a	n/a	n/a	n/a	n/a	fixation
171061.76422718551	2750.0	n/a	1468	71	2750	372.235772814	stim	stop-signal	270	785543	0.0-13.36-1.36	beast_fmri_test	337	783318,/,783998,/,784677,/,785357,/	t,t,t,t	<img class = center src='/static/experiments/beast_fmri_test/images/V.png'></img>	89,71	2750.0	test	<img class = center src='/static/experiments/beast_fmri_test/images/redV.png'></img>	go	1950.0	2.0	36.0	go	non-target	V	89,Middle Finger	71,Index Finger	600.0	800.0	2150.0	1950.0	1.0	n/a	800.0	1.0	go_stim
173811.76422718551	372.235772814	n/a	1468	71	2750	372.235772814	stim	stop-signal	270	785543	0.0-13.36-1.36	beast_fmri_test	337	783318,/,783998,/,784677,/,785357,/	t,t,t,t	<img class = center src='/static/experiments/beast_fmri_test/images/V.png'></img>	89,71	2750.0	test	<img class = center src='/static/experiments/beast_fmri_test/images/redV.png'></img>	go	1950.0	2.0	36.0	go	non-target	V	89,Middle Finger	71,Index Finger	600.0	800.0	2150.0	1950.0	1.0	n/a	800.0	1.0	ITI
175090	500.0	n/a	-1	-1	500	0.0	fixation	poldrack-single-stim	271	786449	0.0-13.37-0.37	beast_fmri_test	337	786037,/	t	<div class = centerbox2><div class = fixation>+</div></div>	none	500.0	test	n/a	n/a	n/a	n/a	n/a	n/a	n/a	n/a	n/a	n/a	n/a	n/a	n/a	n/a	n/a	n/a	n/a	n/a	fixation
173524.78748101217	2750.0	n/a	1314	71	2750	1567.21251899	stim	stop-signal	272	789201	0.0-13.37-1.37	beast_fmri_test	337	786716,/,787397,/,788076,/,788754,/,789436,/,790115,/	t,t,t,t,t,t	<img class = center src='/static/experiments/beast_fmri_test/images/T.png'></img>	89,71	2750.0	test	<img class = center src='/static/experiments/beast_fmri_test/images/redT.png'></img>	go	1950.0	2.0	37.0	go	non-target	T	89,Middle Finger	71,Index Finger	600.0	800.0	2150.0	1950.0	1.0	n/a	800.0	1.0	go_stim
176274.78748101217	1567.21251899	n/a	1314	71	2750	1567.21251899	stim	stop-signal	272	789201	0.0-13.37-1.37	beast_fmri_test	337	786716,/,787397,/,788076,/,788754,/,789436,/,790115,/	t,t,t,t,t,t	<img class = center src='/static/experiments/beast_fmri_test/images/T.png'></img>	89,71	2750.0	test	<img class = center src='/static/experiments/beast_fmri_test/images/redT.png'></img>	go	1950.0	2.0	37.0	go	non-target	T	89,Middle Finger	71,Index Finger	600.0	800.0	2150.0	1950.0	1.0	n/a	800.0	1.0	ITI
179941	500.0	n/a	-1	-1	500	0.0	fixation	poldrack-single-stim	273	791300	0.0-13.38-0.38	beast_fmri_test	337	790798,/	t	<div class = centerbox2><div class = fixation>+</div></div>	none	500.0	test	n/a	n/a	n/a	n/a	n/a	n/a	n/a	n/a	n/a	n/a	n/a	n/a	n/a	n/a	n/a	n/a	n/a	n/a	fixation
179092.8257281835	2750.0	n/a	816	89	2750	851.174271816	stim	stop-signal	274	794053	0.0-13.38-1.38	beast_fmri_test	337	791474,/,792155,/,792834,/,793513,/,794194,/,794873,/	t,t,t,t,t,t	<img class = center src='/static/experiments/beast_fmri_test/images/V.png'></img>	89,71	2750.0	test	<img class = center src='/static/experiments/beast_fmri_test/images/redV.png'></img>	go	2150.0	2.0	38.0	go	target	V	89,Middle Finger	71,Index Finger	600.0	800.0	2150.0	1950.0	1.0	n/a	600.0	1.0	go_stim
181842.8257281835	851.174271816	n/a	816	89	2750	851.174271816	stim	stop-signal	274	794053	0.0-13.38-1.38	beast_fmri_test	337	791474,/,792155,/,792834,/,793513,/,794194,/,794873,/	t,t,t,t,t,t	<img class = center src='/static/experiments/beast_fmri_test/images/V.png'></img>	89,71	2750.0	test	<img class = center src='/static/experiments/beast_fmri_test/images/redV.png'></img>	go	2150.0	2.0	38.0	go	target	V	89,Middle Finger	71,Index Finger	600.0	800.0	2150.0	1950.0	1.0	n/a	600.0	1.0	ITI
184078	500.0	n/a	-1	-1	500	0.0	fixation	poldrack-single-stim	275	795437	0.0-13.39-0.39	beast_fmri_test	337	n/a	n/a	<div class = centerbox2><div class = fixation>+</div></div>	none	500.0	test	n/a	n/a	n/a	n/a	n/a	n/a	n/a	n/a	n/a	n/a	n/a	n/a	n/a	n/a	n/a	n/a	n/a	n/a	fixation
182701.33866325859	2750.0	n/a	841	89	2750	1378.66133674	stim	stop-signal	276	798189	0.0-13.39-1.39	beast_fmri_test	337	795553,/,796232,/,796912,/,797592,/,798271,/,798951,/	t,t,t,t,t,t	<img class = center src='/static/experiments/beast_fmri_test/images/T.png'></img>	89,71	2750.0	test	<img class = center src='/static/experiments/beast_fmri_test/images/redT.png'></img>	go	2150.0	2.0	39.0	go	target	T	89,Middle Finger	71,Index Finger	600.0	800.0	2150.0	1950.0	1.0	n/a	600.0	1.0	go_stim
185451.33866325859	1378.66133674	n/a	841	89	2750	1378.66133674	stim	stop-signal	276	798189	0.0-13.39-1.39	beast_fmri_test	337	795553,/,796232,/,796912,/,797592,/,798271,/,798951,/	t,t,t,t,t,t	<img class = center src='/static/experiments/beast_fmri_test/images/T.png'></img>	89,71	2750.0	test	<img class = center src='/static/experiments/beast_fmri_test/images/redT.png'></img>	go	2150.0	2.0	39.0	go	target	T	89,Middle Finger	71,Index Finger	600.0	800.0	2150.0	1950.0	1.0	n/a	600.0	1.0	ITI
188740	500.0	n/a	-1	-1	500	0.0	fixation	poldrack-single-stim	277	800099	0.0-13.40-0.40	beast_fmri_test	337	799630,/	t	<div class = centerbox2><div class = fixation>+</div></div>	none	500.0	test	n/a	n/a	n/a	n/a	n/a	n/a	n/a	n/a	n/a	n/a	n/a	n/a	n/a	n/a	n/a	n/a	n/a	n/a	fixation
183773.38858725864	2750.0	n/a	1362	89	2750	4968.61141274	stim	stop-signal	278	802851	0.0-13.40-1.40	beast_fmri_test	337	800311,/,800989,/,801670,/,802350,/,803029,/,803709,/,804388,/,805068,/,805747,/,806426,/,807106,/,807787,/	t,t,t,t,t,t,t,t,t,t,t,t	<img class = center src='/static/experiments/beast_fmri_test/images/V.png'></img>	89,71	2750.0	test	<img class = center src='/static/experiments/beast_fmri_test/images/redV.png'></img>	go	2150.0	2.0	40.0	go	target	V	89,Middle Finger	71,Index Finger	600.0	800.0	2150.0	1950.0	1.0	n/a	600.0	1.0	go_stim
186523.38858725864	4968.61141274	n/a	1362	89	2750	4968.61141274	stim	stop-signal	278	802851	0.0-13.40-1.40	beast_fmri_test	337	800311,/,800989,/,801670,/,802350,/,803029,/,803709,/,804388,/,805068,/,805747,/,806426,/,807106,/,807787,/	t,t,t,t,t,t,t,t,t,t,t,t	<img class = center src='/static/experiments/beast_fmri_test/images/V.png'></img>	89,71	2750.0	test	<img class = center src='/static/experiments/beast_fmri_test/images/redV.png'></img>	go	2150.0	2.0	40.0	go	target	V	89,Middle Finger	71,Index Finger	600.0	800.0	2150.0	1950.0	1.0	n/a	600.0	1.0	ITI
196991	500.0	n/a	-1	-1	500	0.0	fixation	poldrack-single-stim	279	808350	0.0-13.41-0.41	beast_fmri_test	337	n/a	n/a	<div class = centerbox2><div class = fixation>+</div></div>	none	500.0	test	n/a	n/a	n/a	n/a	n/a	n/a	n/a	n/a	n/a	n/a	n/a	n/a	n/a	n/a	n/a	n/a	n/a	n/a	fixation
196606.8177618559	800.0	n/a	804	71	2750	386.182238144	stim	stop-signal	280	811102	0.0-13.41-1.41	beast_fmri_test	337	808467,/,809145,/,809826,/,810504,/,811185,/	t,t,t,t,t	<img class = center src='/static/experiments/beast_fmri_test/images/D.png'></img>	89,71	2750.0	test	<img class = center src='/static/experiments/beast_fmri_test/images/redD.png'></img>	stop	1950.0	2.0	41.0	stop	non-target	D	89,Middle Finger	71,Index Finger	600.0	800.0	2150.0	1950.0	0.0	0.0	800.0	n/a	go_stim
198556.8177618559	1950.0	n/a	804	71	2750	386.182238144	stim	stop-signal	280	811102	0.0-13.41-1.41	beast_fmri_test	337	808467,/,809145,/,809826,/,810504,/,811185,/	t,t,t,t,t	<img class = center src='/static/experiments/beast_fmri_test/images/D.png'></img>	89,71	2750.0	test	<img class = center src='/static/experiments/beast_fmri_test/images/redD.png'></img>	stop	1950.0	2.0	41.0	stop	non-target	D	89,Middle Finger	71,Index Finger	600.0	800.0	2150.0	1950.0	0.0	0.0	800.0	n/a	stop_stim
199356.8177618559	386.182238144	n/a	804	71	2750	386.182238144	stim	stop-signal	280	811102	0.0-13.41-1.41	beast_fmri_test	337	808467,/,809145,/,809826,/,810504,/,811185,/	t,t,t,t,t	<img class = center src='/static/experiments/beast_fmri_test/images/D.png'></img>	89,71	2750.0	test	<img class = center src='/static/experiments/beast_fmri_test/images/redD.png'></img>	stop	1950.0	2.0	41.0	stop	non-target	D	89,Middle Finger	71,Index Finger	600.0	800.0	2150.0	1950.0	0.0	0.0	800.0	n/a	ITI
200661	500.0	n/a	-1	-1	500	0.0	fixation	poldrack-single-stim	281	812020	0.0-13.42-0.42	beast_fmri_test	337	811863,/	t	<div class = centerbox2><div class = fixation>+</div></div>	none	500.0	test	n/a	n/a	n/a	n/a	n/a	n/a	n/a	n/a	n/a	n/a	n/a	n/a	n/a	n/a	n/a	n/a	n/a	n/a	fixation
195866.49339024036	2750.0	n/a	1301	71	2750	4797.50660976	stim	stop-signal	282	814773	0.0-13.42-1.42	beast_fmri_test	337	812545,/,813224,/,813903,/,814582,/,815263,/,815942,/,816623,/,817302,/,817982,/,818663,/,819342,/	t,t,t,t,t,t,t,t,t,t,t	<img class = center src='/static/experiments/beast_fmri_test/images/V.png'></img>	89,71	2750.0	test	<img class = center src='/static/experiments/beast_fmri_test/images/redV.png'></img>	go	2150.0	2.0	42.0	go	target	V	89,Middle Finger	71,Index Finger	600.0	750.0	2150.0	1950.0	0.0	n/a	600.0	0.0	go_stim
198616.49339024036	4797.50660976	n/a	1301	71	2750	4797.50660976	stim	stop-signal	282	814773	0.0-13.42-1.42	beast_fmri_test	337	812545,/,813224,/,813903,/,814582,/,815263,/,815942,/,816623,/,817302,/,817982,/,818663,/,819342,/	t,t,t,t,t,t,t,t,t,t,t	<img class = center src='/static/experiments/beast_fmri_test/images/V.png'></img>	89,71	2750.0	test	<img class = center src='/static/experiments/beast_fmri_test/images/redV.png'></img>	go	2150.0	2.0	42.0	go	target	V	89,Middle Finger	71,Index Finger	600.0	750.0	2150.0	1950.0	0.0	n/a	600.0	0.0	ITI
208743	500.0	n/a	-1	-1	500	0.0	fixation	poldrack-single-stim	283	820102	0.0-13.43-0.43	beast_fmri_test	337	820021,/	t	<div class = centerbox2><div class = fixation>+</div></div>	none	500.0	test	n/a	n/a	n/a	n/a	n/a	n/a	n/a	n/a	n/a	n/a	n/a	n/a	n/a	n/a	n/a	n/a	n/a	n/a	fixation
208455.79529947985	600.0	n/a	867	89	2750	288.20470052	stim	stop-signal	284	822853	0.0-13.43-1.43	beast_fmri_test	337	820701,/,821381,/,822060,/,822740,/	t,t,t,t	<img class = center src='/static/experiments/beast_fmri_test/images/D.png'></img>	89,71	2750.0	test	<img class = center src='/static/experiments/beast_fmri_test/images/redD.png'></img>	stop	2150.0	2.0	43.0	stop	target	D	89,Middle Finger	71,Index Finger	600.0	750.0	2150.0	1950.0	0.0	0.0	600.0	n/a	go_stim
210605.79529947985	2150.0	n/a	867	89	2750	288.20470052	stim	stop-signal	284	822853	0.0-13.43-1.43	beast_fmri_test	337	820701,/,821381,/,822060,/,822740,/	t,t,t,t	<img class = center src='/static/experiments/beast_fmri_test/images/D.png'></img>	89,71	2750.0	test	<img class = center src='/static/experiments/beast_fmri_test/images/redD.png'></img>	stop	2150.0	2.0	43.0	stop	target	D	89,Middle Finger	71,Index Finger	600.0	750.0	2150.0	1950.0	0.0	0.0	600.0	n/a	stop_stim
211205.79529947985	288.20470052	n/a	867	89	2750	288.20470052	stim	stop-signal	284	822853	0.0-13.43-1.43	beast_fmri_test	337	820701,/,821381,/,822060,/,822740,/	t,t,t,t	<img class = center src='/static/experiments/beast_fmri_test/images/D.png'></img>	89,71	2750.0	test	<img class = center src='/static/experiments/beast_fmri_test/images/redD.png'></img>	stop	2150.0	2.0	43.0	stop	target	D	89,Middle Finger	71,Index Finger	600.0	750.0	2150.0	1950.0	0.0	0.0	600.0	n/a	ITI
212316	500.0	n/a	-1	-1	500	0.0	fixation	poldrack-single-stim	285	823675	0.0-13.44-0.44	beast_fmri_test	337	823420,/	t	<div class = centerbox2><div class = fixation>+</div></div>	none	500.0	test	n/a	n/a	n/a	n/a	n/a	n/a	n/a	n/a	n/a	n/a	n/a	n/a	n/a	n/a	n/a	n/a	n/a	n/a	fixation
209512.5706378303	2750.0	n/a	830	89	2750	2805.42936217	stim	stop-signal	286	826427	0.0-13.44-1.44	beast_fmri_test	337	824099,/,824778,/,825459,/,826139,/,826818,/,827498,/,828178,/,828856,/	t,t,t,t,t,t,t,t	<img class = center src='/static/experiments/beast_fmri_test/images/D.png'></img>	89,71	2750.0	test	<img class = center src='/static/experiments/beast_fmri_test/images/redD.png'></img>	go	2000.0	2.0	44.0	go	non-target	D	89,Middle Finger	71,Index Finger	550.0	750.0	2150.0	2000.0	0.0	n/a	750.0	0.0	go_stim
212262.5706378303	2805.42936217	n/a	830	89	2750	2805.42936217	stim	stop-signal	286	826427	0.0-13.44-1.44	beast_fmri_test	337	824099,/,824778,/,825459,/,826139,/,826818,/,827498,/,828178,/,828856,/	t,t,t,t,t,t,t,t	<img class = center src='/static/experiments/beast_fmri_test/images/D.png'></img>	89,71	2750.0	test	<img class = center src='/static/experiments/beast_fmri_test/images/redD.png'></img>	go	2000.0	2.0	44.0	go	non-target	D	89,Middle Finger	71,Index Finger	550.0	750.0	2150.0	2000.0	0.0	n/a	750.0	0.0	ITI
218405	500.0	n/a	-1	-1	500	0.0	fixation	poldrack-single-stim	287	829764	0.0-13.45-0.45	beast_fmri_test	337	829536,/	t	<div class = centerbox2><div class = fixation>+</div></div>	none	500.0	test	n/a	n/a	n/a	n/a	n/a	n/a	n/a	n/a	n/a	n/a	n/a	n/a	n/a	n/a	n/a	n/a	n/a	n/a	fixation
217312.38337296597	750.0	n/a	644	71	2750	1094.61662703	stim	stop-signal	288	832516	0.0-13.45-1.45	beast_fmri_test	337	830215,/,830896,/,831577,/,832255,/,832934,/	t,t,t,t,t	<img class = center src='/static/experiments/beast_fmri_test/images/B.png'></img>	89,71	2750.0	test	<img class = center src='/static/experiments/beast_fmri_test/images/redB.png'></img>	stop	2000.0	2.0	45.0	stop	non-target	B	89,Middle Finger	71,Index Finger	550.0	750.0	2150.0	2000.0	0.0	0.0	750.0	n/a	go_stim
219312.38337296597	2000.0	n/a	644	71	2750	1094.61662703	stim	stop-signal	288	832516	0.0-13.45-1.45	beast_fmri_test	337	830215,/,830896,/,831577,/,832255,/,832934,/	t,t,t,t,t	<img class = center src='/static/experiments/beast_fmri_test/images/B.png'></img>	89,71	2750.0	test	<img class = center src='/static/experiments/beast_fmri_test/images/redB.png'></img>	stop	2000.0	2.0	45.0	stop	non-target	B	89,Middle Finger	71,Index Finger	550.0	750.0	2150.0	2000.0	0.0	0.0	750.0	n/a	stop_stim
220062.38337296597	1094.61662703	n/a	644	71	2750	1094.61662703	stim	stop-signal	288	832516	0.0-13.45-1.45	beast_fmri_test	337	830215,/,830896,/,831577,/,832255,/,832934,/	t,t,t,t,t	<img class = center src='/static/experiments/beast_fmri_test/images/B.png'></img>	89,71	2750.0	test	<img class = center src='/static/experiments/beast_fmri_test/images/redB.png'></img>	stop	2000.0	2.0	45.0	stop	non-target	B	89,Middle Finger	71,Index Finger	550.0	750.0	2150.0	2000.0	0.0	0.0	750.0	n/a	ITI
222786	500.0	n/a	-1	-1	500	0.0	fixation	poldrack-single-stim	289	834145	0.0-13.46-0.46	beast_fmri_test	337	833643,/	t	<div class = centerbox2><div class = fixation>+</div></div>	none	500.0	test	n/a	n/a	n/a	n/a	n/a	n/a	n/a	n/a	n/a	n/a	n/a	n/a	n/a	n/a	n/a	n/a	n/a	n/a	fixation
222733.72037908249	2750.0	n/a	593	89	2750	53.2796209175	stim	stop-signal	290	836896	0.0-13.46-1.46	beast_fmri_test	337	834293,/,834974,/,835654,/,836334,/	t,t,t,t	<img class = center src='/static/experiments/beast_fmri_test/images/D.png'></img>	89,71	2750.0	test	<img class = center src='/static/experiments/beast_fmri_test/images/redD.png'></img>	go	2200.0	2.0	46.0	go	target	D	89,Middle Finger	71,Index Finger	550.0	700.0	2200.0	2000.0	1.0	n/a	550.0	1.0	go_stim
225483.72037908249	53.2796209175	n/a	593	89	2750	53.2796209175	stim	stop-signal	290	836896	0.0-13.46-1.46	beast_fmri_test	337	834293,/,834974,/,835654,/,836334,/	t,t,t,t	<img class = center src='/static/experiments/beast_fmri_test/images/D.png'></img>	89,71	2750.0	test	<img class = center src='/static/experiments/beast_fmri_test/images/redD.png'></img>	go	2200.0	2.0	46.0	go	target	D	89,Middle Finger	71,Index Finger	550.0	700.0	2200.0	2000.0	1.0	n/a	550.0	1.0	ITI
240616	15000.0	n/a	-1	-1	15000	0.0	practice-no-stop-feedback	poldrack-single-stim	291	851975	0.0-14.0	beast_fmri_test	337	837014,/,837693,/,838372,/,839052,/,839731,/,840412,/,841092,/,841771,/,842450,/,843129,/,843809,/,844490,/,845169,/,845849,/,846530,/,847209,/,847888,/,848569,/,849248,/,849927,/,850608,/,851287,/,851966,/	t,t,t,t,t,t,t,t,t,t,t,t,t,t,t,t,t,t,t,t,t,t,t	"<div class = ""centerbox""><p class = ""block-text"">Your delay is 2 trials.</p><p class = block-text>Please wait for the scanner to start the block</p></div>"	77	15000.0	n/a	n/a	n/a	n/a	n/a	n/a	n/a	n/a	n/a	n/a	n/a	n/a	n/a	n/a	n/a	n/a	n/a	n/a	n/a	practice-no-stop-feedback
241120	500.0	n/a	-1	-1	500	0.0	fixation	poldrack-single-stim	292	852479	0.0-15.0-0.0	beast_fmri_test	337	n/a	n/a	<div class = centerbox2><div class = fixation>+</div></div>	none	500.0	test	n/a	n/a	n/a	n/a	n/a	n/a	n/a	n/a	n/a	n/a	n/a	n/a	n/a	n/a	n/a	n/a	n/a	n/a	fixation
239921.85543008917	2750.0	n/a	1148	71	2750	1200.14456991	stim	stop-signal	293	855231	0.0-15.0-1.0	beast_fmri_test	337	852646,/,853326,/,854006,/,854685,/,855365,/,856045,/	t,t,t,t,t,t	<img class = center src='/static/experiments/beast_fmri_test/images/V.png'></img>	89,71	2750.0	test	<img class = center src='/static/experiments/beast_fmri_test/images/redV.png'></img>	go	-1.0	2.0	0.0	go	temp-non-target	V	89,Middle Finger	71,Index Finger	550.0	700.0	2200.0	2000.0	0.0	n/a	n/a	n/a	go_stim
242671.85543008917	1200.14456991	n/a	1148	71	2750	1200.14456991	stim	stop-signal	293	855231	0.0-15.0-1.0	beast_fmri_test	337	852646,/,853326,/,854006,/,854685,/,855365,/,856045,/	t,t,t,t,t,t	<img class = center src='/static/experiments/beast_fmri_test/images/V.png'></img>	89,71	2750.0	test	<img class = center src='/static/experiments/beast_fmri_test/images/redV.png'></img>	go	-1.0	2.0	0.0	go	temp-non-target	V	89,Middle Finger	71,Index Finger	550.0	700.0	2200.0	2000.0	0.0	n/a	n/a	n/a	ITI
245612	500.0	n/a	-1	-1	500	0.0	fixation	poldrack-single-stim	294	856971	0.0-15.1-0.1	beast_fmri_test	337	856723,/	t	<div class = centerbox2><div class = fixation>+</div></div>	none	500.0	test	n/a	n/a	n/a	n/a	n/a	n/a	n/a	n/a	n/a	n/a	n/a	n/a	n/a	n/a	n/a	n/a	n/a	n/a	fixation
244475.68100380001	2750.0	n/a	1456	71	2750	1137.3189962	stim	stop-signal	295	859722	0.0-15.1-1.1	beast_fmri_test	337	857403,/,858082,/,858762,/,859443,/,860123,/,860802,/	t,t,t,t,t,t	<img class = center src='/static/experiments/beast_fmri_test/images/V.png'></img>	89,71	2750.0	test	<img class = center src='/static/experiments/beast_fmri_test/images/redV.png'></img>	go	-1.0	2.0	1.0	go	temp-non-target	V	89,Middle Finger	71,Index Finger	550.0	700.0	2200.0	2000.0	0.0	n/a	n/a	n/a	go_stim
247225.68100380001	1137.3189962	n/a	1456	71	2750	1137.3189962	stim	stop-signal	295	859722	0.0-15.1-1.1	beast_fmri_test	337	857403,/,858082,/,858762,/,859443,/,860123,/,860802,/	t,t,t,t,t,t	<img class = center src='/static/experiments/beast_fmri_test/images/V.png'></img>	89,71	2750.0	test	<img class = center src='/static/experiments/beast_fmri_test/images/redV.png'></img>	go	-1.0	2.0	1.0	go	temp-non-target	V	89,Middle Finger	71,Index Finger	550.0	700.0	2200.0	2000.0	0.0	n/a	n/a	n/a	ITI
250034	500.0	n/a	-1	-1	500	0.0	fixation	poldrack-single-stim	296	861393	0.0-15.2-0.2	beast_fmri_test	337	n/a	n/a	<div class = centerbox2><div class = fixation>+</div></div>	none	500.0	test	n/a	n/a	n/a	n/a	n/a	n/a	n/a	n/a	n/a	n/a	n/a	n/a	n/a	n/a	n/a	n/a	n/a	n/a	fixation
245934.99799830047	2750.0	n/a	791	71	2750	4101.0020017	stim	stop-signal	297	864145	0.0-15.2-1.2	beast_fmri_test	337	861481,/,862161,/,862841,/,863520,/,864199,/,864880,/,865559,/,866240,/,866919,/,867599,/	t,t,t,t,t,t,t,t,t,t	<img class = center src='/static/experiments/beast_fmri_test/images/P.png'></img>	89,71	2750.0	test	<img class = center src='/static/experiments/beast_fmri_test/images/redP.png'></img>	go	2050.0	2.0	2.0	go	non-target	P	89,Middle Finger	71,Index Finger	550.0	700.0	2200.0	2050.0	1.0	n/a	700.0	1.0	go_stim
248684.99799830047	4101.0020017	n/a	791	71	2750	4101.0020017	stim	stop-signal	297	864145	0.0-15.2-1.2	beast_fmri_test	337	861481,/,862161,/,862841,/,863520,/,864199,/,864880,/,865559,/,866240,/,866919,/,867599,/	t,t,t,t,t,t,t,t,t,t	<img class = center src='/static/experiments/beast_fmri_test/images/P.png'></img>	89,71	2750.0	test	<img class = center src='/static/experiments/beast_fmri_test/images/redP.png'></img>	go	2050.0	2.0	2.0	go	non-target	P	89,Middle Finger	71,Index Finger	550.0	700.0	2200.0	2050.0	1.0	n/a	700.0	1.0	ITI
257421	500.0	n/a	-1	-1	500	0.0	fixation	poldrack-single-stim	298	868780	0.0-15.3-0.3	beast_fmri_test	337	868279,/	t	<div class = centerbox2><div class = fixation>+</div></div>	none	500.0	test	n/a	n/a	n/a	n/a	n/a	n/a	n/a	n/a	n/a	n/a	n/a	n/a	n/a	n/a	n/a	n/a	n/a	n/a	fixation
257103.19522475684	2750.0	n/a	568	89	2750	319.804775243	stim	stop-signal	299	871532	0.0-15.3-1.3	beast_fmri_test	337	868959,/,869639,/,870317,/,870996,/,871677,/	t,t,t,t,t	<img class = center src='/static/experiments/beast_fmri_test/images/V.png'></img>	89,71	2750.0	test	<img class = center src='/static/experiments/beast_fmri_test/images/redV.png'></img>	go	2200.0	2.0	3.0	go	target	V	89,Middle Finger	71,Index Finger	550.0	700.0	2200.0	2050.0	1.0	n/a	550.0	1.0	go_stim
259853.19522475684	319.804775243	n/a	568	89	2750	319.804775243	stim	stop-signal	299	871532	0.0-15.3-1.3	beast_fmri_test	337	868959,/,869639,/,870317,/,870996,/,871677,/	t,t,t,t,t	<img class = center src='/static/experiments/beast_fmri_test/images/V.png'></img>	89,71	2750.0	test	<img class = center src='/static/experiments/beast_fmri_test/images/redV.png'></img>	go	2200.0	2.0	3.0	go	target	V	89,Middle Finger	71,Index Finger	550.0	700.0	2200.0	2050.0	1.0	n/a	550.0	1.0	ITI
261027	500.0	n/a	-1	-1	500	0.0	fixation	poldrack-single-stim	300	872386	0.0-15.4-0.4	beast_fmri_test	337	872357,/	t	<div class = centerbox2><div class = fixation>+</div></div>	none	500.0	test	n/a	n/a	n/a	n/a	n/a	n/a	n/a	n/a	n/a	n/a	n/a	n/a	n/a	n/a	n/a	n/a	n/a	n/a	fixation
260240.97951012885	2750.0	n/a	1327	71	2750	788.020489871	stim	stop-signal	301	875138	0.0-15.4-1.4	beast_fmri_test	337	873036,/,873717,/,874395,/,875074,/,875756,/	t,t,t,t,t	<img class = center src='/static/experiments/beast_fmri_test/images/V.png'></img>	89,71	2750.0	test	<img class = center src='/static/experiments/beast_fmri_test/images/redV.png'></img>	go	2050.0	2.0	4.0	go	non-target	V	89,Middle Finger	71,Index Finger	550.0	700.0	2200.0	2050.0	1.0	n/a	700.0	1.0	go_stim
262990.97951012885	788.020489871	n/a	1327	71	2750	788.020489871	stim	stop-signal	301	875138	0.0-15.4-1.4	beast_fmri_test	337	873036,/,873717,/,874395,/,875074,/,875756,/	t,t,t,t,t	<img class = center src='/static/experiments/beast_fmri_test/images/V.png'></img>	89,71	2750.0	test	<img class = center src='/static/experiments/beast_fmri_test/images/redV.png'></img>	go	2050.0	2.0	4.0	go	non-target	V	89,Middle Finger	71,Index Finger	550.0	700.0	2200.0	2050.0	1.0	n/a	700.0	1.0	ITI
265107	500.0	n/a	-1	-1	500	0.0	fixation	poldrack-single-stim	302	876466	0.0-15.5-0.5	beast_fmri_test	337	876435,/	t	<div class = centerbox2><div class = fixation>+</div></div>	none	500.0	test	n/a	n/a	n/a	n/a	n/a	n/a	n/a	n/a	n/a	n/a	n/a	n/a	n/a	n/a	n/a	n/a	n/a	n/a	fixation
261703.47491662763	2750.0	n/a	791	71	2750	3404.52508337	stim	stop-signal	303	879217	0.0-15.5-1.5	beast_fmri_test	337	877115,/,877795,/,878474,/,879153,/,879834,/,880512,/,881193,/,881873,/,882553,/	t,t,t,t,t,t,t,t,t	<img class = center src='/static/experiments/beast_fmri_test/images/D.png'></img>	89,71	2750.0	test	<img class = center src='/static/experiments/beast_fmri_test/images/redD.png'></img>	go	2050.0	2.0	5.0	go	non-target	D	89,Middle Finger	71,Index Finger	550.0	700.0	2200.0	2050.0	1.0	n/a	700.0	1.0	go_stim
264453.47491662763	3404.52508337	n/a	791	71	2750	3404.52508337	stim	stop-signal	303	879217	0.0-15.5-1.5	beast_fmri_test	337	877115,/,877795,/,878474,/,879153,/,879834,/,880512,/,881193,/,881873,/,882553,/	t,t,t,t,t,t,t,t,t	<img class = center src='/static/experiments/beast_fmri_test/images/D.png'></img>	89,71	2750.0	test	<img class = center src='/static/experiments/beast_fmri_test/images/redD.png'></img>	go	2050.0	2.0	5.0	go	non-target	D	89,Middle Finger	71,Index Finger	550.0	700.0	2200.0	2050.0	1.0	n/a	700.0	1.0	ITI
271796	500.0	n/a	-1	-1	500	0.0	fixation	poldrack-single-stim	304	883155	0.0-15.6-0.6	beast_fmri_test	337	n/a	n/a	<div class = centerbox2><div class = fixation>+</div></div>	none	500.0	test	n/a	n/a	n/a	n/a	n/a	n/a	n/a	n/a	n/a	n/a	n/a	n/a	n/a	n/a	n/a	n/a	n/a	n/a	fixation
271483.58307481569	2750.0	n/a	1092	71	2750	313.416925184	stim	stop-signal	305	885906	0.0-15.6-1.6	beast_fmri_test	337	883233,/,883912,/,884592,/,885270,/,885949,/	t,t,t,t,t	<img class = center src='/static/experiments/beast_fmri_test/images/T.png'></img>	89,71	2750.0	test	<img class = center src='/static/experiments/beast_fmri_test/images/redT.png'></img>	go	2050.0	2.0	6.0	go	non-target	T	89,Middle Finger	71,Index Finger	550.0	700.0	2200.0	2050.0	1.0	n/a	700.0	1.0	go_stim
274233.58307481569	313.416925184	n/a	1092	71	2750	313.416925184	stim	stop-signal	305	885906	0.0-15.6-1.6	beast_fmri_test	337	883233,/,883912,/,884592,/,885270,/,885949,/	t,t,t,t,t	<img class = center src='/static/experiments/beast_fmri_test/images/T.png'></img>	89,71	2750.0	test	<img class = center src='/static/experiments/beast_fmri_test/images/redT.png'></img>	go	2050.0	2.0	6.0	go	non-target	T	89,Middle Finger	71,Index Finger	550.0	700.0	2200.0	2050.0	1.0	n/a	700.0	1.0	ITI
275397	500.0	n/a	-1	-1	500	0.0	fixation	poldrack-single-stim	306	886756	0.0-15.7-0.7	beast_fmri_test	337	886631,/	t	<div class = centerbox2><div class = fixation>+</div></div>	none	500.0	test	n/a	n/a	n/a	n/a	n/a	n/a	n/a	n/a	n/a	n/a	n/a	n/a	n/a	n/a	n/a	n/a	n/a	n/a	fixation
274646.53274428169	2750.0	n/a	1424	71	2750	752.467255718	stim	stop-signal	307	889508	0.0-15.7-1.7	beast_fmri_test	337	887310,/,887990,/,888669,/,889349,/,890028,/	t,t,t,t,t	<img class = center src='/static/experiments/beast_fmri_test/images/V.png'></img>	89,71	2750.0	test	<img class = center src='/static/experiments/beast_fmri_test/images/redV.png'></img>	go	2050.0	2.0	7.0	go	non-target	V	89,Middle Finger	71,Index Finger	550.0	700.0	2200.0	2050.0	1.0	n/a	700.0	1.0	go_stim
277396.53274428169	752.467255718	n/a	1424	71	2750	752.467255718	stim	stop-signal	307	889508	0.0-15.7-1.7	beast_fmri_test	337	887310,/,887990,/,888669,/,889349,/,890028,/	t,t,t,t,t	<img class = center src='/static/experiments/beast_fmri_test/images/V.png'></img>	89,71	2750.0	test	<img class = center src='/static/experiments/beast_fmri_test/images/redV.png'></img>	go	2050.0	2.0	7.0	go	non-target	V	89,Middle Finger	71,Index Finger	550.0	700.0	2200.0	2050.0	1.0	n/a	700.0	1.0	ITI
279439	500.0	n/a	-1	-1	500	0.0	fixation	poldrack-single-stim	308	890798	0.0-15.8-0.8	beast_fmri_test	337	890707,/	t	<div class = centerbox2><div class = fixation>+</div></div>	none	500.0	test	n/a	n/a	n/a	n/a	n/a	n/a	n/a	n/a	n/a	n/a	n/a	n/a	n/a	n/a	n/a	n/a	n/a	n/a	fixation
277892.41479669895	700.0	n/a	-1	-1	2750	1548.5852033	stim	stop-signal	309	893550	0.0-15.8-1.8	beast_fmri_test	337	891388,/,892068,/,892748,/,893427,/,894106,/,894786,/	t,t,t,t,t,t	<img class = center src='/static/experiments/beast_fmri_test/images/V.png'></img>	89,71	2750.0	test	<img class = center src='/static/experiments/beast_fmri_test/images/redV.png'></img>	stop	2050.0	2.0	8.0	stop	non-target	V	89,Middle Finger	71,Index Finger	550.0	700.0	2200.0	2050.0	0.0	1.0	700.0	n/a	go_stim
279942.41479669895	2050.0	n/a	-1	-1	2750	1548.5852033	stim	stop-signal	309	893550	0.0-15.8-1.8	beast_fmri_test	337	891388,/,892068,/,892748,/,893427,/,894106,/,894786,/	t,t,t,t,t,t	<img class = center src='/static/experiments/beast_fmri_test/images/V.png'></img>	89,71	2750.0	test	<img class = center src='/static/experiments/beast_fmri_test/images/redV.png'></img>	stop	2050.0	2.0	8.0	stop	non-target	V	89,Middle Finger	71,Index Finger	550.0	700.0	2200.0	2050.0	0.0	1.0	700.0	n/a	stop_stim
280642.41479669895	1548.5852033	n/a	-1	-1	2750	1548.5852033	stim	stop-signal	309	893550	0.0-15.8-1.8	beast_fmri_test	337	891388,/,892068,/,892748,/,893427,/,894106,/,894786,/	t,t,t,t,t,t	<img class = center src='/static/experiments/beast_fmri_test/images/V.png'></img>	89,71	2750.0	test	<img class = center src='/static/experiments/beast_fmri_test/images/redV.png'></img>	stop	2050.0	2.0	8.0	stop	non-target	V	89,Middle Finger	71,Index Finger	550.0	700.0	2200.0	2050.0	0.0	1.0	700.0	n/a	ITI
284275	500.0	n/a	-1	-1	500	0.0	fixation	poldrack-single-stim	310	895634	0.0-15.9-0.9	beast_fmri_test	337	895465,/	t	<div class = centerbox2><div class = fixation>+</div></div>	none	500.0	test	n/a	n/a	n/a	n/a	n/a	n/a	n/a	n/a	n/a	n/a	n/a	n/a	n/a	n/a	n/a	n/a	n/a	n/a	fixation
283128.66641301371	2750.0	n/a	657	89	2750	1149.33358699	stim	stop-signal	311	898387	0.0-15.9-1.9	beast_fmri_test	337	896146,/,896825,/,897505,/,898185,/,898864,/	t,t,t,t,t	<img class = center src='/static/experiments/beast_fmri_test/images/V.png'></img>	89,71	2750.0	test	<img class = center src='/static/experiments/beast_fmri_test/images/redV.png'></img>	go	2200.0	2.0	9.0	go	target	V	89,Middle Finger	71,Index Finger	550.0	750.0	2200.0	2050.0	1.0	n/a	550.0	1.0	go_stim
285878.66641301371	1149.33358699	n/a	657	89	2750	1149.33358699	stim	stop-signal	311	898387	0.0-15.9-1.9	beast_fmri_test	337	896146,/,896825,/,897505,/,898185,/,898864,/	t,t,t,t,t	<img class = center src='/static/experiments/beast_fmri_test/images/V.png'></img>	89,71	2750.0	test	<img class = center src='/static/experiments/beast_fmri_test/images/redV.png'></img>	go	2200.0	2.0	9.0	go	target	V	89,Middle Finger	71,Index Finger	550.0	750.0	2200.0	2050.0	1.0	n/a	550.0	1.0	ITI
288714	500.0	n/a	-1	-1	500	0.0	fixation	poldrack-single-stim	312	900073	0.0-15.10-0.10	beast_fmri_test	337	899572,/	t	<div class = centerbox2><div class = fixation>+</div></div>	none	500.0	test	n/a	n/a	n/a	n/a	n/a	n/a	n/a	n/a	n/a	n/a	n/a	n/a	n/a	n/a	n/a	n/a	n/a	n/a	fixation
288147.5657947656	550.0	n/a	1193	89	2750	568.434205234	stim	stop-signal	313	902825	0.0-15.10-1.10	beast_fmri_test	337	900223,/,900904,/,901583,/,902263,/,902942,/	t,t,t,t,t	<img class = center src='/static/experiments/beast_fmri_test/images/V.png'></img>	89,71	2750.0	test	<img class = center src='/static/experiments/beast_fmri_test/images/redV.png'></img>	stop	2200.0	2.0	10.0	stop	target	V	89,Middle Finger	71,Index Finger	550.0	750.0	2200.0	2050.0	0.0	0.0	550.0	n/a	go_stim
290347.5657947656	2200.0	n/a	1193	89	2750	568.434205234	stim	stop-signal	313	902825	0.0-15.10-1.10	beast_fmri_test	337	900223,/,900904,/,901583,/,902263,/,902942,/	t,t,t,t,t	<img class = center src='/static/experiments/beast_fmri_test/images/V.png'></img>	89,71	2750.0	test	<img class = center src='/static/experiments/beast_fmri_test/images/redV.png'></img>	stop	2200.0	2.0	10.0	stop	target	V	89,Middle Finger	71,Index Finger	550.0	750.0	2200.0	2050.0	0.0	0.0	550.0	n/a	stop_stim
290897.5657947656	568.434205234	n/a	1193	89	2750	568.434205234	stim	stop-signal	313	902825	0.0-15.10-1.10	beast_fmri_test	337	900223,/,900904,/,901583,/,902263,/,902942,/	t,t,t,t,t	<img class = center src='/static/experiments/beast_fmri_test/images/V.png'></img>	89,71	2750.0	test	<img class = center src='/static/experiments/beast_fmri_test/images/redV.png'></img>	stop	2200.0	2.0	10.0	stop	target	V	89,Middle Finger	71,Index Finger	550.0	750.0	2200.0	2050.0	0.0	0.0	550.0	n/a	ITI
292573	500.0	n/a	-1	-1	500	0.0	fixation	poldrack-single-stim	314	903932	0.0-15.11-0.11	beast_fmri_test	337	903623,/	t	<div class = centerbox2><div class = fixation>+</div></div>	none	500.0	test	n/a	n/a	n/a	n/a	n/a	n/a	n/a	n/a	n/a	n/a	n/a	n/a	n/a	n/a	n/a	n/a	n/a	n/a	fixation
290564.07854702102	2750.0	n/a	1307	71	2750	2010.92145298	stim	stop-signal	315	906684	0.0-15.11-1.11	beast_fmri_test	337	904303,/,904982,/,905661,/,906342,/,907021,/,907700,/,908380,/	t,t,t,t,t,t,t	<img class = center src='/static/experiments/beast_fmri_test/images/D.png'></img>	89,71	2750.0	test	<img class = center src='/static/experiments/beast_fmri_test/images/redD.png'></img>	go	2000.0	2.0	11.0	go	non-target	D	89,Middle Finger	71,Index Finger	500.0	750.0	2200.0	2000.0	1.0	n/a	750.0	1.0	go_stim
293314.07854702102	2010.92145298	n/a	1307	71	2750	2010.92145298	stim	stop-signal	315	906684	0.0-15.11-1.11	beast_fmri_test	337	904303,/,904982,/,905661,/,906342,/,907021,/,907700,/,908380,/	t,t,t,t,t,t,t	<img class = center src='/static/experiments/beast_fmri_test/images/D.png'></img>	89,71	2750.0	test	<img class = center src='/static/experiments/beast_fmri_test/images/redD.png'></img>	go	2000.0	2.0	11.0	go	non-target	D	89,Middle Finger	71,Index Finger	500.0	750.0	2200.0	2000.0	1.0	n/a	750.0	1.0	ITI
297873	500.0	n/a	-1	-1	500	0.0	fixation	poldrack-single-stim	316	909232	0.0-15.12-0.12	beast_fmri_test	337	909059,/	t	<div class = centerbox2><div class = fixation>+</div></div>	none	500.0	test	n/a	n/a	n/a	n/a	n/a	n/a	n/a	n/a	n/a	n/a	n/a	n/a	n/a	n/a	n/a	n/a	n/a	n/a	fixation
297815.57714752178	2750.0	n/a	1032	71	2750	59.4228524782	stim	stop-signal	317	911984	0.0-15.12-1.12	beast_fmri_test	337	909739,/,910420,/,911099,/,911778,/	t,t,t,t	<img class = center src='/static/experiments/beast_fmri_test/images/D.png'></img>	89,71	2750.0	test	<img class = center src='/static/experiments/beast_fmri_test/images/redD.png'></img>	go	2000.0	2.0	12.0	go	non-target	D	89,Middle Finger	71,Index Finger	500.0	750.0	2200.0	2000.0	1.0	n/a	750.0	1.0	go_stim
300565.57714752178	59.4228524782	n/a	1032	71	2750	59.4228524782	stim	stop-signal	317	911984	0.0-15.12-1.12	beast_fmri_test	337	909739,/,910420,/,911099,/,911778,/	t,t,t,t	<img class = center src='/static/experiments/beast_fmri_test/images/D.png'></img>	89,71	2750.0	test	<img class = center src='/static/experiments/beast_fmri_test/images/redD.png'></img>	go	2000.0	2.0	12.0	go	non-target	D	89,Middle Finger	71,Index Finger	500.0	750.0	2200.0	2000.0	1.0	n/a	750.0	1.0	ITI
301223	500.0	n/a	-1	-1	500	0.0	fixation	poldrack-single-stim	318	912582	0.0-15.13-0.13	beast_fmri_test	337	912459,/	t	<div class = centerbox2><div class = fixation>+</div></div>	none	500.0	test	n/a	n/a	n/a	n/a	n/a	n/a	n/a	n/a	n/a	n/a	n/a	n/a	n/a	n/a	n/a	n/a	n/a	n/a	fixation
300716.04861584643	750.0	n/a	-1	-1	2750	509.951384154	stim	stop-signal	319	915335	0.0-15.13-1.13	beast_fmri_test	337	913137,/,913817,/,914497,/,915177,/	t,t,t,t	<img class = center src='/static/experiments/beast_fmri_test/images/V.png'></img>	89,71	2750.0	test	<img class = center src='/static/experiments/beast_fmri_test/images/redV.png'></img>	stop	2000.0	2.0	13.0	stop	non-target	V	89,Middle Finger	71,Index Finger	500.0	750.0	2200.0	2000.0	0.0	1.0	750.0	n/a	go_stim
302716.04861584643	2000.0	n/a	-1	-1	2750	509.951384154	stim	stop-signal	319	915335	0.0-15.13-1.13	beast_fmri_test	337	913137,/,913817,/,914497,/,915177,/	t,t,t,t	<img class = center src='/static/experiments/beast_fmri_test/images/V.png'></img>	89,71	2750.0	test	<img class = center src='/static/experiments/beast_fmri_test/images/redV.png'></img>	stop	2000.0	2.0	13.0	stop	non-target	V	89,Middle Finger	71,Index Finger	500.0	750.0	2200.0	2000.0	0.0	1.0	750.0	n/a	stop_stim
303466.04861584643	509.951384154	n/a	-1	-1	2750	509.951384154	stim	stop-signal	319	915335	0.0-15.13-1.13	beast_fmri_test	337	913137,/,913817,/,914497,/,915177,/	t,t,t,t	<img class = center src='/static/experiments/beast_fmri_test/images/V.png'></img>	89,71	2750.0	test	<img class = center src='/static/experiments/beast_fmri_test/images/redV.png'></img>	stop	2000.0	2.0	13.0	stop	non-target	V	89,Middle Finger	71,Index Finger	500.0	750.0	2200.0	2000.0	0.0	1.0	750.0	n/a	ITI
305026	500.0	n/a	-1	-1	500	0.0	fixation	poldrack-single-stim	320	916385	0.0-15.14-0.14	beast_fmri_test	337	915883,/	t	<div class = centerbox2><div class = fixation>+</div></div>	none	500.0	test	n/a	n/a	n/a	n/a	n/a	n/a	n/a	n/a	n/a	n/a	n/a	n/a	n/a	n/a	n/a	n/a	n/a	n/a	fixation
304938.77415748651	2750.0	n/a	1103	71	2750	89.2258425134	stim	stop-signal	321	919137	0.0-15.14-1.14	beast_fmri_test	337	916537,/,917217,/,917895,/,918575,/	t,t,t,t	<img class = center src='/static/experiments/beast_fmri_test/images/B.png'></img>	89,71	2750.0	test	<img class = center src='/static/experiments/beast_fmri_test/images/redB.png'></img>	go	1950.0	2.0	14.0	go	non-target	B	89,Middle Finger	71,Index Finger	500.0	800.0	2200.0	1950.0	1.0	n/a	800.0	1.0	go_stim
307688.77415748651	89.2258425134	n/a	1103	71	2750	89.2258425134	stim	stop-signal	321	919137	0.0-15.14-1.14	beast_fmri_test	337	916537,/,917217,/,917895,/,918575,/	t,t,t,t	<img class = center src='/static/experiments/beast_fmri_test/images/B.png'></img>	89,71	2750.0	test	<img class = center src='/static/experiments/beast_fmri_test/images/redB.png'></img>	go	1950.0	2.0	14.0	go	non-target	B	89,Middle Finger	71,Index Finger	500.0	800.0	2200.0	1950.0	1.0	n/a	800.0	1.0	ITI
308406	500.0	n/a	-1	-1	500	0.0	fixation	poldrack-single-stim	322	919765	0.0-15.15-0.15	beast_fmri_test	337	919264,/	t	<div class = centerbox2><div class = fixation>+</div></div>	none	500.0	test	n/a	n/a	n/a	n/a	n/a	n/a	n/a	n/a	n/a	n/a	n/a	n/a	n/a	n/a	n/a	n/a	n/a	n/a	fixation
307872.86453534034	2750.0	n/a	1400	71	2750	536.13546466	stim	stop-signal	323	922518	0.0-15.15-1.15	beast_fmri_test	337	919934,/,920615,/,921294,/,921974,/,922652,/	t,t,t,t,t	<img class = center src='/static/experiments/beast_fmri_test/images/P.png'></img>	89,71	2750.0	test	<img class = center src='/static/experiments/beast_fmri_test/images/redP.png'></img>	go	1950.0	2.0	15.0	go	non-target	P	89,Middle Finger	71,Index Finger	500.0	800.0	2200.0	1950.0	1.0	n/a	800.0	1.0	go_stim
310622.86453534034	536.13546466	n/a	1400	71	2750	536.13546466	stim	stop-signal	323	922518	0.0-15.15-1.15	beast_fmri_test	337	919934,/,920615,/,921294,/,921974,/,922652,/	t,t,t,t,t	<img class = center src='/static/experiments/beast_fmri_test/images/P.png'></img>	89,71	2750.0	test	<img class = center src='/static/experiments/beast_fmri_test/images/redP.png'></img>	go	1950.0	2.0	15.0	go	non-target	P	89,Middle Finger	71,Index Finger	500.0	800.0	2200.0	1950.0	1.0	n/a	800.0	1.0	ITI
312230	500.0	n/a	-1	-1	500	0.0	fixation	poldrack-single-stim	324	923589	0.0-15.16-0.16	beast_fmri_test	337	923333,/	t	<div class = centerbox2><div class = fixation>+</div></div>	none	500.0	test	n/a	n/a	n/a	n/a	n/a	n/a	n/a	n/a	n/a	n/a	n/a	n/a	n/a	n/a	n/a	n/a	n/a	n/a	fixation
311860.84859252977	800.0	n/a	1628	71	2750	371.15140747	stim	stop-signal	325	926341	0.0-15.16-1.16	beast_fmri_test	337	924013,/,924693,/,925372,/,926052,/	t,t,t,t	<img class = center src='/static/experiments/beast_fmri_test/images/P.png'></img>	89,71	2750.0	test	<img class = center src='/static/experiments/beast_fmri_test/images/redP.png'></img>	stop	1950.0	2.0	16.0	stop	non-target	P	89,Middle Finger	71,Index Finger	500.0	800.0	2200.0	1950.0	0.0	0.0	800.0	n/a	go_stim
313810.84859252977	1950.0	n/a	1628	71	2750	371.15140747	stim	stop-signal	325	926341	0.0-15.16-1.16	beast_fmri_test	337	924013,/,924693,/,925372,/,926052,/	t,t,t,t	<img class = center src='/static/experiments/beast_fmri_test/images/P.png'></img>	89,71	2750.0	test	<img class = center src='/static/experiments/beast_fmri_test/images/redP.png'></img>	stop	1950.0	2.0	16.0	stop	non-target	P	89,Middle Finger	71,Index Finger	500.0	800.0	2200.0	1950.0	0.0	0.0	800.0	n/a	stop_stim
314610.84859252977	371.15140747	n/a	1628	71	2750	371.15140747	stim	stop-signal	325	926341	0.0-15.16-1.16	beast_fmri_test	337	924013,/,924693,/,925372,/,926052,/	t,t,t,t	<img class = center src='/static/experiments/beast_fmri_test/images/P.png'></img>	89,71	2750.0	test	<img class = center src='/static/experiments/beast_fmri_test/images/redP.png'></img>	stop	1950.0	2.0	16.0	stop	non-target	P	89,Middle Finger	71,Index Finger	500.0	800.0	2200.0	1950.0	0.0	0.0	800.0	n/a	ITI
315893	500.0	n/a	-1	-1	500	0.0	fixation	poldrack-single-stim	326	927252	0.0-15.17-0.17	beast_fmri_test	337	926750,/	t	<div class = centerbox2><div class = fixation>+</div></div>	none	500.0	test	n/a	n/a	n/a	n/a	n/a	n/a	n/a	n/a	n/a	n/a	n/a	n/a	n/a	n/a	n/a	n/a	n/a	n/a	fixation
313851.2275525775	2750.0	n/a	1103	71	2750	2042.77244742	stim	stop-signal	327	930003	0.0-15.17-1.17	beast_fmri_test	337	927410,/,928091,/,928771,/,929450,/,930129,/,930809,/,931490,/	t,t,t,t,t,t,t	<img class = center src='/static/experiments/beast_fmri_test/images/B.png'></img>	89,71	2750.0	test	<img class = center src='/static/experiments/beast_fmri_test/images/redB.png'></img>	go	2000.0	2.0	17.0	go	non-target	B	89,Middle Finger	71,Index Finger	500.0	750.0	2200.0	2000.0	1.0	n/a	750.0	1.0	go_stim
316601.2275525775	2042.77244742	n/a	1103	71	2750	2042.77244742	stim	stop-signal	327	930003	0.0-15.17-1.17	beast_fmri_test	337	927410,/,928091,/,928771,/,929450,/,930129,/,930809,/,931490,/	t,t,t,t,t,t,t	<img class = center src='/static/experiments/beast_fmri_test/images/B.png'></img>	89,71	2750.0	test	<img class = center src='/static/experiments/beast_fmri_test/images/redB.png'></img>	go	2000.0	2.0	17.0	go	non-target	B	89,Middle Finger	71,Index Finger	500.0	750.0	2200.0	2000.0	1.0	n/a	750.0	1.0	ITI
321224	500.0	n/a	-1	-1	500	0.0	fixation	poldrack-single-stim	328	932583	0.0-15.18-0.18	beast_fmri_test	337	932169,/	t	<div class = centerbox2><div class = fixation>+</div></div>	none	500.0	test	n/a	n/a	n/a	n/a	n/a	n/a	n/a	n/a	n/a	n/a	n/a	n/a	n/a	n/a	n/a	n/a	n/a	n/a	fixation
319547.9251942765	2750.0	n/a	1300	71	2750	1679.07480572	stim	stop-signal	329	935336	0.0-15.18-1.18	beast_fmri_test	337	932848,/,933528,/,934209,/,934887,/,935569,/,936246,/,936927,/	t,t,t,t,t,t,t	<img class = center src='/static/experiments/beast_fmri_test/images/V.png'></img>	89,71	2750.0	test	<img class = center src='/static/experiments/beast_fmri_test/images/redV.png'></img>	go	2000.0	2.0	18.0	go	non-target	V	89,Middle Finger	71,Index Finger	500.0	750.0	2200.0	2000.0	1.0	n/a	750.0	1.0	go_stim
322297.9251942765	1679.07480572	n/a	1300	71	2750	1679.07480572	stim	stop-signal	329	935336	0.0-15.18-1.18	beast_fmri_test	337	932848,/,933528,/,934209,/,934887,/,935569,/,936246,/,936927,/	t,t,t,t,t,t,t	<img class = center src='/static/experiments/beast_fmri_test/images/V.png'></img>	89,71	2750.0	test	<img class = center src='/static/experiments/beast_fmri_test/images/redV.png'></img>	go	2000.0	2.0	18.0	go	non-target	V	89,Middle Finger	71,Index Finger	500.0	750.0	2200.0	2000.0	1.0	n/a	750.0	1.0	ITI
326193	500.0	n/a	-1	-1	500	0.0	fixation	poldrack-single-stim	330	937552	0.0-15.19-0.19	beast_fmri_test	337	n/a	n/a	<div class = centerbox2><div class = fixation>+</div></div>	none	500.0	test	n/a	n/a	n/a	n/a	n/a	n/a	n/a	n/a	n/a	n/a	n/a	n/a	n/a	n/a	n/a	n/a	n/a	n/a	fixation
325532.11841140222	500.0	n/a	944	89	2750	662.881588598	stim	stop-signal	331	940304	0.0-15.19-1.19	beast_fmri_test	337	937606,/,938293,/,938966,/,939645,/,940325,/	t,t,t,t,t	<img class = center src='/static/experiments/beast_fmri_test/images/B.png'></img>	89,71	2750.0	test	<img class = center src='/static/experiments/beast_fmri_test/images/redB.png'></img>	stop	2250.0	2.0	19.0	stop	target	B	89,Middle Finger	71,Index Finger	500.0	750.0	2250.0	2000.0	0.0	0.0	500.0	n/a	go_stim
327782.11841140222	2250.0	n/a	944	89	2750	662.881588598	stim	stop-signal	331	940304	0.0-15.19-1.19	beast_fmri_test	337	937606,/,938293,/,938966,/,939645,/,940325,/	t,t,t,t,t	<img class = center src='/static/experiments/beast_fmri_test/images/B.png'></img>	89,71	2750.0	test	<img class = center src='/static/experiments/beast_fmri_test/images/redB.png'></img>	stop	2250.0	2.0	19.0	stop	target	B	89,Middle Finger	71,Index Finger	500.0	750.0	2250.0	2000.0	0.0	0.0	500.0	n/a	stop_stim
328282.11841140222	662.881588598	n/a	944	89	2750	662.881588598	stim	stop-signal	331	940304	0.0-15.19-1.19	beast_fmri_test	337	937606,/,938293,/,938966,/,939645,/,940325,/	t,t,t,t,t	<img class = center src='/static/experiments/beast_fmri_test/images/B.png'></img>	89,71	2750.0	test	<img class = center src='/static/experiments/beast_fmri_test/images/redB.png'></img>	stop	2250.0	2.0	19.0	stop	target	B	89,Middle Finger	71,Index Finger	500.0	750.0	2250.0	2000.0	0.0	0.0	500.0	n/a	ITI
330143	500.0	n/a	-1	-1	500	0.0	fixation	poldrack-single-stim	332	941502	0.0-15.20-0.20	beast_fmri_test	337	941005,/	t	<div class = centerbox2><div class = fixation>+</div></div>	none	500.0	test	n/a	n/a	n/a	n/a	n/a	n/a	n/a	n/a	n/a	n/a	n/a	n/a	n/a	n/a	n/a	n/a	n/a	n/a	fixation
329942.08259612031	450.0	n/a	696	89	2750	200.91740388	stim	stop-signal	333	944252	0.0-15.20-1.20	beast_fmri_test	337	941684,/,942364,/,943043,/,943723,/,944403,/	t,t,t,t,t	<img class = center src='/static/experiments/beast_fmri_test/images/V.png'></img>	89,71	2750.0	test	<img class = center src='/static/experiments/beast_fmri_test/images/redV.png'></img>	stop	2300.0	2.0	20.0	stop	target	V	89,Middle Finger	71,Index Finger	450.0	750.0	2300.0	2000.0	0.0	0.0	450.0	n/a	go_stim
332242.08259612031	2300.0	n/a	696	89	2750	200.91740388	stim	stop-signal	333	944252	0.0-15.20-1.20	beast_fmri_test	337	941684,/,942364,/,943043,/,943723,/,944403,/	t,t,t,t,t	<img class = center src='/static/experiments/beast_fmri_test/images/V.png'></img>	89,71	2750.0	test	<img class = center src='/static/experiments/beast_fmri_test/images/redV.png'></img>	stop	2300.0	2.0	20.0	stop	target	V	89,Middle Finger	71,Index Finger	450.0	750.0	2300.0	2000.0	0.0	0.0	450.0	n/a	stop_stim
332692.08259612031	200.91740388	n/a	696	89	2750	200.91740388	stim	stop-signal	333	944252	0.0-15.20-1.20	beast_fmri_test	337	941684,/,942364,/,943043,/,943723,/,944403,/	t,t,t,t,t	<img class = center src='/static/experiments/beast_fmri_test/images/V.png'></img>	89,71	2750.0	test	<img class = center src='/static/experiments/beast_fmri_test/images/redV.png'></img>	stop	2300.0	2.0	20.0	stop	target	V	89,Middle Finger	71,Index Finger	450.0	750.0	2300.0	2000.0	0.0	0.0	450.0	n/a	ITI
333630	500.0	n/a	-1	-1	500	0.0	fixation	poldrack-single-stim	334	944989	0.0-15.21-0.21	beast_fmri_test	337	n/a	n/a	<div class = centerbox2><div class = fixation>+</div></div>	none	500.0	test	n/a	n/a	n/a	n/a	n/a	n/a	n/a	n/a	n/a	n/a	n/a	n/a	n/a	n/a	n/a	n/a	n/a	n/a	fixation
332370.11860321683	400.0	n/a	-1	-1	2750	1260.88139678	stim	stop-signal	335	947740	0.0-15.21-1.21	beast_fmri_test	337	945082,/,945762,/,946443,/,947121,/,947800,/,948481,/	t,t,t,t,t,t	<img class = center src='/static/experiments/beast_fmri_test/images/B.png'></img>	89,71	2750.0	test	<img class = center src='/static/experiments/beast_fmri_test/images/redB.png'></img>	stop	2350.0	2.0	21.0	stop	target	B	89,Middle Finger	71,Index Finger	400.0	750.0	2350.0	2000.0	0.0	1.0	400.0	n/a	go_stim
334720.11860321683	2350.0	n/a	-1	-1	2750	1260.88139678	stim	stop-signal	335	947740	0.0-15.21-1.21	beast_fmri_test	337	945082,/,945762,/,946443,/,947121,/,947800,/,948481,/	t,t,t,t,t,t	<img class = center src='/static/experiments/beast_fmri_test/images/B.png'></img>	89,71	2750.0	test	<img class = center src='/static/experiments/beast_fmri_test/images/redB.png'></img>	stop	2350.0	2.0	21.0	stop	target	B	89,Middle Finger	71,Index Finger	400.0	750.0	2350.0	2000.0	0.0	1.0	400.0	n/a	stop_stim
335120.11860321683	1260.88139678	n/a	-1	-1	2750	1260.88139678	stim	stop-signal	335	947740	0.0-15.21-1.21	beast_fmri_test	337	945082,/,945762,/,946443,/,947121,/,947800,/,948481,/	t,t,t,t,t,t	<img class = center src='/static/experiments/beast_fmri_test/images/B.png'></img>	89,71	2750.0	test	<img class = center src='/static/experiments/beast_fmri_test/images/redB.png'></img>	stop	2350.0	2.0	21.0	stop	target	B	89,Middle Finger	71,Index Finger	400.0	750.0	2350.0	2000.0	0.0	1.0	400.0	n/a	ITI
338182	500.0	n/a	-1	-1	500	0.0	fixation	poldrack-single-stim	336	949541	0.0-15.22-0.22	beast_fmri_test	337	949160,/	t	<div class = centerbox2><div class = fixation>+</div></div>	none	500.0	test	n/a	n/a	n/a	n/a	n/a	n/a	n/a	n/a	n/a	n/a	n/a	n/a	n/a	n/a	n/a	n/a	n/a	n/a	fixation
337794.68148828286	750.0	n/a	722	71	2750	389.318511717	stim	stop-signal	337	952293	0.0-15.22-1.22	beast_fmri_test	337	949840,/,950521,/,951199,/,951880,/,952560,/	t,t,t,t,t	<img class = center src='/static/experiments/beast_fmri_test/images/P.png'></img>	89,71	2750.0	test	<img class = center src='/static/experiments/beast_fmri_test/images/redP.png'></img>	stop	2000.0	2.0	22.0	stop	non-target	P	89,Middle Finger	71,Index Finger	450.0	750.0	2350.0	2000.0	0.0	0.0	750.0	n/a	go_stim
339794.68148828286	2000.0	n/a	722	71	2750	389.318511717	stim	stop-signal	337	952293	0.0-15.22-1.22	beast_fmri_test	337	949840,/,950521,/,951199,/,951880,/,952560,/	t,t,t,t,t	<img class = center src='/static/experiments/beast_fmri_test/images/P.png'></img>	89,71	2750.0	test	<img class = center src='/static/experiments/beast_fmri_test/images/redP.png'></img>	stop	2000.0	2.0	22.0	stop	non-target	P	89,Middle Finger	71,Index Finger	450.0	750.0	2350.0	2000.0	0.0	0.0	750.0	n/a	stop_stim
