onset	duration	"”text"""	rt	key_press	block_duration	timing_post_trial	trial_id	trial_type	trial_index	time_elapsed	internal_node_id	exp_id	subject_id	trigger_times	triggers	stimulus	possible_responses	stim_duration	exp_stage	SS_stimulus	SS_trial_type	SS_duration	load	trial_num	stop_trial_type	adaptive_trial_type	stim	yes_response_key	no_response_key	SSD_target	SSD_non_target	SSTarget	SSNonTarget	go_acc	stop_acc	SS_delay	adaptive_acc	new_trial_type
test	10880	n/a	-1	-1	10880	0.0	practice-no-stop-feedback	poldrack-single-stim	388	1141780	0.0-18.0	beast_fmri_test	337	1130905,/,1131582,/,1132262,/,1132942,/,1133621,/,1134301,/,1134981,/,1135660,/,1136340,/,1137020,/,1137699,/,1138380,/,1139058,/,1139738,/,1140422,/,1141098,/,1141778,/	t,t,t,t,t,t,t,t,t,t,t,t,t,t,t,t,t	"<div class = ""centerbox""><p class = ""block-text"">Your delay is 3 trials.</p><p class = block-text>Please wait for the scanner to start the block</p></div>"	77	10880.0	n/a	n/a	n/a	n/a	n/a	n/a	n/a	n/a	n/a	n/a	n/a	n/a	n/a	n/a	n/a	n/a	n/a	n/a	n/a	start_functional_block
11379	500	n/a	-1	-1	500	0.0	fixation	poldrack-single-stim	389	1142284	0.0-19.0-0.0	beast_fmri_test	337	n/a	n/a	<div class = centerbox2><div class = fixation>+</div></div>	none	500.0	test	n/a	n/a	n/a	n/a	n/a	n/a	n/a	n/a	n/a	n/a	n/a	n/a	n/a	n/a	n/a	n/a	n/a	n/a	fixation
8816.0650173369795	temp_go_duration	n/a	1185	71	2750	2563.93498266	stim	stop-signal	390	1145035	0.0-19.0-1.0	beast_fmri_test	337	1142458,/,1143137,/,1143817,/,1144497,/,1145175,/,1145856,/,1146536,/,1147216,/	t,t,t,t,t,t,t,t	<img class = center src='/static/experiments/beast_fmri_test/images/V.png'></img>	89,71	2750.0	test	<img class = center src='/static/experiments/beast_fmri_test/images/redV.png'></img>	stop	-1.0	3.0	0.0	stop	temp-non-target	V	89,Middle Finger	71,Index Finger	400.0	800.0	2350.0	1950.0	0.0	0.0	n/a	n/a	go_stim
temp-non-target	temp_stop_duration	n/a	1185	71	2750	2563.93498266	stim	stop-signal	390	1145035	0.0-19.0-1.0	beast_fmri_test	337	1142458,/,1143137,/,1143817,/,1144497,/,1145175,/,1145856,/,1146536,/,1147216,/	t,t,t,t,t,t,t,t	<img class = center src='/static/experiments/beast_fmri_test/images/V.png'></img>	89,71	2750.0	test	<img class = center src='/static/experiments/beast_fmri_test/images/redV.png'></img>	stop	-1.0	3.0	0.0	stop	temp-non-target	V	89,Middle Finger	71,Index Finger	400.0	800.0	2350.0	1950.0	0.0	0.0	n/a	n/a	stop_stim
11566.06501733698	2563.9349826629114	n/a	1185	71	2750	2563.93498266	stim	stop-signal	390	1145035	0.0-19.0-1.0	beast_fmri_test	337	1142458,/,1143137,/,1143817,/,1144497,/,1145175,/,1145856,/,1146536,/,1147216,/	t,t,t,t,t,t,t,t	<img class = center src='/static/experiments/beast_fmri_test/images/V.png'></img>	89,71	2750.0	test	<img class = center src='/static/experiments/beast_fmri_test/images/redV.png'></img>	stop	-1.0	3.0	0.0	stop	temp-non-target	V	89,Middle Finger	71,Index Finger	400.0	800.0	2350.0	1950.0	0.0	0.0	n/a	n/a	ITI
17245	500	n/a	-1	-1	500	0.0	fixation	poldrack-single-stim	391	1148150	0.0-19.1-0.1	beast_fmri_test	337	1147896,/	t	<div class = centerbox2><div class = fixation>+</div></div>	none	500.0	test	n/a	n/a	n/a	n/a	n/a	n/a	n/a	n/a	n/a	n/a	n/a	n/a	n/a	n/a	n/a	n/a	n/a	n/a	fixation
15582.883642231114	2750	n/a	1055	71	2750	1663.11635777	stim	stop-signal	392	1150901	0.0-19.1-1.1	beast_fmri_test	337	1148576,/,1149254,/,1149934,/,1150614,/,1151294,/,1151973,/	t,t,t,t,t,t	<img class = center src='/static/experiments/beast_fmri_test/images/B.png'></img>	89,71	2750.0	test	<img class = center src='/static/experiments/beast_fmri_test/images/redB.png'></img>	go	-1.0	3.0	1.0	go	temp-non-target	B	89,Middle Finger	71,Index Finger	400.0	800.0	2350.0	1950.0	0.0	n/a	n/a	n/a	go_stim
18332.883642231114	1663.1163577688953	n/a	1055	71	2750	1663.11635777	stim	stop-signal	392	1150901	0.0-19.1-1.1	beast_fmri_test	337	1148576,/,1149254,/,1149934,/,1150614,/,1151294,/,1151973,/	t,t,t,t,t,t	<img class = center src='/static/experiments/beast_fmri_test/images/B.png'></img>	89,71	2750.0	test	<img class = center src='/static/experiments/beast_fmri_test/images/redB.png'></img>	go	-1.0	3.0	1.0	go	temp-non-target	B	89,Middle Finger	71,Index Finger	400.0	800.0	2350.0	1950.0	0.0	n/a	n/a	n/a	ITI
22205	500	n/a	-1	-1	500	0.0	fixation	poldrack-single-stim	393	1153110	0.0-19.2-0.2	beast_fmri_test	337	1152652,/	t	<div class = centerbox2><div class = fixation>+</div></div>	none	500.0	test	n/a	n/a	n/a	n/a	n/a	n/a	n/a	n/a	n/a	n/a	n/a	n/a	n/a	n/a	n/a	n/a	n/a	n/a	fixation
19952.863161988091	2750	n/a	1080	71	2750	2253.13683801	stim	stop-signal	394	1155861	0.0-19.2-1.2	beast_fmri_test	337	1153332,/,1154012,/,1154692,/,1155370,/,1156050,/,1156731,/,1157411,/,1158089,/	t,t,t,t,t,t,t,t	<img class = center src='/static/experiments/beast_fmri_test/images/P.png'></img>	89,71	2750.0	test	<img class = center src='/static/experiments/beast_fmri_test/images/redP.png'></img>	go	-1.0	3.0	2.0	go	temp-non-target	P	89,Middle Finger	71,Index Finger	400.0	800.0	2350.0	1950.0	0.0	n/a	n/a	n/a	go_stim
22702.863161988091	2253.1368380119752	n/a	1080	71	2750	2253.13683801	stim	stop-signal	394	1155861	0.0-19.2-1.2	beast_fmri_test	337	1153332,/,1154012,/,1154692,/,1155370,/,1156050,/,1156731,/,1157411,/,1158089,/	t,t,t,t,t,t,t,t	<img class = center src='/static/experiments/beast_fmri_test/images/P.png'></img>	89,71	2750.0	test	<img class = center src='/static/experiments/beast_fmri_test/images/redP.png'></img>	go	-1.0	3.0	2.0	go	temp-non-target	P	89,Middle Finger	71,Index Finger	400.0	800.0	2350.0	1950.0	0.0	n/a	n/a	n/a	ITI
27757	500	n/a	-1	-1	500	0.0	fixation	poldrack-single-stim	395	1158662	0.0-19.3-0.3	beast_fmri_test	337	n/a	n/a	<div class = centerbox2><div class = fixation>+</div></div>	none	500.0	test	n/a	n/a	n/a	n/a	n/a	n/a	n/a	n/a	n/a	n/a	n/a	n/a	n/a	n/a	n/a	n/a	n/a	n/a	fixation
26689.979903275147	2750	n/a	819	89	2750	1068.02009672	stim	stop-signal	396	1161413	0.0-19.3-1.3	beast_fmri_test	337	1158769,/,1159450,/,1160129,/,1160809,/,1161488,/,1162168,/	t,t,t,t,t,t	<img class = center src='/static/experiments/beast_fmri_test/images/V.png'></img>	89,71	2750.0	test	<img class = center src='/static/experiments/beast_fmri_test/images/redV.png'></img>	go	2350.0	3.0	3.0	go	target	V	89,Middle Finger	71,Index Finger	400.0	800.0	2350.0	1950.0	1.0	n/a	400.0	1.0	go_stim
29439.979903275147	1068.0200967248497	n/a	819	89	2750	1068.02009672	stim	stop-signal	396	1161413	0.0-19.3-1.3	beast_fmri_test	337	1158769,/,1159450,/,1160129,/,1160809,/,1161488,/,1162168,/	t,t,t,t,t,t	<img class = center src='/static/experiments/beast_fmri_test/images/V.png'></img>	89,71	2750.0	test	<img class = center src='/static/experiments/beast_fmri_test/images/redV.png'></img>	go	2350.0	3.0	3.0	go	target	V	89,Middle Finger	71,Index Finger	400.0	800.0	2350.0	1950.0	1.0	n/a	400.0	1.0	ITI
32132	500	n/a	-1	-1	500	0.0	fixation	poldrack-single-stim	397	1163037	0.0-19.4-0.4	beast_fmri_test	337	1162848,/	t	<div class = centerbox2><div class = fixation>+</div></div>	none	500.0	test	n/a	n/a	n/a	n/a	n/a	n/a	n/a	n/a	n/a	n/a	n/a	n/a	n/a	n/a	n/a	n/a	n/a	n/a	fixation
31952.413075504592	2750	n/a	1353	71	2750	180.586924495	stim	stop-signal	398	1165788	0.0-19.4-1.4	beast_fmri_test	337	1163529,/,1164209,/,1164887,/,1165565,/	t,t,t,t	<img class = center src='/static/experiments/beast_fmri_test/images/D.png'></img>	89,71	2750.0	test	<img class = center src='/static/experiments/beast_fmri_test/images/redD.png'></img>	go	1950.0	3.0	4.0	go	non-target	D	89,Middle Finger	71,Index Finger	400.0	800.0	2350.0	1950.0	1.0	n/a	800.0	1.0	go_stim
34702.413075504592	180.58692449538455	n/a	1353	71	2750	180.586924495	stim	stop-signal	398	1165788	0.0-19.4-1.4	beast_fmri_test	337	1163529,/,1164209,/,1164887,/,1165565,/	t,t,t,t	<img class = center src='/static/experiments/beast_fmri_test/images/D.png'></img>	89,71	2750.0	test	<img class = center src='/static/experiments/beast_fmri_test/images/redD.png'></img>	go	1950.0	3.0	4.0	go	non-target	D	89,Middle Finger	71,Index Finger	400.0	800.0	2350.0	1950.0	1.0	n/a	800.0	1.0	ITI
35612	500	n/a	-1	-1	500	0.0	fixation	poldrack-single-stim	399	1166517	0.0-19.5-0.5	beast_fmri_test	337	1166246,/	t	<div class = centerbox2><div class = fixation>+</div></div>	none	500.0	test	n/a	n/a	n/a	n/a	n/a	n/a	n/a	n/a	n/a	n/a	n/a	n/a	n/a	n/a	n/a	n/a	n/a	n/a	fixation
35086.92768062558	2750	n/a	1257	71	2750	527.072319374	stim	stop-signal	400	1169269	0.0-19.5-1.5	beast_fmri_test	337	1166926,/,1167606,/,1168286,/,1168966,/,1169645,/	t,t,t,t,t	<img class = center src='/static/experiments/beast_fmri_test/images/T.png'></img>	89,71	2750.0	test	<img class = center src='/static/experiments/beast_fmri_test/images/redT.png'></img>	go	1950.0	3.0	5.0	go	non-target	T	89,Middle Finger	71,Index Finger	400.0	800.0	2350.0	1950.0	1.0	n/a	800.0	1.0	go_stim
37836.92768062558	527.07231937440531	n/a	1257	71	2750	527.072319374	stim	stop-signal	400	1169269	0.0-19.5-1.5	beast_fmri_test	337	1166926,/,1167606,/,1168286,/,1168966,/,1169645,/	t,t,t,t,t	<img class = center src='/static/experiments/beast_fmri_test/images/T.png'></img>	89,71	2750.0	test	<img class = center src='/static/experiments/beast_fmri_test/images/redT.png'></img>	go	1950.0	3.0	5.0	go	non-target	T	89,Middle Finger	71,Index Finger	400.0	800.0	2350.0	1950.0	1.0	n/a	800.0	1.0	ITI
39439	500	n/a	-1	-1	500	0.0	fixation	poldrack-single-stim	401	1170344	0.0-19.6-0.6	beast_fmri_test	337	1170325,/	t	<div class = centerbox2><div class = fixation>+</div></div>	none	500.0	test	n/a	n/a	n/a	n/a	n/a	n/a	n/a	n/a	n/a	n/a	n/a	n/a	n/a	n/a	n/a	n/a	n/a	n/a	fixation
38660.991463152925	2750	n/a	1413	89	2750	779.008536847	stim	stop-signal	402	1173095	0.0-19.6-1.6	beast_fmri_test	337	1171005,/,1171689,/,1172364,/,1173043,/,1173723,/	t,t,t,t,t	<img class = center src='/static/experiments/beast_fmri_test/images/V.png'></img>	89,71	2750.0	test	<img class = center src='/static/experiments/beast_fmri_test/images/redV.png'></img>	go	2350.0	3.0	6.0	go	target	V	89,Middle Finger	71,Index Finger	400.0	800.0	2350.0	1950.0	1.0	n/a	400.0	1.0	go_stim
41410.991463152925	779.00853684706158	n/a	1413	89	2750	779.008536847	stim	stop-signal	402	1173095	0.0-19.6-1.6	beast_fmri_test	337	1171005,/,1171689,/,1172364,/,1173043,/,1173723,/	t,t,t,t,t	<img class = center src='/static/experiments/beast_fmri_test/images/V.png'></img>	89,71	2750.0	test	<img class = center src='/static/experiments/beast_fmri_test/images/redV.png'></img>	go	2350.0	3.0	6.0	go	target	V	89,Middle Finger	71,Index Finger	400.0	800.0	2350.0	1950.0	1.0	n/a	400.0	1.0	ITI
43519	500	n/a	-1	-1	500	0.0	fixation	poldrack-single-stim	403	1174424	0.0-19.7-0.7	beast_fmri_test	337	1174404,/	t	<div class = centerbox2><div class = fixation>+</div></div>	none	500.0	test	n/a	n/a	n/a	n/a	n/a	n/a	n/a	n/a	n/a	n/a	n/a	n/a	n/a	n/a	n/a	n/a	n/a	n/a	fixation
43332.842886930564	2750	n/a	1287	71	2750	188.157113069	stim	stop-signal	404	1177176	0.0-19.7-1.7	beast_fmri_test	337	1175082,/,1175762,/,1176442,/,1177122,/	t,t,t,t	<img class = center src='/static/experiments/beast_fmri_test/images/T.png'></img>	89,71	2750.0	test	<img class = center src='/static/experiments/beast_fmri_test/images/redT.png'></img>	go	1950.0	3.0	7.0	go	non-target	T	89,Middle Finger	71,Index Finger	400.0	800.0	2350.0	1950.0	1.0	n/a	800.0	1.0	go_stim
46082.842886930564	188.15711306934483	n/a	1287	71	2750	188.157113069	stim	stop-signal	404	1177176	0.0-19.7-1.7	beast_fmri_test	337	1175082,/,1175762,/,1176442,/,1177122,/	t,t,t,t	<img class = center src='/static/experiments/beast_fmri_test/images/T.png'></img>	89,71	2750.0	test	<img class = center src='/static/experiments/beast_fmri_test/images/redT.png'></img>	go	1950.0	3.0	7.0	go	non-target	T	89,Middle Finger	71,Index Finger	400.0	800.0	2350.0	1950.0	1.0	n/a	800.0	1.0	ITI
47015	500	n/a	-1	-1	500	0.0	fixation	poldrack-single-stim	405	1177920	0.0-19.8-0.8	beast_fmri_test	337	1177800,/	t	<div class = centerbox2><div class = fixation>+</div></div>	none	500.0	test	n/a	n/a	n/a	n/a	n/a	n/a	n/a	n/a	n/a	n/a	n/a	n/a	n/a	n/a	n/a	n/a	n/a	n/a	fixation
46207.045315639349	800.0	n/a	-1	-1	2750	807.954684361	stim	stop-signal	406	1180670	0.0-19.8-1.8	beast_fmri_test	337	1178483,/,1179159,/,1179841,/,1180521,/,1181200,/	t,t,t,t,t	<img class = center src='/static/experiments/beast_fmri_test/images/B.png'></img>	89,71	2750.0	test	<img class = center src='/static/experiments/beast_fmri_test/images/redB.png'></img>	stop	1950.0	3.0	8.0	stop	non-target	B	89,Middle Finger	71,Index Finger	400.0	800.0	2350.0	1950.0	0.0	1.0	800.0	n/a	go_stim
48157.045315639349	1950.0	n/a	-1	-1	2750	807.954684361	stim	stop-signal	406	1180670	0.0-19.8-1.8	beast_fmri_test	337	1178483,/,1179159,/,1179841,/,1180521,/,1181200,/	t,t,t,t,t	<img class = center src='/static/experiments/beast_fmri_test/images/B.png'></img>	89,71	2750.0	test	<img class = center src='/static/experiments/beast_fmri_test/images/redB.png'></img>	stop	1950.0	3.0	8.0	stop	non-target	B	89,Middle Finger	71,Index Finger	400.0	800.0	2350.0	1950.0	0.0	1.0	800.0	n/a	stop_stim
48957.045315639349	807.95468436054523	n/a	-1	-1	2750	807.954684361	stim	stop-signal	406	1180670	0.0-19.8-1.8	beast_fmri_test	337	1178483,/,1179159,/,1179841,/,1180521,/,1181200,/	t,t,t,t,t	<img class = center src='/static/experiments/beast_fmri_test/images/B.png'></img>	89,71	2750.0	test	<img class = center src='/static/experiments/beast_fmri_test/images/redB.png'></img>	stop	1950.0	3.0	8.0	stop	non-target	B	89,Middle Finger	71,Index Finger	400.0	800.0	2350.0	1950.0	0.0	1.0	800.0	n/a	ITI
51127	500	n/a	-1	-1	500	0.0	fixation	poldrack-single-stim	407	1182032	0.0-19.9-0.9	beast_fmri_test	337	1181880,/	t	<div class = centerbox2><div class = fixation>+</div></div>	none	500.0	test	n/a	n/a	n/a	n/a	n/a	n/a	n/a	n/a	n/a	n/a	n/a	n/a	n/a	n/a	n/a	n/a	n/a	n/a	fixation
48741.821667250711	2750	n/a	1043	89	2750	2387.17833275	stim	stop-signal	408	1184784	0.0-19.9-1.9	beast_fmri_test	337	1182558,/,1183238,/,1183917,/,1184598,/,1185278,/,1185957,/,1186636,/	t,t,t,t,t,t,t	<img class = center src='/static/experiments/beast_fmri_test/images/V.png'></img>	89,71	2750.0	test	<img class = center src='/static/experiments/beast_fmri_test/images/redV.png'></img>	go	2350.0	3.0	9.0	go	target	V	89,Middle Finger	71,Index Finger	400.0	850.0	2350.0	1950.0	1.0	n/a	400.0	1.0	go_stim
51491.821667250711	2387.1783327492371	n/a	1043	89	2750	2387.17833275	stim	stop-signal	408	1184784	0.0-19.9-1.9	beast_fmri_test	337	1182558,/,1183238,/,1183917,/,1184598,/,1185278,/,1185957,/,1186636,/	t,t,t,t,t,t,t	<img class = center src='/static/experiments/beast_fmri_test/images/V.png'></img>	89,71	2750.0	test	<img class = center src='/static/experiments/beast_fmri_test/images/redV.png'></img>	go	2350.0	3.0	9.0	go	target	V	89,Middle Finger	71,Index Finger	400.0	850.0	2350.0	1950.0	1.0	n/a	400.0	1.0	ITI
56819	500	n/a	-1	-1	500	0.0	fixation	poldrack-single-stim	409	1187724	0.0-19.10-0.10	beast_fmri_test	337	1187316,/	t	<div class = centerbox2><div class = fixation>+</div></div>	none	500.0	test	n/a	n/a	n/a	n/a	n/a	n/a	n/a	n/a	n/a	n/a	n/a	n/a	n/a	n/a	n/a	n/a	n/a	n/a	fixation
56681.884721129201	2750	n/a	970	89	2750	138.115278871	stim	stop-signal	410	1190475	0.0-19.10-1.10	beast_fmri_test	337	1187996,/,1188676,/,1189356,/,1190035,/	t,t,t,t	<img class = center src='/static/experiments/beast_fmri_test/images/T.png'></img>	89,71	2750.0	test	<img class = center src='/static/experiments/beast_fmri_test/images/redT.png'></img>	go	2350.0	3.0	10.0	go	target	T	89,Middle Finger	71,Index Finger	400.0	850.0	2350.0	1950.0	1.0	n/a	400.0	1.0	go_stim
59431.884721129201	138.11527887070281	n/a	970	89	2750	138.115278871	stim	stop-signal	410	1190475	0.0-19.10-1.10	beast_fmri_test	337	1187996,/,1188676,/,1189356,/,1190035,/	t,t,t,t	<img class = center src='/static/experiments/beast_fmri_test/images/T.png'></img>	89,71	2750.0	test	<img class = center src='/static/experiments/beast_fmri_test/images/redT.png'></img>	go	2350.0	3.0	10.0	go	target	T	89,Middle Finger	71,Index Finger	400.0	850.0	2350.0	1950.0	1.0	n/a	400.0	1.0	ITI
60257	500	n/a	-1	-1	500	0.0	fixation	poldrack-single-stim	411	1191162	0.0-19.11-0.11	beast_fmri_test	337	1190715,/	t	<div class = centerbox2><div class = fixation>+</div></div>	none	500.0	test	n/a	n/a	n/a	n/a	n/a	n/a	n/a	n/a	n/a	n/a	n/a	n/a	n/a	n/a	n/a	n/a	n/a	n/a	fixation
60175.368223403348	2750	n/a	705	89	2750	83.6317765968	stim	stop-signal	412	1193914	0.0-19.11-1.11	beast_fmri_test	337	1191395,/,1192074,/,1192753,/,1193434,/	t,t,t,t	<img class = center src='/static/experiments/beast_fmri_test/images/B.png'></img>	89,71	2750.0	test	<img class = center src='/static/experiments/beast_fmri_test/images/redB.png'></img>	go	2350.0	3.0	11.0	go	target	B	89,Middle Finger	71,Index Finger	400.0	850.0	2350.0	1950.0	1.0	n/a	400.0	1.0	go_stim
62925.368223403348	83.631776596751877	n/a	705	89	2750	83.6317765968	stim	stop-signal	412	1193914	0.0-19.11-1.11	beast_fmri_test	337	1191395,/,1192074,/,1192753,/,1193434,/	t,t,t,t	<img class = center src='/static/experiments/beast_fmri_test/images/B.png'></img>	89,71	2750.0	test	<img class = center src='/static/experiments/beast_fmri_test/images/redB.png'></img>	go	2350.0	3.0	11.0	go	target	B	89,Middle Finger	71,Index Finger	400.0	850.0	2350.0	1950.0	1.0	n/a	400.0	1.0	ITI
63695	500	n/a	-1	-1	500	0.0	fixation	poldrack-single-stim	413	1194600	0.0-19.12-0.12	beast_fmri_test	337	1194115,/	t	<div class = centerbox2><div class = fixation>+</div></div>	none	500.0	test	n/a	n/a	n/a	n/a	n/a	n/a	n/a	n/a	n/a	n/a	n/a	n/a	n/a	n/a	n/a	n/a	n/a	n/a	fixation
60593.841726081213	850.0	n/a	943	71	2750	3102.15827392	stim	stop-signal	414	1197351	0.0-19.12-1.12	beast_fmri_test	337	1194792,/,1195471,/,1196152,/,1196833,/,1197511,/,1198193,/,1198871,/,1199551,/,1200231,/	t,t,t,t,t,t,t,t,t	<img class = center src='/static/experiments/beast_fmri_test/images/B.png'></img>	89,71	2750.0	test	<img class = center src='/static/experiments/beast_fmri_test/images/redB.png'></img>	stop	1900.0	3.0	12.0	stop	non-target	B	89,Middle Finger	71,Index Finger	400.0	850.0	2350.0	1900.0	0.0	0.0	850.0	n/a	go_stim
62493.841726081213	1900.0	n/a	943	71	2750	3102.15827392	stim	stop-signal	414	1197351	0.0-19.12-1.12	beast_fmri_test	337	1194792,/,1195471,/,1196152,/,1196833,/,1197511,/,1198193,/,1198871,/,1199551,/,1200231,/	t,t,t,t,t,t,t,t,t	<img class = center src='/static/experiments/beast_fmri_test/images/B.png'></img>	89,71	2750.0	test	<img class = center src='/static/experiments/beast_fmri_test/images/redB.png'></img>	stop	1900.0	3.0	12.0	stop	non-target	B	89,Middle Finger	71,Index Finger	400.0	850.0	2350.0	1900.0	0.0	0.0	850.0	n/a	stop_stim
63343.841726081213	3102.1582739187156	n/a	943	71	2750	3102.15827392	stim	stop-signal	414	1197351	0.0-19.12-1.12	beast_fmri_test	337	1194792,/,1195471,/,1196152,/,1196833,/,1197511,/,1198193,/,1198871,/,1199551,/,1200231,/	t,t,t,t,t,t,t,t,t	<img class = center src='/static/experiments/beast_fmri_test/images/B.png'></img>	89,71	2750.0	test	<img class = center src='/static/experiments/beast_fmri_test/images/redB.png'></img>	stop	1900.0	3.0	12.0	stop	non-target	B	89,Middle Finger	71,Index Finger	400.0	850.0	2350.0	1900.0	0.0	0.0	850.0	n/a	ITI
70101	500	n/a	-1	-1	500	0.0	fixation	poldrack-single-stim	415	1201006	0.0-19.13-0.13	beast_fmri_test	337	1200910,/	t	<div class = centerbox2><div class = fixation>+</div></div>	none	500.0	test	n/a	n/a	n/a	n/a	n/a	n/a	n/a	n/a	n/a	n/a	n/a	n/a	n/a	n/a	n/a	n/a	n/a	n/a	fixation
68827.078212367836	2750	n/a	925	71	2750	1274.92178763	stim	stop-signal	416	1203757	0.0-19.13-1.13	beast_fmri_test	337	1201589,/,1202269,/,1202950,/,1203629,/,1204309,/,1204989,/	t,t,t,t,t,t	<img class = center src='/static/experiments/beast_fmri_test/images/B.png'></img>	89,71	2750.0	test	<img class = center src='/static/experiments/beast_fmri_test/images/redB.png'></img>	go	1950.0	3.0	13.0	go	non-target	B	89,Middle Finger	71,Index Finger	400.0	800.0	2350.0	1950.0	1.0	n/a	800.0	1.0	go_stim
71577.078212367836	1274.9217876320499	n/a	925	71	2750	1274.92178763	stim	stop-signal	416	1203757	0.0-19.13-1.13	beast_fmri_test	337	1201589,/,1202269,/,1202950,/,1203629,/,1204309,/,1204989,/	t,t,t,t,t,t	<img class = center src='/static/experiments/beast_fmri_test/images/B.png'></img>	89,71	2750.0	test	<img class = center src='/static/experiments/beast_fmri_test/images/redB.png'></img>	go	1950.0	3.0	13.0	go	non-target	B	89,Middle Finger	71,Index Finger	400.0	800.0	2350.0	1950.0	1.0	n/a	800.0	1.0	ITI
74680	500	n/a	-1	-1	500	0.0	fixation	poldrack-single-stim	417	1205585	0.0-19.14-0.14	beast_fmri_test	337	n/a	n/a	<div class = centerbox2><div class = fixation>+</div></div>	none	500.0	test	n/a	n/a	n/a	n/a	n/a	n/a	n/a	n/a	n/a	n/a	n/a	n/a	n/a	n/a	n/a	n/a	n/a	n/a	fixation
74355.795715711312	800.0	n/a	766	71	2750	326.204284289	stim	stop-signal	418	1208337	0.0-19.14-1.14	beast_fmri_test	337	1205669,/,1206348,/,1207026,/,1207706,/,1208386,/	t,t,t,t,t	<img class = center src='/static/experiments/beast_fmri_test/images/P.png'></img>	89,71	2750.0	test	<img class = center src='/static/experiments/beast_fmri_test/images/redP.png'></img>	stop	1950.0	3.0	14.0	stop	non-target	P	89,Middle Finger	71,Index Finger	400.0	800.0	2350.0	1950.0	0.0	0.0	800.0	n/a	go_stim
76305.795715711312	1950.0	n/a	766	71	2750	326.204284289	stim	stop-signal	418	1208337	0.0-19.14-1.14	beast_fmri_test	337	1205669,/,1206348,/,1207026,/,1207706,/,1208386,/	t,t,t,t,t	<img class = center src='/static/experiments/beast_fmri_test/images/P.png'></img>	89,71	2750.0	test	<img class = center src='/static/experiments/beast_fmri_test/images/redP.png'></img>	stop	1950.0	3.0	14.0	stop	non-target	P	89,Middle Finger	71,Index Finger	400.0	800.0	2350.0	1950.0	0.0	0.0	800.0	n/a	stop_stim
77105.795715711312	326.20428428870918	n/a	766	71	2750	326.204284289	stim	stop-signal	418	1208337	0.0-19.14-1.14	beast_fmri_test	337	1205669,/,1206348,/,1207026,/,1207706,/,1208386,/	t,t,t,t,t	<img class = center src='/static/experiments/beast_fmri_test/images/P.png'></img>	89,71	2750.0	test	<img class = center src='/static/experiments/beast_fmri_test/images/redP.png'></img>	stop	1950.0	3.0	14.0	stop	non-target	P	89,Middle Finger	71,Index Finger	400.0	800.0	2350.0	1950.0	0.0	0.0	800.0	n/a	ITI
78306	500	n/a	-1	-1	500	0.0	fixation	poldrack-single-stim	419	1209211	0.0-19.15-0.15	beast_fmri_test	337	1209067,/	t	<div class = centerbox2><div class = fixation>+</div></div>	none	500.0	test	n/a	n/a	n/a	n/a	n/a	n/a	n/a	n/a	n/a	n/a	n/a	n/a	n/a	n/a	n/a	n/a	n/a	n/a	fixation
77898.147993600927	750.0	n/a	-1	-1	2750	409.852006399	stim	stop-signal	420	1211963	0.0-19.15-1.15	beast_fmri_test	337	1209746,/,1210426,/,1211106,/,1211786,/	t,t,t,t	<img class = center src='/static/experiments/beast_fmri_test/images/D.png'></img>	89,71	2750.0	test	<img class = center src='/static/experiments/beast_fmri_test/images/redD.png'></img>	stop	2000.0	3.0	15.0	stop	non-target	D	89,Middle Finger	71,Index Finger	400.0	750.0	2350.0	2000.0	0.0	1.0	750.0	n/a	go_stim
79898.147993600927	2000.0	n/a	-1	-1	2750	409.852006399	stim	stop-signal	420	1211963	0.0-19.15-1.15	beast_fmri_test	337	1209746,/,1210426,/,1211106,/,1211786,/	t,t,t,t	<img class = center src='/static/experiments/beast_fmri_test/images/D.png'></img>	89,71	2750.0	test	<img class = center src='/static/experiments/beast_fmri_test/images/redD.png'></img>	stop	2000.0	3.0	15.0	stop	non-target	D	89,Middle Finger	71,Index Finger	400.0	750.0	2350.0	2000.0	0.0	1.0	750.0	n/a	stop_stim
80648.147993600927	409.85200639901063	n/a	-1	-1	2750	409.852006399	stim	stop-signal	420	1211963	0.0-19.15-1.15	beast_fmri_test	337	1209746,/,1210426,/,1211106,/,1211786,/	t,t,t,t	<img class = center src='/static/experiments/beast_fmri_test/images/D.png'></img>	89,71	2750.0	test	<img class = center src='/static/experiments/beast_fmri_test/images/redD.png'></img>	stop	2000.0	3.0	15.0	stop	non-target	D	89,Middle Finger	71,Index Finger	400.0	750.0	2350.0	2000.0	0.0	1.0	750.0	n/a	ITI
82018	500	n/a	-1	-1	500	0.0	fixation	poldrack-single-stim	421	1212923	0.0-19.16-0.16	beast_fmri_test	337	1212465,/	t	<div class = centerbox2><div class = fixation>+</div></div>	none	500.0	test	n/a	n/a	n/a	n/a	n/a	n/a	n/a	n/a	n/a	n/a	n/a	n/a	n/a	n/a	n/a	n/a	n/a	n/a	fixation
81117.964889543131	2750	n/a	1186	89	2750	902.035110457	stim	stop-signal	422	1215675	0.0-19.16-1.16	beast_fmri_test	337	1213145,/,1213825,/,1214503,/,1215183,/,1215863,/,1216542,/	t,t,t,t,t,t	<img class = center src='/static/experiments/beast_fmri_test/images/B.png'></img>	89,71	2750.0	test	<img class = center src='/static/experiments/beast_fmri_test/images/redB.png'></img>	go	2350.0	3.0	16.0	go	target	B	89,Middle Finger	71,Index Finger	400.0	800.0	2350.0	2000.0	1.0	n/a	400.0	1.0	go_stim
83867.964889543131	902.03511045678738	n/a	1186	89	2750	902.035110457	stim	stop-signal	422	1215675	0.0-19.16-1.16	beast_fmri_test	337	1213145,/,1213825,/,1214503,/,1215183,/,1215863,/,1216542,/	t,t,t,t,t,t	<img class = center src='/static/experiments/beast_fmri_test/images/B.png'></img>	89,71	2750.0	test	<img class = center src='/static/experiments/beast_fmri_test/images/redB.png'></img>	go	2350.0	3.0	16.0	go	target	B	89,Middle Finger	71,Index Finger	400.0	800.0	2350.0	2000.0	1.0	n/a	400.0	1.0	ITI
86216	500	n/a	-1	-1	500	0.0	fixation	poldrack-single-stim	423	1217121	0.0-19.17-0.17	beast_fmri_test	337	n/a	n/a	<div class = centerbox2><div class = fixation>+</div></div>	none	500.0	test	n/a	n/a	n/a	n/a	n/a	n/a	n/a	n/a	n/a	n/a	n/a	n/a	n/a	n/a	n/a	n/a	n/a	n/a	fixation
85440.228819455253	2750	n/a	1090	71	2750	777.771180545	stim	stop-signal	424	1219873	0.0-19.17-1.17	beast_fmri_test	337	1217223,/,1217903,/,1218582,/,1219262,/,1219940,/,1220621,/	t,t,t,t,t,t	<img class = center src='/static/experiments/beast_fmri_test/images/B.png'></img>	89,71	2750.0	test	<img class = center src='/static/experiments/beast_fmri_test/images/redB.png'></img>	go	1950.0	3.0	17.0	go	non-target	B	89,Middle Finger	71,Index Finger	400.0	800.0	2350.0	1950.0	1.0	n/a	800.0	1.0	go_stim
88190.228819455253	777.771180544711	n/a	1090	71	2750	777.771180545	stim	stop-signal	424	1219873	0.0-19.17-1.17	beast_fmri_test	337	1217223,/,1217903,/,1218582,/,1219262,/,1219940,/,1220621,/	t,t,t,t,t,t	<img class = center src='/static/experiments/beast_fmri_test/images/B.png'></img>	89,71	2750.0	test	<img class = center src='/static/experiments/beast_fmri_test/images/redB.png'></img>	go	1950.0	3.0	17.0	go	non-target	B	89,Middle Finger	71,Index Finger	400.0	800.0	2350.0	1950.0	1.0	n/a	800.0	1.0	ITI
90287	500	n/a	-1	-1	500	0.0	fixation	poldrack-single-stim	425	1221192	0.0-19.18-0.18	beast_fmri_test	337	n/a	n/a	<div class = centerbox2><div class = fixation>+</div></div>	none	500.0	test	n/a	n/a	n/a	n/a	n/a	n/a	n/a	n/a	n/a	n/a	n/a	n/a	n/a	n/a	n/a	n/a	n/a	n/a	fixation
90239.898075481877	2750	n/a	1272	71	2750	49.1019245182	stim	stop-signal	426	1223944	0.0-19.18-1.18	beast_fmri_test	337	1221301,/,1221981,/,1222659,/,1223341,/	t,t,t,t	<img class = center src='/static/experiments/beast_fmri_test/images/P.png'></img>	89,71	2750.0	test	<img class = center src='/static/experiments/beast_fmri_test/images/redP.png'></img>	go	1950.0	3.0	18.0	go	non-target	P	89,Middle Finger	71,Index Finger	400.0	800.0	2350.0	1950.0	1.0	n/a	800.0	1.0	go_stim
92989.898075481877	49.101924518152209	n/a	1272	71	2750	49.1019245182	stim	stop-signal	426	1223944	0.0-19.18-1.18	beast_fmri_test	337	1221301,/,1221981,/,1222659,/,1223341,/	t,t,t,t	<img class = center src='/static/experiments/beast_fmri_test/images/P.png'></img>	89,71	2750.0	test	<img class = center src='/static/experiments/beast_fmri_test/images/redP.png'></img>	go	1950.0	3.0	18.0	go	non-target	P	89,Middle Finger	71,Index Finger	400.0	800.0	2350.0	1950.0	1.0	n/a	800.0	1.0	ITI
93637	500	n/a	-1	-1	500	0.0	fixation	poldrack-single-stim	427	1224542	0.0-19.19-0.19	beast_fmri_test	337	1224040,/	t	<div class = centerbox2><div class = fixation>+</div></div>	none	500.0	test	n/a	n/a	n/a	n/a	n/a	n/a	n/a	n/a	n/a	n/a	n/a	n/a	n/a	n/a	n/a	n/a	n/a	n/a	fixation
90069.288586632116	400.0	n/a	-1	-1	2750	3568.71141337	stim	stop-signal	428	1227293	0.0-19.19-1.19	beast_fmri_test	337	1224700,/,1225379,/,1226060,/,1226739,/,1227441,/,1228098,/,1228778,/,1229457,/,1230137,/,1230817,/	t,t,t,t,t,t,t,t,t,t	<img class = center src='/static/experiments/beast_fmri_test/images/B.png'></img>	89,71	2750.0	test	<img class = center src='/static/experiments/beast_fmri_test/images/redB.png'></img>	stop	2350.0	3.0	19.0	stop	target	B	89,Middle Finger	71,Index Finger	400.0	800.0	2350.0	1950.0	0.0	1.0	400.0	n/a	go_stim
92419.288586632116	2350.0	n/a	-1	-1	2750	3568.71141337	stim	stop-signal	428	1227293	0.0-19.19-1.19	beast_fmri_test	337	1224700,/,1225379,/,1226060,/,1226739,/,1227441,/,1228098,/,1228778,/,1229457,/,1230137,/,1230817,/	t,t,t,t,t,t,t,t,t,t	<img class = center src='/static/experiments/beast_fmri_test/images/B.png'></img>	89,71	2750.0	test	<img class = center src='/static/experiments/beast_fmri_test/images/redB.png'></img>	stop	2350.0	3.0	19.0	stop	target	B	89,Middle Finger	71,Index Finger	400.0	800.0	2350.0	1950.0	0.0	1.0	400.0	n/a	stop_stim
92819.288586632116	3568.7114133679547	n/a	-1	-1	2750	3568.71141337	stim	stop-signal	428	1227293	0.0-19.19-1.19	beast_fmri_test	337	1224700,/,1225379,/,1226060,/,1226739,/,1227441,/,1228098,/,1228778,/,1229457,/,1230137,/,1230817,/	t,t,t,t,t,t,t,t,t,t	<img class = center src='/static/experiments/beast_fmri_test/images/B.png'></img>	89,71	2750.0	test	<img class = center src='/static/experiments/beast_fmri_test/images/redB.png'></img>	stop	2350.0	3.0	19.0	stop	target	B	89,Middle Finger	71,Index Finger	400.0	800.0	2350.0	1950.0	0.0	1.0	400.0	n/a	ITI
100499	500	n/a	-1	-1	500	0.0	fixation	poldrack-single-stim	429	1231404	0.0-19.20-0.20	beast_fmri_test	337	n/a	n/a	<div class = centerbox2><div class = fixation>+</div></div>	none	500.0	test	n/a	n/a	n/a	n/a	n/a	n/a	n/a	n/a	n/a	n/a	n/a	n/a	n/a	n/a	n/a	n/a	n/a	n/a	fixation
99587.530131819192	2750	n/a	1415	71	2750	913.469868181	stim	stop-signal	430	1234156	0.0-19.20-1.20	beast_fmri_test	337	1231496,/,1232177,/,1232855,/,1233535,/,1234214,/,1234895,/	t,t,t,t,t,t	<img class = center src='/static/experiments/beast_fmri_test/images/B.png'></img>	89,71	2750.0	test	<img class = center src='/static/experiments/beast_fmri_test/images/redB.png'></img>	go	2300.0	3.0	20.0	go	target	B	89,Middle Finger	71,Index Finger	450.0	800.0	2300.0	1950.0	0.0	n/a	450.0	0.0	go_stim
102337.53013181919	913.46986818079267	n/a	1415	71	2750	913.469868181	stim	stop-signal	430	1234156	0.0-19.20-1.20	beast_fmri_test	337	1231496,/,1232177,/,1232855,/,1233535,/,1234214,/,1234895,/	t,t,t,t,t,t	<img class = center src='/static/experiments/beast_fmri_test/images/B.png'></img>	89,71	2750.0	test	<img class = center src='/static/experiments/beast_fmri_test/images/redB.png'></img>	go	2300.0	3.0	20.0	go	target	B	89,Middle Finger	71,Index Finger	450.0	800.0	2300.0	1950.0	0.0	n/a	450.0	0.0	ITI
104711	500	n/a	-1	-1	500	0.0	fixation	poldrack-single-stim	431	1235616	0.0-19.21-0.21	beast_fmri_test	337	1235573,/	t	<div class = centerbox2><div class = fixation>+</div></div>	none	500.0	test	n/a	n/a	n/a	n/a	n/a	n/a	n/a	n/a	n/a	n/a	n/a	n/a	n/a	n/a	n/a	n/a	n/a	n/a	fixation
104670.24306818144	2750	n/a	1163	71	2750	42.7569318186	stim	stop-signal	432	1238368	0.0-19.21-1.21	beast_fmri_test	337	1236253,/,1236934,/,1237612,/,1238293,/	t,t,t,t	<img class = center src='/static/experiments/beast_fmri_test/images/D.png'></img>	89,71	2750.0	test	<img class = center src='/static/experiments/beast_fmri_test/images/redD.png'></img>	go	1950.0	3.0	21.0	go	non-target	D	89,Middle Finger	71,Index Finger	450.0	800.0	2300.0	1950.0	1.0	n/a	800.0	1.0	go_stim
107420.24306818144	42.756931818550562	n/a	1163	71	2750	42.7569318186	stim	stop-signal	432	1238368	0.0-19.21-1.21	beast_fmri_test	337	1236253,/,1236934,/,1237612,/,1238293,/	t,t,t,t	<img class = center src='/static/experiments/beast_fmri_test/images/D.png'></img>	89,71	2750.0	test	<img class = center src='/static/experiments/beast_fmri_test/images/redD.png'></img>	go	1950.0	3.0	21.0	go	non-target	D	89,Middle Finger	71,Index Finger	450.0	800.0	2300.0	1950.0	1.0	n/a	800.0	1.0	ITI
108055	500	n/a	-1	-1	500	0.0	fixation	poldrack-single-stim	433	1238960	0.0-19.22-0.22	beast_fmri_test	337	n/a	n/a	<div class = centerbox2><div class = fixation>+</div></div>	none	500.0	test	n/a	n/a	n/a	n/a	n/a	n/a	n/a	n/a	n/a	n/a	n/a	n/a	n/a	n/a	n/a	n/a	n/a	n/a	fixation
106174.06683450565	2750	n/a	819	89	2750	1881.93316549	stim	stop-signal	434	1241711	0.0-19.22-1.22	beast_fmri_test	337	1238972,/,1239652,/,1240333,/,1241012,/,1241691,/,1242371,/,1243050,/	t,t,t,t,t,t,t	<img class = center src='/static/experiments/beast_fmri_test/images/B.png'></img>	89,71	2750.0	test	<img class = center src='/static/experiments/beast_fmri_test/images/redB.png'></img>	go	2300.0	3.0	22.0	go	target	B	89,Middle Finger	71,Index Finger	450.0	800.0	2300.0	1950.0	1.0	n/a	450.0	1.0	go_stim
108924.06683450565	1881.9331654944344	n/a	819	89	2750	1881.93316549	stim	stop-signal	434	1241711	0.0-19.22-1.22	beast_fmri_test	337	1238972,/,1239652,/,1240333,/,1241012,/,1241691,/,1242371,/,1243050,/	t,t,t,t,t,t,t	<img class = center src='/static/experiments/beast_fmri_test/images/B.png'></img>	89,71	2750.0	test	<img class = center src='/static/experiments/beast_fmri_test/images/redB.png'></img>	go	2300.0	3.0	22.0	go	target	B	89,Middle Finger	71,Index Finger	450.0	800.0	2300.0	1950.0	1.0	n/a	450.0	1.0	ITI
113232	500	n/a	-1	-1	500	0.0	fixation	poldrack-single-stim	435	1244137	0.0-19.23-0.23	beast_fmri_test	337	1243730,/	t	<div class = centerbox2><div class = fixation>+</div></div>	none	500.0	test	n/a	n/a	n/a	n/a	n/a	n/a	n/a	n/a	n/a	n/a	n/a	n/a	n/a	n/a	n/a	n/a	n/a	n/a	fixation
112826.64944343339	2750	n/a	839	71	2750	406.350556567	stim	stop-signal	436	1246888	0.0-19.23-1.23	beast_fmri_test	337	1244410,/,1245090,/,1245769,/,1246450,/,1247129,/	t,t,t,t,t	<img class = center src='/static/experiments/beast_fmri_test/images/V.png'></img>	89,71	2750.0	test	<img class = center src='/static/experiments/beast_fmri_test/images/redV.png'></img>	go	1950.0	3.0	23.0	go	non-target	V	89,Middle Finger	71,Index Finger	450.0	800.0	2300.0	1950.0	1.0	n/a	800.0	1.0	go_stim
115576.64944343339	406.35055656655919	n/a	839	71	2750	406.350556567	stim	stop-signal	436	1246888	0.0-19.23-1.23	beast_fmri_test	337	1244410,/,1245090,/,1245769,/,1246450,/,1247129,/	t,t,t,t,t	<img class = center src='/static/experiments/beast_fmri_test/images/V.png'></img>	89,71	2750.0	test	<img class = center src='/static/experiments/beast_fmri_test/images/redV.png'></img>	go	1950.0	3.0	23.0	go	non-target	V	89,Middle Finger	71,Index Finger	450.0	800.0	2300.0	1950.0	1.0	n/a	800.0	1.0	ITI
116940	500	n/a	-1	-1	500	0.0	fixation	poldrack-single-stim	437	1247845	0.0-19.24-0.24	beast_fmri_test	337	1247808,/	t	<div class = centerbox2><div class = fixation>+</div></div>	none	500.0	test	n/a	n/a	n/a	n/a	n/a	n/a	n/a	n/a	n/a	n/a	n/a	n/a	n/a	n/a	n/a	n/a	n/a	n/a	fixation
113053.24285345362	2750	n/a	1562	89	2750	3888.75714655	stim	stop-signal	438	1250597	0.0-19.24-1.24	beast_fmri_test	337	1248488,/,1249169,/,1249848,/,1250526,/,1251207,/,1251888,/,1252567,/,1253247,/,1253926,/	t,t,t,t,t,t,t,t,t	<img class = center src='/static/experiments/beast_fmri_test/images/B.png'></img>	89,71	2750.0	test	<img class = center src='/static/experiments/beast_fmri_test/images/redB.png'></img>	go	1950.0	3.0	24.0	go	non-target	B	89,Middle Finger	71,Index Finger	450.0	800.0	2300.0	1950.0	0.0	n/a	800.0	0.0	go_stim
115803.24285345362	3888.7571465462956	n/a	1562	89	2750	3888.75714655	stim	stop-signal	438	1250597	0.0-19.24-1.24	beast_fmri_test	337	1248488,/,1249169,/,1249848,/,1250526,/,1251207,/,1251888,/,1252567,/,1253247,/,1253926,/	t,t,t,t,t,t,t,t,t	<img class = center src='/static/experiments/beast_fmri_test/images/B.png'></img>	89,71	2750.0	test	<img class = center src='/static/experiments/beast_fmri_test/images/redB.png'></img>	go	1950.0	3.0	24.0	go	non-target	B	89,Middle Finger	71,Index Finger	450.0	800.0	2300.0	1950.0	0.0	n/a	800.0	0.0	ITI
124125	500	n/a	-1	-1	500	0.0	fixation	poldrack-single-stim	439	1255030	0.0-19.25-0.25	beast_fmri_test	337	1254605,/	t	<div class = centerbox2><div class = fixation>+</div></div>	none	500.0	test	n/a	n/a	n/a	n/a	n/a	n/a	n/a	n/a	n/a	n/a	n/a	n/a	n/a	n/a	n/a	n/a	n/a	n/a	fixation
123890.42043026956	800.0	n/a	934	71	2750	236.57956973	stim	stop-signal	440	1257782	0.0-19.25-1.25	beast_fmri_test	337	1255286,/,1255965,/,1256644,/,1257324,/,1258004,/	t,t,t,t,t	<img class = center src='/static/experiments/beast_fmri_test/images/T.png'></img>	89,71	2750.0	test	<img class = center src='/static/experiments/beast_fmri_test/images/redT.png'></img>	stop	1950.0	3.0	25.0	stop	non-target	T	89,Middle Finger	71,Index Finger	450.0	800.0	2300.0	1950.0	0.0	0.0	800.0	n/a	go_stim
125840.42043026956	1950.0	n/a	934	71	2750	236.57956973	stim	stop-signal	440	1257782	0.0-19.25-1.25	beast_fmri_test	337	1255286,/,1255965,/,1256644,/,1257324,/,1258004,/	t,t,t,t,t	<img class = center src='/static/experiments/beast_fmri_test/images/T.png'></img>	89,71	2750.0	test	<img class = center src='/static/experiments/beast_fmri_test/images/redT.png'></img>	stop	1950.0	3.0	25.0	stop	non-target	T	89,Middle Finger	71,Index Finger	450.0	800.0	2300.0	1950.0	0.0	0.0	800.0	n/a	stop_stim
126640.42043026956	236.57956973040484	n/a	934	71	2750	236.57956973	stim	stop-signal	440	1257782	0.0-19.25-1.25	beast_fmri_test	337	1255286,/,1255965,/,1256644,/,1257324,/,1258004,/	t,t,t,t,t	<img class = center src='/static/experiments/beast_fmri_test/images/T.png'></img>	89,71	2750.0	test	<img class = center src='/static/experiments/beast_fmri_test/images/redT.png'></img>	stop	1950.0	3.0	25.0	stop	non-target	T	89,Middle Finger	71,Index Finger	450.0	800.0	2300.0	1950.0	0.0	0.0	800.0	n/a	ITI
127667	500	n/a	-1	-1	500	0.0	fixation	poldrack-single-stim	441	1258572	0.0-19.26-0.26	beast_fmri_test	337	n/a	n/a	<div class = centerbox2><div class = fixation>+</div></div>	none	500.0	test	n/a	n/a	n/a	n/a	n/a	n/a	n/a	n/a	n/a	n/a	n/a	n/a	n/a	n/a	n/a	n/a	n/a	n/a	fixation
126601.40699731279	750.0	n/a	-1	-1	2750	1067.59300269	stim	stop-signal	442	1261324	0.0-19.26-1.26	beast_fmri_test	337	1258684,/,1259364,/,1260044,/,1260723,/,1261403,/,1262083,/	t,t,t,t,t,t	<img class = center src='/static/experiments/beast_fmri_test/images/D.png'></img>	89,71	2750.0	test	<img class = center src='/static/experiments/beast_fmri_test/images/redD.png'></img>	stop	2000.0	3.0	26.0	stop	non-target	D	89,Middle Finger	71,Index Finger	450.0	750.0	2300.0	2000.0	0.0	1.0	750.0	n/a	go_stim
128601.40699731279	2000.0	n/a	-1	-1	2750	1067.59300269	stim	stop-signal	442	1261324	0.0-19.26-1.26	beast_fmri_test	337	1258684,/,1259364,/,1260044,/,1260723,/,1261403,/,1262083,/	t,t,t,t,t,t	<img class = center src='/static/experiments/beast_fmri_test/images/D.png'></img>	89,71	2750.0	test	<img class = center src='/static/experiments/beast_fmri_test/images/redD.png'></img>	stop	2000.0	3.0	26.0	stop	non-target	D	89,Middle Finger	71,Index Finger	450.0	750.0	2300.0	2000.0	0.0	1.0	750.0	n/a	stop_stim
129351.40699731279	1067.5930026871629	n/a	-1	-1	2750	1067.59300269	stim	stop-signal	442	1261324	0.0-19.26-1.26	beast_fmri_test	337	1258684,/,1259364,/,1260044,/,1260723,/,1261403,/,1262083,/	t,t,t,t,t,t	<img class = center src='/static/experiments/beast_fmri_test/images/D.png'></img>	89,71	2750.0	test	<img class = center src='/static/experiments/beast_fmri_test/images/redD.png'></img>	stop	2000.0	3.0	26.0	stop	non-target	D	89,Middle Finger	71,Index Finger	450.0	750.0	2300.0	2000.0	0.0	1.0	750.0	n/a	ITI
132032	500	n/a	-1	-1	500	0.0	fixation	poldrack-single-stim	443	1262937	0.0-19.27-0.27	beast_fmri_test	337	1262761,/	t	<div class = centerbox2><div class = fixation>+</div></div>	none	500.0	test	n/a	n/a	n/a	n/a	n/a	n/a	n/a	n/a	n/a	n/a	n/a	n/a	n/a	n/a	n/a	n/a	n/a	n/a	fixation
131347.07328529609	800.0	n/a	-1	-1	2750	685.926714704	stim	stop-signal	444	1265688	0.0-19.27-1.27	beast_fmri_test	337	1263441,/,1264121,/,1264801,/,1265481,/,1266161,/	t,t,t,t,t	<img class = center src='/static/experiments/beast_fmri_test/images/D.png'></img>	89,71	2750.0	test	<img class = center src='/static/experiments/beast_fmri_test/images/redD.png'></img>	stop	1950.0	3.0	27.0	stop	non-target	D	89,Middle Finger	71,Index Finger	450.0	800.0	2300.0	1950.0	0.0	1.0	800.0	n/a	go_stim
133297.07328529609	1950.0	n/a	-1	-1	2750	685.926714704	stim	stop-signal	444	1265688	0.0-19.27-1.27	beast_fmri_test	337	1263441,/,1264121,/,1264801,/,1265481,/,1266161,/	t,t,t,t,t	<img class = center src='/static/experiments/beast_fmri_test/images/D.png'></img>	89,71	2750.0	test	<img class = center src='/static/experiments/beast_fmri_test/images/redD.png'></img>	stop	1950.0	3.0	27.0	stop	non-target	D	89,Middle Finger	71,Index Finger	450.0	800.0	2300.0	1950.0	0.0	1.0	800.0	n/a	stop_stim
134097.07328529609	685.92671470390064	n/a	-1	-1	2750	685.926714704	stim	stop-signal	444	1265688	0.0-19.27-1.27	beast_fmri_test	337	1263441,/,1264121,/,1264801,/,1265481,/,1266161,/	t,t,t,t,t	<img class = center src='/static/experiments/beast_fmri_test/images/D.png'></img>	89,71	2750.0	test	<img class = center src='/static/experiments/beast_fmri_test/images/redD.png'></img>	stop	1950.0	3.0	27.0	stop	non-target	D	89,Middle Finger	71,Index Finger	450.0	800.0	2300.0	1950.0	0.0	1.0	800.0	n/a	ITI
136016	500	n/a	-1	-1	500	0.0	fixation	poldrack-single-stim	445	1266921	0.0-19.28-0.28	beast_fmri_test	337	1266840,/	t	<div class = centerbox2><div class = fixation>+</div></div>	none	500.0	test	n/a	n/a	n/a	n/a	n/a	n/a	n/a	n/a	n/a	n/a	n/a	n/a	n/a	n/a	n/a	n/a	n/a	n/a	fixation
135211.85172379878	2750	n/a	745	71	2750	805.148276201	stim	stop-signal	446	1269672	0.0-19.28-1.28	beast_fmri_test	337	1267520,/,1268198,/,1268878,/,1269559,/,1270239,/	t,t,t,t,t	<img class = center src='/static/experiments/beast_fmri_test/images/B.png'></img>	89,71	2750.0	test	<img class = center src='/static/experiments/beast_fmri_test/images/redB.png'></img>	go	1900.0	3.0	28.0	go	non-target	B	89,Middle Finger	71,Index Finger	450.0	850.0	2300.0	1900.0	1.0	n/a	850.0	1.0	go_stim
137961.85172379878	805.14827620123026	n/a	745	71	2750	805.148276201	stim	stop-signal	446	1269672	0.0-19.28-1.28	beast_fmri_test	337	1267520,/,1268198,/,1268878,/,1269559,/,1270239,/	t,t,t,t,t	<img class = center src='/static/experiments/beast_fmri_test/images/B.png'></img>	89,71	2750.0	test	<img class = center src='/static/experiments/beast_fmri_test/images/redB.png'></img>	go	1900.0	3.0	28.0	go	non-target	B	89,Middle Finger	71,Index Finger	450.0	850.0	2300.0	1900.0	1.0	n/a	850.0	1.0	ITI
140119	500	n/a	-1	-1	500	0.0	fixation	poldrack-single-stim	447	1271024	0.0-19.29-0.29	beast_fmri_test	337	1270917,/	t	<div class = centerbox2><div class = fixation>+</div></div>	none	500.0	test	n/a	n/a	n/a	n/a	n/a	n/a	n/a	n/a	n/a	n/a	n/a	n/a	n/a	n/a	n/a	n/a	n/a	n/a	fixation
139990.11453268095	450.0	n/a	-1	-1	2750	130.885467319	stim	stop-signal	448	1273776	0.0-19.29-1.29	beast_fmri_test	337	1271597,/,1272276,/,1272957,/,1273635,/	t,t,t,t	<img class = center src='/static/experiments/beast_fmri_test/images/D.png'></img>	89,71	2750.0	test	<img class = center src='/static/experiments/beast_fmri_test/images/redD.png'></img>	stop	2300.0	3.0	29.0	stop	target	D	89,Middle Finger	71,Index Finger	450.0	850.0	2300.0	1900.0	0.0	1.0	450.0	n/a	go_stim
142290.11453268095	2300.0	n/a	-1	-1	2750	130.885467319	stim	stop-signal	448	1273776	0.0-19.29-1.29	beast_fmri_test	337	1271597,/,1272276,/,1272957,/,1273635,/	t,t,t,t	<img class = center src='/static/experiments/beast_fmri_test/images/D.png'></img>	89,71	2750.0	test	<img class = center src='/static/experiments/beast_fmri_test/images/redD.png'></img>	stop	2300.0	3.0	29.0	stop	target	D	89,Middle Finger	71,Index Finger	450.0	850.0	2300.0	1900.0	0.0	1.0	450.0	n/a	stop_stim
142740.11453268095	130.88546731915	n/a	-1	-1	2750	130.885467319	stim	stop-signal	448	1273776	0.0-19.29-1.29	beast_fmri_test	337	1271597,/,1272276,/,1272957,/,1273635,/	t,t,t,t	<img class = center src='/static/experiments/beast_fmri_test/images/D.png'></img>	89,71	2750.0	test	<img class = center src='/static/experiments/beast_fmri_test/images/redD.png'></img>	stop	2300.0	3.0	29.0	stop	target	D	89,Middle Finger	71,Index Finger	450.0	850.0	2300.0	1900.0	0.0	1.0	450.0	n/a	ITI
143551	500	n/a	-1	-1	500	0.0	fixation	poldrack-single-stim	449	1274456	0.0-19.30-0.30	beast_fmri_test	337	1274317,/	t	<div class = centerbox2><div class = fixation>+</div></div>	none	500.0	test	n/a	n/a	n/a	n/a	n/a	n/a	n/a	n/a	n/a	n/a	n/a	n/a	n/a	n/a	n/a	n/a	n/a	n/a	fixation
142569.52953860536	2750	n/a	2519	71	2750	983.470461395	stim	stop-signal	450	1277208	0.0-19.30-1.30	beast_fmri_test	337	1274996,/,1275675,/,1276357,/,1277034,/,1277714,/	t,t,t,t,t	<img class = center src='/static/experiments/beast_fmri_test/images/V.png'></img>	89,71	2750.0	test	<img class = center src='/static/experiments/beast_fmri_test/images/redV.png'></img>	go	1900.0	3.0	30.0	go	non-target	V	89,Middle Finger	71,Index Finger	500.0	850.0	2300.0	1900.0	1.0	n/a	850.0	1.0	go_stim
145319.52953860536	983.47046139457029	n/a	2519	71	2750	983.470461395	stim	stop-signal	450	1277208	0.0-19.30-1.30	beast_fmri_test	337	1274996,/,1275675,/,1276357,/,1277034,/,1277714,/	t,t,t,t,t	<img class = center src='/static/experiments/beast_fmri_test/images/V.png'></img>	89,71	2750.0	test	<img class = center src='/static/experiments/beast_fmri_test/images/redV.png'></img>	go	1900.0	3.0	30.0	go	non-target	V	89,Middle Finger	71,Index Finger	500.0	850.0	2300.0	1900.0	1.0	n/a	850.0	1.0	ITI
147844	500	n/a	-1	-1	500	0.0	fixation	poldrack-single-stim	451	1278749	0.0-19.31-0.31	beast_fmri_test	337	1278395,/	t	<div class = centerbox2><div class = fixation>+</div></div>	none	500.0	test	n/a	n/a	n/a	n/a	n/a	n/a	n/a	n/a	n/a	n/a	n/a	n/a	n/a	n/a	n/a	n/a	n/a	n/a	fixation
147172.19390188041	850.0	n/a	-1	-1	2750	673.80609812	stim	stop-signal	452	1281501	0.0-19.31-1.31	beast_fmri_test	337	1279075,/,1279754,/,1280434,/,1281113,/,1281794,/	t,t,t,t,t	<img class = center src='/static/experiments/beast_fmri_test/images/P.png'></img>	89,71	2750.0	test	<img class = center src='/static/experiments/beast_fmri_test/images/redP.png'></img>	stop	1900.0	3.0	31.0	stop	non-target	P	89,Middle Finger	71,Index Finger	500.0	850.0	2300.0	1900.0	0.0	1.0	850.0	n/a	go_stim
149072.19390188041	1900.0	n/a	-1	-1	2750	673.80609812	stim	stop-signal	452	1281501	0.0-19.31-1.31	beast_fmri_test	337	1279075,/,1279754,/,1280434,/,1281113,/,1281794,/	t,t,t,t,t	<img class = center src='/static/experiments/beast_fmri_test/images/P.png'></img>	89,71	2750.0	test	<img class = center src='/static/experiments/beast_fmri_test/images/redP.png'></img>	stop	1900.0	3.0	31.0	stop	non-target	P	89,Middle Finger	71,Index Finger	500.0	850.0	2300.0	1900.0	0.0	1.0	850.0	n/a	stop_stim
149922.19390188041	673.80609811952127	n/a	-1	-1	2750	673.80609812	stim	stop-signal	452	1281501	0.0-19.31-1.31	beast_fmri_test	337	1279075,/,1279754,/,1280434,/,1281113,/,1281794,/	t,t,t,t,t	<img class = center src='/static/experiments/beast_fmri_test/images/P.png'></img>	89,71	2750.0	test	<img class = center src='/static/experiments/beast_fmri_test/images/redP.png'></img>	stop	1900.0	3.0	31.0	stop	non-target	P	89,Middle Finger	71,Index Finger	500.0	850.0	2300.0	1900.0	0.0	1.0	850.0	n/a	ITI
151824	500	n/a	-1	-1	500	0.0	fixation	poldrack-single-stim	453	1282729	0.0-19.32-0.32	beast_fmri_test	337	1282474,/	t	<div class = centerbox2><div class = fixation>+</div></div>	none	500.0	test	n/a	n/a	n/a	n/a	n/a	n/a	n/a	n/a	n/a	n/a	n/a	n/a	n/a	n/a	n/a	n/a	n/a	n/a	fixation
151730.82687194203	2750	n/a	1921	71	2750	96.173128058	stim	stop-signal	454	1285482	0.0-19.32-1.32	beast_fmri_test	337	1283153,/,1283833,/,1284513,/,1285192,/	t,t,t,t	<img class = center src='/static/experiments/beast_fmri_test/images/V.png'></img>	89,71	2750.0	test	<img class = center src='/static/experiments/beast_fmri_test/images/redV.png'></img>	go	1850.0	3.0	32.0	go	non-target	V	89,Middle Finger	71,Index Finger	500.0	900.0	2300.0	1850.0	1.0	n/a	900.0	1.0	go_stim
154480.82687194203	96.173128057970416	n/a	1921	71	2750	96.173128058	stim	stop-signal	454	1285482	0.0-19.32-1.32	beast_fmri_test	337	1283153,/,1283833,/,1284513,/,1285192,/	t,t,t,t	<img class = center src='/static/experiments/beast_fmri_test/images/V.png'></img>	89,71	2750.0	test	<img class = center src='/static/experiments/beast_fmri_test/images/redV.png'></img>	go	1850.0	3.0	32.0	go	non-target	V	89,Middle Finger	71,Index Finger	500.0	900.0	2300.0	1850.0	1.0	n/a	900.0	1.0	ITI
155236	500	n/a	-1	-1	500	0.0	fixation	poldrack-single-stim	455	1286141	0.0-19.33-0.33	beast_fmri_test	337	1285872,/	t	<div class = centerbox2><div class = fixation>+</div></div>	none	500.0	test	n/a	n/a	n/a	n/a	n/a	n/a	n/a	n/a	n/a	n/a	n/a	n/a	n/a	n/a	n/a	n/a	n/a	n/a	fixation
154050.43823229941	900.0	n/a	982	71	2750	1187.5617677	stim	stop-signal	456	1288893	0.0-19.33-1.33	beast_fmri_test	337	1286551,/,1287231,/,1287911,/,1288590,/,1289269,/,1289949,/	t,t,t,t,t,t	<img class = center src='/static/experiments/beast_fmri_test/images/P.png'></img>	89,71	2750.0	test	<img class = center src='/static/experiments/beast_fmri_test/images/redP.png'></img>	stop	1850.0	3.0	33.0	stop	non-target	P	89,Middle Finger	71,Index Finger	500.0	900.0	2300.0	1850.0	0.0	0.0	900.0	n/a	go_stim
155900.43823229941	1850.0	n/a	982	71	2750	1187.5617677	stim	stop-signal	456	1288893	0.0-19.33-1.33	beast_fmri_test	337	1286551,/,1287231,/,1287911,/,1288590,/,1289269,/,1289949,/	t,t,t,t,t,t	<img class = center src='/static/experiments/beast_fmri_test/images/P.png'></img>	89,71	2750.0	test	<img class = center src='/static/experiments/beast_fmri_test/images/redP.png'></img>	stop	1850.0	3.0	33.0	stop	non-target	P	89,Middle Finger	71,Index Finger	500.0	900.0	2300.0	1850.0	0.0	0.0	900.0	n/a	stop_stim
156800.43823229941	1187.5617677006576	n/a	982	71	2750	1187.5617677	stim	stop-signal	456	1288893	0.0-19.33-1.33	beast_fmri_test	337	1286551,/,1287231,/,1287911,/,1288590,/,1289269,/,1289949,/	t,t,t,t,t,t	<img class = center src='/static/experiments/beast_fmri_test/images/P.png'></img>	89,71	2750.0	test	<img class = center src='/static/experiments/beast_fmri_test/images/redP.png'></img>	stop	1850.0	3.0	33.0	stop	non-target	P	89,Middle Finger	71,Index Finger	500.0	900.0	2300.0	1850.0	0.0	0.0	900.0	n/a	ITI
159732	500	n/a	-1	-1	500	0.0	fixation	poldrack-single-stim	457	1290637	0.0-19.34-0.34	beast_fmri_test	337	1290629,/	t	<div class = centerbox2><div class = fixation>+</div></div>	none	500.0	test	n/a	n/a	n/a	n/a	n/a	n/a	n/a	n/a	n/a	n/a	n/a	n/a	n/a	n/a	n/a	n/a	n/a	n/a	fixation
159366.61995848687	500.0	n/a	468	89	2750	366.380041513	stim	stop-signal	458	1293388	0.0-19.34-1.34	beast_fmri_test	337	1291308,/,1291987,/,1292667,/,1293348,/	t,t,t,t	<img class = center src='/static/experiments/beast_fmri_test/images/P.png'></img>	89,71	2750.0	test	<img class = center src='/static/experiments/beast_fmri_test/images/redP.png'></img>	stop	2250.0	3.0	34.0	stop	target	P	89,Middle Finger	71,Index Finger	500.0	850.0	2250.0	1850.0	0.0	0.0	500.0	n/a	go_stim
161616.61995848687	2250.0	n/a	468	89	2750	366.380041513	stim	stop-signal	458	1293388	0.0-19.34-1.34	beast_fmri_test	337	1291308,/,1291987,/,1292667,/,1293348,/	t,t,t,t	<img class = center src='/static/experiments/beast_fmri_test/images/P.png'></img>	89,71	2750.0	test	<img class = center src='/static/experiments/beast_fmri_test/images/redP.png'></img>	stop	2250.0	3.0	34.0	stop	target	P	89,Middle Finger	71,Index Finger	500.0	850.0	2250.0	1850.0	0.0	0.0	500.0	n/a	stop_stim
162116.61995848687	366.38004151304466	n/a	468	89	2750	366.380041513	stim	stop-signal	458	1293388	0.0-19.34-1.34	beast_fmri_test	337	1291308,/,1291987,/,1292667,/,1293348,/	t,t,t,t	<img class = center src='/static/experiments/beast_fmri_test/images/P.png'></img>	89,71	2750.0	test	<img class = center src='/static/experiments/beast_fmri_test/images/redP.png'></img>	stop	2250.0	3.0	34.0	stop	target	P	89,Middle Finger	71,Index Finger	500.0	850.0	2250.0	1850.0	0.0	0.0	500.0	n/a	ITI
163412	500	n/a	-1	-1	500	0.0	fixation	poldrack-single-stim	459	1294317	0.0-19.35-0.35	beast_fmri_test	337	1294028,/	t	<div class = centerbox2><div class = fixation>+</div></div>	none	500.0	test	n/a	n/a	n/a	n/a	n/a	n/a	n/a	n/a	n/a	n/a	n/a	n/a	n/a	n/a	n/a	n/a	n/a	n/a	fixation
163055.89711185545	850.0	n/a	654	71	2750	357.102888145	stim	stop-signal	460	1297068	0.0-19.35-1.35	beast_fmri_test	337	1294708,/,1295387,/,1296066,/,1296746,/,1297426,/	t,t,t,t,t	<img class = center src='/static/experiments/beast_fmri_test/images/T.png'></img>	89,71	2750.0	test	<img class = center src='/static/experiments/beast_fmri_test/images/redT.png'></img>	stop	1900.0	3.0	35.0	stop	non-target	T	89,Middle Finger	71,Index Finger	450.0	850.0	2250.0	1900.0	0.0	0.0	850.0	n/a	go_stim
164955.89711185545	1900.0	n/a	654	71	2750	357.102888145	stim	stop-signal	460	1297068	0.0-19.35-1.35	beast_fmri_test	337	1294708,/,1295387,/,1296066,/,1296746,/,1297426,/	t,t,t,t,t	<img class = center src='/static/experiments/beast_fmri_test/images/T.png'></img>	89,71	2750.0	test	<img class = center src='/static/experiments/beast_fmri_test/images/redT.png'></img>	stop	1900.0	3.0	35.0	stop	non-target	T	89,Middle Finger	71,Index Finger	450.0	850.0	2250.0	1900.0	0.0	0.0	850.0	n/a	stop_stim
165805.89711185545	357.10288814463166	n/a	654	71	2750	357.102888145	stim	stop-signal	460	1297068	0.0-19.35-1.35	beast_fmri_test	337	1294708,/,1295387,/,1296066,/,1296746,/,1297426,/	t,t,t,t,t	<img class = center src='/static/experiments/beast_fmri_test/images/T.png'></img>	89,71	2750.0	test	<img class = center src='/static/experiments/beast_fmri_test/images/redT.png'></img>	stop	1900.0	3.0	35.0	stop	non-target	T	89,Middle Finger	71,Index Finger	450.0	850.0	2250.0	1900.0	0.0	0.0	850.0	n/a	ITI
167077	500	n/a	-1	-1	500	0.0	fixation	poldrack-single-stim	461	1297982	0.0-19.36-0.36	beast_fmri_test	337	n/a	n/a	<div class = centerbox2><div class = fixation>+</div></div>	none	500.0	test	n/a	n/a	n/a	n/a	n/a	n/a	n/a	n/a	n/a	n/a	n/a	n/a	n/a	n/a	n/a	n/a	n/a	n/a	fixation
166567.99056747602	2750	n/a	1086	71	2750	510.009432524	stim	stop-signal	462	1300733	0.0-19.36-1.36	beast_fmri_test	337	1298106,/,1298785,/,1299464,/,1300144,/,1300824,/	t,t,t,t,t	<img class = center src='/static/experiments/beast_fmri_test/images/D.png'></img>	89,71	2750.0	test	<img class = center src='/static/experiments/beast_fmri_test/images/redD.png'></img>	go	1950.0	3.0	36.0	go	non-target	D	89,Middle Finger	71,Index Finger	450.0	800.0	2250.0	1950.0	1.0	n/a	800.0	1.0	go_stim
169317.99056747602	510.00943252387202	n/a	1086	71	2750	510.009432524	stim	stop-signal	462	1300733	0.0-19.36-1.36	beast_fmri_test	337	1298106,/,1298785,/,1299464,/,1300144,/,1300824,/	t,t,t,t,t	<img class = center src='/static/experiments/beast_fmri_test/images/D.png'></img>	89,71	2750.0	test	<img class = center src='/static/experiments/beast_fmri_test/images/redD.png'></img>	go	1950.0	3.0	36.0	go	non-target	D	89,Middle Finger	71,Index Finger	450.0	800.0	2250.0	1950.0	1.0	n/a	800.0	1.0	ITI
170897	500	n/a	-1	-1	500	0.0	fixation	poldrack-single-stim	463	1301802	0.0-19.37-0.37	beast_fmri_test	337	1301502,/	t	<div class = centerbox2><div class = fixation>+</div></div>	none	500.0	test	n/a	n/a	n/a	n/a	n/a	n/a	n/a	n/a	n/a	n/a	n/a	n/a	n/a	n/a	n/a	n/a	n/a	n/a	fixation
170311.94356509415	2750	n/a	1475	89	2750	585.056434906	stim	stop-signal	464	1304552	0.0-19.37-1.37	beast_fmri_test	337	1302182,/,1302863,/,1303542,/,1304223,/,1304901,/	t,t,t,t,t	<img class = center src='/static/experiments/beast_fmri_test/images/V.png'></img>	89,71	2750.0	test	<img class = center src='/static/experiments/beast_fmri_test/images/redV.png'></img>	go	1950.0	3.0	37.0	go	non-target	V	89,Middle Finger	71,Index Finger	450.0	800.0	2250.0	1950.0	0.0	n/a	800.0	0.0	go_stim
173061.94356509415	585.05643490595594	n/a	1475	89	2750	585.056434906	stim	stop-signal	464	1304552	0.0-19.37-1.37	beast_fmri_test	337	1302182,/,1302863,/,1303542,/,1304223,/,1304901,/	t,t,t,t,t	<img class = center src='/static/experiments/beast_fmri_test/images/V.png'></img>	89,71	2750.0	test	<img class = center src='/static/experiments/beast_fmri_test/images/redV.png'></img>	go	1950.0	3.0	37.0	go	non-target	V	89,Middle Finger	71,Index Finger	450.0	800.0	2250.0	1950.0	0.0	n/a	800.0	0.0	ITI
174794	500	n/a	-1	-1	500	0.0	fixation	poldrack-single-stim	465	1305699	0.0-19.38-0.38	beast_fmri_test	337	1305581,/	t	<div class = centerbox2><div class = fixation>+</div></div>	none	500.0	test	n/a	n/a	n/a	n/a	n/a	n/a	n/a	n/a	n/a	n/a	n/a	n/a	n/a	n/a	n/a	n/a	n/a	n/a	fixation
172620.29633556935	2750	n/a	1155	89	2750	2175.70366443	stim	stop-signal	466	1308451	0.0-19.38-1.38	beast_fmri_test	337	1306262,/,1306941,/,1307620,/,1308300,/,1308980,/,1309659,/,1310341,/	t,t,t,t,t,t,t	<img class = center src='/static/experiments/beast_fmri_test/images/D.png'></img>	89,71	2750.0	test	<img class = center src='/static/experiments/beast_fmri_test/images/redD.png'></img>	go	1950.0	3.0	38.0	go	non-target	D	89,Middle Finger	71,Index Finger	450.0	800.0	2250.0	1950.0	0.0	n/a	800.0	0.0	go_stim
175370.29633556935	2175.7036644305467	n/a	1155	89	2750	2175.70366443	stim	stop-signal	466	1308451	0.0-19.38-1.38	beast_fmri_test	337	1306262,/,1306941,/,1307620,/,1308300,/,1308980,/,1309659,/,1310341,/	t,t,t,t,t,t,t	<img class = center src='/static/experiments/beast_fmri_test/images/D.png'></img>	89,71	2750.0	test	<img class = center src='/static/experiments/beast_fmri_test/images/redD.png'></img>	go	1950.0	3.0	38.0	go	non-target	D	89,Middle Finger	71,Index Finger	450.0	800.0	2250.0	1950.0	0.0	n/a	800.0	0.0	ITI
180281	500	n/a	-1	-1	500	0.0	fixation	poldrack-single-stim	467	1311186	0.0-19.39-0.39	beast_fmri_test	337	1311021,/	t	<div class = centerbox2><div class = fixation>+</div></div>	none	500.0	test	n/a	n/a	n/a	n/a	n/a	n/a	n/a	n/a	n/a	n/a	n/a	n/a	n/a	n/a	n/a	n/a	n/a	n/a	fixation
180180.95042145695	2750	n/a	1225	89	2750	102.049578543	stim	stop-signal	468	1313938	0.0-19.39-1.39	beast_fmri_test	337	1311700,/,1312379,/,1313059,/,1313737,/	t,t,t,t	<img class = center src='/static/experiments/beast_fmri_test/images/D.png'></img>	89,71	2750.0	test	<img class = center src='/static/experiments/beast_fmri_test/images/redD.png'></img>	go	2300.0	3.0	39.0	go	target	D	89,Middle Finger	71,Index Finger	450.0	800.0	2300.0	1950.0	1.0	n/a	450.0	1.0	go_stim
182930.95042145695	102.04957854299292	n/a	1225	89	2750	102.049578543	stim	stop-signal	468	1313938	0.0-19.39-1.39	beast_fmri_test	337	1311700,/,1312379,/,1313059,/,1313737,/	t,t,t,t	<img class = center src='/static/experiments/beast_fmri_test/images/D.png'></img>	89,71	2750.0	test	<img class = center src='/static/experiments/beast_fmri_test/images/redD.png'></img>	go	2300.0	3.0	39.0	go	target	D	89,Middle Finger	71,Index Finger	450.0	800.0	2300.0	1950.0	1.0	n/a	450.0	1.0	ITI
183693	500	n/a	-1	-1	500	0.0	fixation	poldrack-single-stim	469	1314598	0.0-19.40-0.40	beast_fmri_test	337	1314419,/	t	<div class = centerbox2><div class = fixation>+</div></div>	none	500.0	test	n/a	n/a	n/a	n/a	n/a	n/a	n/a	n/a	n/a	n/a	n/a	n/a	n/a	n/a	n/a	n/a	n/a	n/a	fixation
183526.289254762	2750	n/a	1617	71	2750	169.710745238	stim	stop-signal	470	1317351	0.0-19.40-1.40	beast_fmri_test	337	1315098,/,1315778,/,1316458,/,1317136,/	t,t,t,t	<img class = center src='/static/experiments/beast_fmri_test/images/V.png'></img>	89,71	2750.0	test	<img class = center src='/static/experiments/beast_fmri_test/images/redV.png'></img>	go	2300.0	3.0	40.0	go	target	V	89,Middle Finger	71,Index Finger	450.0	800.0	2300.0	1950.0	0.0	n/a	450.0	0.0	go_stim
186276.289254762	169.71074523798958	n/a	1617	71	2750	169.710745238	stim	stop-signal	470	1317351	0.0-19.40-1.40	beast_fmri_test	337	1315098,/,1315778,/,1316458,/,1317136,/	t,t,t,t	<img class = center src='/static/experiments/beast_fmri_test/images/V.png'></img>	89,71	2750.0	test	<img class = center src='/static/experiments/beast_fmri_test/images/redV.png'></img>	go	2300.0	3.0	40.0	go	target	V	89,Middle Finger	71,Index Finger	450.0	800.0	2300.0	1950.0	0.0	n/a	450.0	0.0	ITI
187170	500	n/a	-1	-1	500	0.0	fixation	poldrack-single-stim	471	1318075	0.0-19.41-0.41	beast_fmri_test	337	1317816,/	t	<div class = centerbox2><div class = fixation>+</div></div>	none	500.0	test	n/a	n/a	n/a	n/a	n/a	n/a	n/a	n/a	n/a	n/a	n/a	n/a	n/a	n/a	n/a	n/a	n/a	n/a	fixation
187069.98574053589	2750	n/a	1170	71	2750	101.014259464	stim	stop-signal	472	1320826	0.0-19.41-1.41	beast_fmri_test	337	1318496,/,1319176,/,1319854,/,1320535,/	t,t,t,t	<img class = center src='/static/experiments/beast_fmri_test/images/V.png'></img>	89,71	2750.0	test	<img class = center src='/static/experiments/beast_fmri_test/images/redV.png'></img>	go	1950.0	3.0	41.0	go	non-target	V	89,Middle Finger	71,Index Finger	450.0	800.0	2300.0	1950.0	1.0	n/a	800.0	1.0	go_stim
189819.98574053589	101.01425946420616	n/a	1170	71	2750	101.014259464	stim	stop-signal	472	1320826	0.0-19.41-1.41	beast_fmri_test	337	1318496,/,1319176,/,1319854,/,1320535,/	t,t,t,t	<img class = center src='/static/experiments/beast_fmri_test/images/V.png'></img>	89,71	2750.0	test	<img class = center src='/static/experiments/beast_fmri_test/images/redV.png'></img>	go	1950.0	3.0	41.0	go	non-target	V	89,Middle Finger	71,Index Finger	450.0	800.0	2300.0	1950.0	1.0	n/a	800.0	1.0	ITI
190580	500	n/a	-1	-1	500	0.0	fixation	poldrack-single-stim	473	1321485	0.0-19.42-0.42	beast_fmri_test	337	1321214,/	t	<div class = centerbox2><div class = fixation>+</div></div>	none	500.0	test	n/a	n/a	n/a	n/a	n/a	n/a	n/a	n/a	n/a	n/a	n/a	n/a	n/a	n/a	n/a	n/a	n/a	n/a	fixation
190214.40384910186	2750	n/a	592	89	2750	368.596150898	stim	stop-signal	474	1324238	0.0-19.42-1.42	beast_fmri_test	337	1321894,/,1322574,/,1323253,/,1323933,/	t,t,t,t	<img class = center src='/static/experiments/beast_fmri_test/images/V.png'></img>	89,71	2750.0	test	<img class = center src='/static/experiments/beast_fmri_test/images/redV.png'></img>	go	1950.0	3.0	42.0	go	non-target	V	89,Middle Finger	71,Index Finger	450.0	800.0	2300.0	1950.0	0.0	n/a	800.0	0.0	go_stim
192964.40384910186	368.59615089811433	n/a	592	89	2750	368.596150898	stim	stop-signal	474	1324238	0.0-19.42-1.42	beast_fmri_test	337	1321894,/,1322574,/,1323253,/,1323933,/	t,t,t,t	<img class = center src='/static/experiments/beast_fmri_test/images/V.png'></img>	89,71	2750.0	test	<img class = center src='/static/experiments/beast_fmri_test/images/redV.png'></img>	go	1950.0	3.0	42.0	go	non-target	V	89,Middle Finger	71,Index Finger	450.0	800.0	2300.0	1950.0	0.0	n/a	800.0	0.0	ITI
194255	500	n/a	-1	-1	500	0.0	fixation	poldrack-single-stim	475	1325160	0.0-19.43-0.43	beast_fmri_test	337	1324658,/	t	<div class = centerbox2><div class = fixation>+</div></div>	none	500.0	test	n/a	n/a	n/a	n/a	n/a	n/a	n/a	n/a	n/a	n/a	n/a	n/a	n/a	n/a	n/a	n/a	n/a	n/a	fixation
194169.76579231955	2750	n/a	1393	71	2750	85.2342076805	stim	stop-signal	476	1327910	0.0-19.43-1.43	beast_fmri_test	337	1325292,/,1325972,/,1326652,/,1327332,/	t,t,t,t	<img class = center src='/static/experiments/beast_fmri_test/images/B.png'></img>	89,71	2750.0	test	<img class = center src='/static/experiments/beast_fmri_test/images/redB.png'></img>	go	1950.0	3.0	43.0	go	non-target	B	89,Middle Finger	71,Index Finger	450.0	800.0	2300.0	1950.0	1.0	n/a	800.0	1.0	go_stim
196919.76579231955	85.23420768050191	n/a	1393	71	2750	85.2342076805	stim	stop-signal	476	1327910	0.0-19.43-1.43	beast_fmri_test	337	1325292,/,1325972,/,1326652,/,1327332,/	t,t,t,t	<img class = center src='/static/experiments/beast_fmri_test/images/B.png'></img>	89,71	2750.0	test	<img class = center src='/static/experiments/beast_fmri_test/images/redB.png'></img>	go	1950.0	3.0	43.0	go	non-target	B	89,Middle Finger	71,Index Finger	450.0	800.0	2300.0	1950.0	1.0	n/a	800.0	1.0	ITI
197648	500	n/a	-1	-1	500	0.0	fixation	poldrack-single-stim	477	1328553	0.0-19.44-0.44	beast_fmri_test	337	1328051,/	t	<div class = centerbox2><div class = fixation>+</div></div>	none	500.0	test	n/a	n/a	n/a	n/a	n/a	n/a	n/a	n/a	n/a	n/a	n/a	n/a	n/a	n/a	n/a	n/a	n/a	n/a	fixation
197537.36122523458	450.0	n/a	868	89	2750	112.638774765	stim	stop-signal	478	1331305	0.0-19.44-1.44	beast_fmri_test	337	1328691,/,1329371,/,1330051,/,1330729,/,1331410,/	t,t,t,t,t	<img class = center src='/static/experiments/beast_fmri_test/images/V.png'></img>	89,71	2750.0	test	<img class = center src='/static/experiments/beast_fmri_test/images/redV.png'></img>	stop	2300.0	3.0	44.0	stop	target	V	89,Middle Finger	71,Index Finger	450.0	800.0	2300.0	1950.0	0.0	0.0	450.0	n/a	go_stim
199837.36122523458	2300.0	n/a	868	89	2750	112.638774765	stim	stop-signal	478	1331305	0.0-19.44-1.44	beast_fmri_test	337	1328691,/,1329371,/,1330051,/,1330729,/,1331410,/	t,t,t,t,t	<img class = center src='/static/experiments/beast_fmri_test/images/V.png'></img>	89,71	2750.0	test	<img class = center src='/static/experiments/beast_fmri_test/images/redV.png'></img>	stop	2300.0	3.0	44.0	stop	target	V	89,Middle Finger	71,Index Finger	450.0	800.0	2300.0	1950.0	0.0	0.0	450.0	n/a	stop_stim
200287.36122523458	112.6387747654758	n/a	868	89	2750	112.638774765	stim	stop-signal	478	1331305	0.0-19.44-1.44	beast_fmri_test	337	1328691,/,1329371,/,1330051,/,1330729,/,1331410,/	t,t,t,t,t	<img class = center src='/static/experiments/beast_fmri_test/images/V.png'></img>	89,71	2750.0	test	<img class = center src='/static/experiments/beast_fmri_test/images/redV.png'></img>	stop	2300.0	3.0	44.0	stop	target	V	89,Middle Finger	71,Index Finger	450.0	800.0	2300.0	1950.0	0.0	0.0	450.0	n/a	ITI
201066	500	n/a	-1	-1	500	0.0	fixation	poldrack-single-stim	479	1331971	0.0-19.45-0.45	beast_fmri_test	337	n/a	n/a	<div class = centerbox2><div class = fixation>+</div></div>	none	500.0	test	n/a	n/a	n/a	n/a	n/a	n/a	n/a	n/a	n/a	n/a	n/a	n/a	n/a	n/a	n/a	n/a	n/a	n/a	fixation
200132.9274882297	400.0	n/a	-1	-1	2750	934.07251177	stim	stop-signal	480	1334722	0.0-19.45-1.45	beast_fmri_test	337	1332090,/,1332768,/,1333448,/,1334129,/,1334808,/,1335488,/	t,t,t,t,t,t	<img class = center src='/static/experiments/beast_fmri_test/images/V.png'></img>	89,71	2750.0	test	<img class = center src='/static/experiments/beast_fmri_test/images/redV.png'></img>	stop	2350.0	3.0	45.0	stop	target	V	89,Middle Finger	71,Index Finger	400.0	800.0	2350.0	1950.0	0.0	1.0	400.0	n/a	go_stim
202482.9274882297	2350.0	n/a	-1	-1	2750	934.07251177	stim	stop-signal	480	1334722	0.0-19.45-1.45	beast_fmri_test	337	1332090,/,1332768,/,1333448,/,1334129,/,1334808,/,1335488,/	t,t,t,t,t,t	<img class = center src='/static/experiments/beast_fmri_test/images/V.png'></img>	89,71	2750.0	test	<img class = center src='/static/experiments/beast_fmri_test/images/redV.png'></img>	stop	2350.0	3.0	45.0	stop	target	V	89,Middle Finger	71,Index Finger	400.0	800.0	2350.0	1950.0	0.0	1.0	400.0	n/a	stop_stim
202882.9274882297	934.07251177021556	n/a	-1	-1	2750	934.07251177	stim	stop-signal	480	1334722	0.0-19.45-1.45	beast_fmri_test	337	1332090,/,1332768,/,1333448,/,1334129,/,1334808,/,1335488,/	t,t,t,t,t,t	<img class = center src='/static/experiments/beast_fmri_test/images/V.png'></img>	89,71	2750.0	test	<img class = center src='/static/experiments/beast_fmri_test/images/redV.png'></img>	stop	2350.0	3.0	45.0	stop	target	V	89,Middle Finger	71,Index Finger	400.0	800.0	2350.0	1950.0	0.0	1.0	400.0	n/a	ITI
205307	500	n/a	-1	-1	500	0.0	fixation	poldrack-single-stim	481	1336212	0.0-19.46-0.46	beast_fmri_test	337	1336168,/	t	<div class = centerbox2><div class = fixation>+</div></div>	none	500.0	test	n/a	n/a	n/a	n/a	n/a	n/a	n/a	n/a	n/a	n/a	n/a	n/a	n/a	n/a	n/a	n/a	n/a	n/a	fixation
204193.31483225781	2750	n/a	820	71	2750	1115.68516774	stim	stop-signal	482	1338964	0.0-19.46-1.46	beast_fmri_test	337	1336847,/,1337526,/,1338208,/,1338886,/,1339566,/	t,t,t,t,t	<img class = center src='/static/experiments/beast_fmri_test/images/T.png'></img>	89,71	2750.0	test	<img class = center src='/static/experiments/beast_fmri_test/images/redT.png'></img>	go	1950.0	3.0	46.0	go	non-target	T	89,Middle Finger	71,Index Finger	450.0	800.0	2350.0	1950.0	1.0	n/a	800.0	1.0	go_stim
206943.31483225781	1115.6851677420814	n/a	820	71	2750	1115.68516774	stim	stop-signal	482	1338964	0.0-19.46-1.46	beast_fmri_test	337	1336847,/,1337526,/,1338208,/,1338886,/,1339566,/	t,t,t,t,t	<img class = center src='/static/experiments/beast_fmri_test/images/T.png'></img>	89,71	2750.0	test	<img class = center src='/static/experiments/beast_fmri_test/images/redT.png'></img>	go	1950.0	3.0	46.0	go	non-target	T	89,Middle Finger	71,Index Finger	450.0	800.0	2350.0	1950.0	1.0	n/a	800.0	1.0	ITI
209729	500	n/a	-1	-1	500	0.0	fixation	poldrack-single-stim	483	1340634	0.0-19.47-0.47	beast_fmri_test	337	1340247,/	t	<div class = centerbox2><div class = fixation>+</div></div>	none	500.0	test	n/a	n/a	n/a	n/a	n/a	n/a	n/a	n/a	n/a	n/a	n/a	n/a	n/a	n/a	n/a	n/a	n/a	n/a	fixation
207258.23068037536	2750	n/a	913	71	2750	2472.76931962	stim	stop-signal	484	1343386	0.0-19.47-1.47	beast_fmri_test	337	1340927,/,1341604,/,1342286,/,1342965,/,1343645,/,1344325,/,1345005,/,1345684,/	t,t,t,t,t,t,t,t	<img class = center src='/static/experiments/beast_fmri_test/images/T.png'></img>	89,71	2750.0	test	<img class = center src='/static/experiments/beast_fmri_test/images/redT.png'></img>	go	1950.0	3.0	47.0	go	non-target	T	89,Middle Finger	71,Index Finger	450.0	800.0	2350.0	1950.0	1.0	n/a	800.0	1.0	go_stim
210008.23068037536	2472.7693196246992	n/a	913	71	2750	2472.76931962	stim	stop-signal	484	1343386	0.0-19.47-1.47	beast_fmri_test	337	1340927,/,1341604,/,1342286,/,1342965,/,1343645,/,1344325,/,1345005,/,1345684,/	t,t,t,t,t,t,t,t	<img class = center src='/static/experiments/beast_fmri_test/images/T.png'></img>	89,71	2750.0	test	<img class = center src='/static/experiments/beast_fmri_test/images/redT.png'></img>	go	1950.0	3.0	47.0	go	non-target	T	89,Middle Finger	71,Index Finger	450.0	800.0	2350.0	1950.0	1.0	n/a	800.0	1.0	ITI
230010	15000	n/a	-1	-1	15000	0.0	practice-no-stop-feedback	poldrack-single-stim	485	1360915	0.0-20.0	beast_fmri_test	337	1346363,/,1347042,/,1347723,/,1348403,/,1349083,/,1349762,/,1350442,/,1351120,/,1351801,/,1352479,/,1353159,/,1353839,/,1354520,/,1355200,/,1355879,/,1356558,/,1357238,/,1357918,/,1358597,/,1359277,/,1359957,/,1360636,/	t,t,t,t,t,t,t,t,t,t,t,t,t,t,t,t,t,t,t,t,t,t	"<div class = ""centerbox""><p class = ""block-text"">Your delay is 2 trials.</p><p class = block-text>Please wait for the scanner to start the block</p></div>"	77	15000.0	n/a	n/a	n/a	n/a	n/a	n/a	n/a	n/a	n/a	n/a	n/a	n/a	n/a	n/a	n/a	n/a	n/a	n/a	n/a	practice-no-stop-feedback
230512	500	n/a	-1	-1	500	0.0	fixation	poldrack-single-stim	486	1361417	0.0-21.0-0.0	beast_fmri_test	337	1361316,/	t	<div class = centerbox2><div class = fixation>+</div></div>	none	500.0	test	n/a	n/a	n/a	n/a	n/a	n/a	n/a	n/a	n/a	n/a	n/a	n/a	n/a	n/a	n/a	n/a	n/a	n/a	fixation
229121.23728921241	2750	n/a	1335	71	2750	1391.76271079	stim	stop-signal	487	1364168	0.0-21.0-1.0	beast_fmri_test	337	1361997,/,1362676,/,1363355,/,1364035,/,1364714,/,1365394,/	t,t,t,t,t,t	<img class = center src='/static/experiments/beast_fmri_test/images/D.png'></img>	89,71	2750.0	test	<img class = center src='/static/experiments/beast_fmri_test/images/redD.png'></img>	go	-1.0	2.0	0.0	go	temp-non-target	D	89,Middle Finger	71,Index Finger	450.0	800.0	2350.0	1950.0	0.0	n/a	n/a	n/a	go_stim
231871.23728921241	1391.7627107875098	n/a	1335	71	2750	1391.76271079	stim	stop-signal	487	1364168	0.0-21.0-1.0	beast_fmri_test	337	1361997,/,1362676,/,1363355,/,1364035,/,1364714,/,1365394,/	t,t,t,t,t,t	<img class = center src='/static/experiments/beast_fmri_test/images/D.png'></img>	89,71	2750.0	test	<img class = center src='/static/experiments/beast_fmri_test/images/redD.png'></img>	go	-1.0	2.0	0.0	go	temp-non-target	D	89,Middle Finger	71,Index Finger	450.0	800.0	2350.0	1950.0	0.0	n/a	n/a	n/a	ITI
235212	500	n/a	-1	-1	500	0.0	fixation	poldrack-single-stim	488	1366117	0.0-21.1-0.1	beast_fmri_test	337	1366074,/	t	<div class = centerbox2><div class = fixation>+</div></div>	none	500.0	test	n/a	n/a	n/a	n/a	n/a	n/a	n/a	n/a	n/a	n/a	n/a	n/a	n/a	n/a	n/a	n/a	n/a	n/a	fixation
234389.39152500033	2750	n/a	796	71	2750	823.608475	stim	stop-signal	489	1368868	0.0-21.1-1.1	beast_fmri_test	337	1366752,/,1367434,/,1368113,/,1368792,/,1369472,/	t,t,t,t,t	<img class = center src='/static/experiments/beast_fmri_test/images/V.png'></img>	89,71	2750.0	test	<img class = center src='/static/experiments/beast_fmri_test/images/redV.png'></img>	go	-1.0	2.0	1.0	go	temp-non-target	V	89,Middle Finger	71,Index Finger	450.0	800.0	2350.0	1950.0	0.0	n/a	n/a	n/a	go_stim
237139.39152500033	823.60847499957981	n/a	796	71	2750	823.608475	stim	stop-signal	489	1368868	0.0-21.1-1.1	beast_fmri_test	337	1366752,/,1367434,/,1368113,/,1368792,/,1369472,/	t,t,t,t,t	<img class = center src='/static/experiments/beast_fmri_test/images/V.png'></img>	89,71	2750.0	test	<img class = center src='/static/experiments/beast_fmri_test/images/redV.png'></img>	go	-1.0	2.0	1.0	go	temp-non-target	V	89,Middle Finger	71,Index Finger	450.0	800.0	2350.0	1950.0	0.0	n/a	n/a	n/a	ITI
239346	500	n/a	-1	-1	500	0.0	fixation	poldrack-single-stim	490	1370251	0.0-21.2-0.2	beast_fmri_test	337	1370152,/	t	<div class = centerbox2><div class = fixation>+</div></div>	none	500.0	test	n/a	n/a	n/a	n/a	n/a	n/a	n/a	n/a	n/a	n/a	n/a	n/a	n/a	n/a	n/a	n/a	n/a	n/a	fixation
239273.00332279946	2750	n/a	852	71	2750	74.9966772005	stim	stop-signal	491	1373003	0.0-21.2-1.2	beast_fmri_test	337	1370832,/,1371512,/,1372192,/,1372871,/	t,t,t,t	<img class = center src='/static/experiments/beast_fmri_test/images/P.png'></img>	89,71	2750.0	test	<img class = center src='/static/experiments/beast_fmri_test/images/redP.png'></img>	go	1950.0	2.0	2.0	go	non-target	P	89,Middle Finger	71,Index Finger	450.0	800.0	2350.0	1950.0	1.0	n/a	800.0	1.0	go_stim
242023.00332279946	74.996677200464347	n/a	852	71	2750	74.9966772005	stim	stop-signal	491	1373003	0.0-21.2-1.2	beast_fmri_test	337	1370832,/,1371512,/,1372192,/,1372871,/	t,t,t,t	<img class = center src='/static/experiments/beast_fmri_test/images/P.png'></img>	89,71	2750.0	test	<img class = center src='/static/experiments/beast_fmri_test/images/redP.png'></img>	go	1950.0	2.0	2.0	go	non-target	P	89,Middle Finger	71,Index Finger	450.0	800.0	2350.0	1950.0	1.0	n/a	800.0	1.0	ITI
242743	500	n/a	-1	-1	500	0.0	fixation	poldrack-single-stim	492	1373648	0.0-21.3-0.3	beast_fmri_test	337	1373551,/	t	<div class = centerbox2><div class = fixation>+</div></div>	none	500.0	test	n/a	n/a	n/a	n/a	n/a	n/a	n/a	n/a	n/a	n/a	n/a	n/a	n/a	n/a	n/a	n/a	n/a	n/a	fixation
241169.48697213735	450.0	n/a	-1	-1	2750	1576.51302786	stim	stop-signal	493	1376401	0.0-21.3-1.3	beast_fmri_test	337	1374230,/,1374910,/,1375593,/,1376271,/,1376948,/,1377629,/	t,t,t,t,t,t	<img class = center src='/static/experiments/beast_fmri_test/images/V.png'></img>	89,71	2750.0	test	<img class = center src='/static/experiments/beast_fmri_test/images/redV.png'></img>	stop	2300.0	2.0	3.0	stop	target	V	89,Middle Finger	71,Index Finger	450.0	800.0	2300.0	1950.0	0.0	1.0	450.0	n/a	go_stim
243469.48697213735	2300.0	n/a	-1	-1	2750	1576.51302786	stim	stop-signal	493	1376401	0.0-21.3-1.3	beast_fmri_test	337	1374230,/,1374910,/,1375593,/,1376271,/,1376948,/,1377629,/	t,t,t,t,t,t	<img class = center src='/static/experiments/beast_fmri_test/images/V.png'></img>	89,71	2750.0	test	<img class = center src='/static/experiments/beast_fmri_test/images/redV.png'></img>	stop	2300.0	2.0	3.0	stop	target	V	89,Middle Finger	71,Index Finger	450.0	800.0	2300.0	1950.0	0.0	1.0	450.0	n/a	stop_stim
243919.48697213735	1576.5130278627191	n/a	-1	-1	2750	1576.51302786	stim	stop-signal	493	1376401	0.0-21.3-1.3	beast_fmri_test	337	1374230,/,1374910,/,1375593,/,1376271,/,1376948,/,1377629,/	t,t,t,t,t,t	<img class = center src='/static/experiments/beast_fmri_test/images/V.png'></img>	89,71	2750.0	test	<img class = center src='/static/experiments/beast_fmri_test/images/redV.png'></img>	stop	2300.0	2.0	3.0	stop	target	V	89,Middle Finger	71,Index Finger	450.0	800.0	2300.0	1950.0	0.0	1.0	450.0	n/a	ITI
247625	500	n/a	-1	-1	500	0.0	fixation	poldrack-single-stim	494	1378530	0.0-21.4-0.4	beast_fmri_test	337	1378308,/	t	<div class = centerbox2><div class = fixation>+</div></div>	none	500.0	test	n/a	n/a	n/a	n/a	n/a	n/a	n/a	n/a	n/a	n/a	n/a	n/a	n/a	n/a	n/a	n/a	n/a	n/a	fixation
247273.76764444937	500.0	n/a	-1	-1	2750	355.232355551	stim	stop-signal	495	1381284	0.0-21.4-1.4	beast_fmri_test	337	1378988,/,1379668,/,1380348,/,1381028,/	t,t,t,t	<img class = center src='/static/experiments/beast_fmri_test/images/P.png'></img>	89,71	2750.0	test	<img class = center src='/static/experiments/beast_fmri_test/images/redP.png'></img>	stop	2250.0	2.0	4.0	stop	target	P	89,Middle Finger	71,Index Finger	500.0	800.0	2250.0	1950.0	0.0	1.0	500.0	n/a	go_stim
249523.76764444937	2250.0	n/a	-1	-1	2750	355.232355551	stim	stop-signal	495	1381284	0.0-21.4-1.4	beast_fmri_test	337	1378988,/,1379668,/,1380348,/,1381028,/	t,t,t,t	<img class = center src='/static/experiments/beast_fmri_test/images/P.png'></img>	89,71	2750.0	test	<img class = center src='/static/experiments/beast_fmri_test/images/redP.png'></img>	stop	2250.0	2.0	4.0	stop	target	P	89,Middle Finger	71,Index Finger	500.0	800.0	2250.0	1950.0	0.0	1.0	500.0	n/a	stop_stim
250023.76764444937	355.23235555072898	n/a	-1	-1	2750	355.232355551	stim	stop-signal	495	1381284	0.0-21.4-1.4	beast_fmri_test	337	1378988,/,1379668,/,1380348,/,1381028,/	t,t,t,t	<img class = center src='/static/experiments/beast_fmri_test/images/P.png'></img>	89,71	2750.0	test	<img class = center src='/static/experiments/beast_fmri_test/images/redP.png'></img>	stop	2250.0	2.0	4.0	stop	target	P	89,Middle Finger	71,Index Finger	500.0	800.0	2250.0	1950.0	0.0	1.0	500.0	n/a	ITI
251290	500	n/a	-1	-1	500	0.0	fixation	poldrack-single-stim	496	1382195	0.0-21.5-0.5	beast_fmri_test	337	1381706,/	t	<div class = centerbox2><div class = fixation>+</div></div>	none	500.0	test	n/a	n/a	n/a	n/a	n/a	n/a	n/a	n/a	n/a	n/a	n/a	n/a	n/a	n/a	n/a	n/a	n/a	n/a	fixation
249456.23830426508	550.0	n/a	-1	-1	2750	1835.76169573	stim	stop-signal	497	1384947	0.0-21.5-1.5	beast_fmri_test	337	1382386,/,1383067,/,1383746,/,1384426,/,1385104,/,1385785,/,1386465,/	t,t,t,t,t,t,t	<img class = center src='/static/experiments/beast_fmri_test/images/V.png'></img>	89,71	2750.0	test	<img class = center src='/static/experiments/beast_fmri_test/images/redV.png'></img>	stop	2200.0	2.0	5.0	stop	target	V	89,Middle Finger	71,Index Finger	550.0	800.0	2200.0	1950.0	0.0	1.0	550.0	n/a	go_stim
251656.23830426508	2200.0	n/a	-1	-1	2750	1835.76169573	stim	stop-signal	497	1384947	0.0-21.5-1.5	beast_fmri_test	337	1382386,/,1383067,/,1383746,/,1384426,/,1385104,/,1385785,/,1386465,/	t,t,t,t,t,t,t	<img class = center src='/static/experiments/beast_fmri_test/images/V.png'></img>	89,71	2750.0	test	<img class = center src='/static/experiments/beast_fmri_test/images/redV.png'></img>	stop	2200.0	2.0	5.0	stop	target	V	89,Middle Finger	71,Index Finger	550.0	800.0	2200.0	1950.0	0.0	1.0	550.0	n/a	stop_stim
252206.23830426508	1835.7616957349471	n/a	-1	-1	2750	1835.76169573	stim	stop-signal	497	1384947	0.0-21.5-1.5	beast_fmri_test	337	1382386,/,1383067,/,1383746,/,1384426,/,1385104,/,1385785,/,1386465,/	t,t,t,t,t,t,t	<img class = center src='/static/experiments/beast_fmri_test/images/V.png'></img>	89,71	2750.0	test	<img class = center src='/static/experiments/beast_fmri_test/images/redV.png'></img>	stop	2200.0	2.0	5.0	stop	target	V	89,Middle Finger	71,Index Finger	550.0	800.0	2200.0	1950.0	0.0	1.0	550.0	n/a	ITI
256429	500	n/a	-1	-1	500	0.0	fixation	poldrack-single-stim	498	1387334	0.0-21.6-0.6	beast_fmri_test	337	1387144,/	t	<div class = centerbox2><div class = fixation>+</div></div>	none	500.0	test	n/a	n/a	n/a	n/a	n/a	n/a	n/a	n/a	n/a	n/a	n/a	n/a	n/a	n/a	n/a	n/a	n/a	n/a	fixation
254361.88757118117	800.0	n/a	995	71	2750	2068.11242882	stim	stop-signal	499	1390085	0.0-21.6-1.6	beast_fmri_test	337	1387824,/,1388504,/,1389182,/,1389863,/,1390543,/,1391222,/,1391902,/	t,t,t,t,t,t,t	<img class = center src='/static/experiments/beast_fmri_test/images/B.png'></img>	89,71	2750.0	test	<img class = center src='/static/experiments/beast_fmri_test/images/redB.png'></img>	stop	1950.0	2.0	6.0	stop	non-target	B	89,Middle Finger	71,Index Finger	600.0	800.0	2200.0	1950.0	0.0	0.0	800.0	n/a	go_stim
256311.88757118117	1950.0	n/a	995	71	2750	2068.11242882	stim	stop-signal	499	1390085	0.0-21.6-1.6	beast_fmri_test	337	1387824,/,1388504,/,1389182,/,1389863,/,1390543,/,1391222,/,1391902,/	t,t,t,t,t,t,t	<img class = center src='/static/experiments/beast_fmri_test/images/B.png'></img>	89,71	2750.0	test	<img class = center src='/static/experiments/beast_fmri_test/images/redB.png'></img>	stop	1950.0	2.0	6.0	stop	non-target	B	89,Middle Finger	71,Index Finger	600.0	800.0	2200.0	1950.0	0.0	0.0	800.0	n/a	stop_stim
257111.88757118117	2068.1124288189317	n/a	995	71	2750	2068.11242882	stim	stop-signal	499	1390085	0.0-21.6-1.6	beast_fmri_test	337	1387824,/,1388504,/,1389182,/,1389863,/,1390543,/,1391222,/,1391902,/	t,t,t,t,t,t,t	<img class = center src='/static/experiments/beast_fmri_test/images/B.png'></img>	89,71	2750.0	test	<img class = center src='/static/experiments/beast_fmri_test/images/redB.png'></img>	stop	1950.0	2.0	6.0	stop	non-target	B	89,Middle Finger	71,Index Finger	600.0	800.0	2200.0	1950.0	0.0	0.0	800.0	n/a	ITI
261801	500	n/a	-1	-1	500	0.0	fixation	poldrack-single-stim	500	1392706	0.0-21.7-0.7	beast_fmri_test	337	1392581,/	t	<div class = centerbox2><div class = fixation>+</div></div>	none	500.0	test	n/a	n/a	n/a	n/a	n/a	n/a	n/a	n/a	n/a	n/a	n/a	n/a	n/a	n/a	n/a	n/a	n/a	n/a	fixation
261763.89514989103	750.0	n/a	-1	-1	2750	40.1048501089	stim	stop-signal	501	1395459	0.0-21.7-1.7	beast_fmri_test	337	1393262,/,1393940,/,1394619,/,1395299,/	t,t,t,t	<img class = center src='/static/experiments/beast_fmri_test/images/B.png'></img>	89,71	2750.0	test	<img class = center src='/static/experiments/beast_fmri_test/images/redB.png'></img>	stop	2000.0	2.0	7.0	stop	non-target	B	89,Middle Finger	71,Index Finger	600.0	750.0	2200.0	2000.0	0.0	1.0	750.0	n/a	go_stim
263763.89514989103	2000.0	n/a	-1	-1	2750	40.1048501089	stim	stop-signal	501	1395459	0.0-21.7-1.7	beast_fmri_test	337	1393262,/,1393940,/,1394619,/,1395299,/	t,t,t,t	<img class = center src='/static/experiments/beast_fmri_test/images/B.png'></img>	89,71	2750.0	test	<img class = center src='/static/experiments/beast_fmri_test/images/redB.png'></img>	stop	2000.0	2.0	7.0	stop	non-target	B	89,Middle Finger	71,Index Finger	600.0	750.0	2200.0	2000.0	0.0	1.0	750.0	n/a	stop_stim
264513.89514989103	40.104850108858393	n/a	-1	-1	2750	40.1048501089	stim	stop-signal	501	1395459	0.0-21.7-1.7	beast_fmri_test	337	1393262,/,1393940,/,1394619,/,1395299,/	t,t,t,t	<img class = center src='/static/experiments/beast_fmri_test/images/B.png'></img>	89,71	2750.0	test	<img class = center src='/static/experiments/beast_fmri_test/images/redB.png'></img>	stop	2000.0	2.0	7.0	stop	non-target	B	89,Middle Finger	71,Index Finger	600.0	750.0	2200.0	2000.0	0.0	1.0	750.0	n/a	ITI
265151	500	n/a	-1	-1	500	0.0	fixation	poldrack-single-stim	502	1396056	0.0-21.8-0.8	beast_fmri_test	337	1395980,/	t	<div class = centerbox2><div class = fixation>+</div></div>	none	500.0	test	n/a	n/a	n/a	n/a	n/a	n/a	n/a	n/a	n/a	n/a	n/a	n/a	n/a	n/a	n/a	n/a	n/a	n/a	fixation
263384.26400216599	800.0	n/a	-1	-1	2750	1768.73599783	stim	stop-signal	503	1398808	0.0-21.8-1.8	beast_fmri_test	337	1396660,/,1397339,/,1398019,/,1398699,/,1399378,/,1400058,/	t,t,t,t,t,t	<img class = center src='/static/experiments/beast_fmri_test/images/T.png'></img>	89,71	2750.0	test	<img class = center src='/static/experiments/beast_fmri_test/images/redT.png'></img>	stop	1950.0	2.0	8.0	stop	non-target	T	89,Middle Finger	71,Index Finger	600.0	800.0	2200.0	1950.0	0.0	1.0	800.0	n/a	go_stim
265334.26400216599	1950.0	n/a	-1	-1	2750	1768.73599783	stim	stop-signal	503	1398808	0.0-21.8-1.8	beast_fmri_test	337	1396660,/,1397339,/,1398019,/,1398699,/,1399378,/,1400058,/	t,t,t,t,t,t	<img class = center src='/static/experiments/beast_fmri_test/images/T.png'></img>	89,71	2750.0	test	<img class = center src='/static/experiments/beast_fmri_test/images/redT.png'></img>	stop	1950.0	2.0	8.0	stop	non-target	T	89,Middle Finger	71,Index Finger	600.0	800.0	2200.0	1950.0	0.0	1.0	800.0	n/a	stop_stim
266134.26400216599	1768.7359978340914	n/a	-1	-1	2750	1768.73599783	stim	stop-signal	503	1398808	0.0-21.8-1.8	beast_fmri_test	337	1396660,/,1397339,/,1398019,/,1398699,/,1399378,/,1400058,/	t,t,t,t,t,t	<img class = center src='/static/experiments/beast_fmri_test/images/T.png'></img>	89,71	2750.0	test	<img class = center src='/static/experiments/beast_fmri_test/images/redT.png'></img>	stop	1950.0	2.0	8.0	stop	non-target	T	89,Middle Finger	71,Index Finger	600.0	800.0	2200.0	1950.0	0.0	1.0	800.0	n/a	ITI
270225	500	n/a	-1	-1	500	0.0	fixation	poldrack-single-stim	504	1401130	0.0-21.9-0.9	beast_fmri_test	337	1400739,/	t	<div class = centerbox2><div class = fixation>+</div></div>	none	500.0	test	n/a	n/a	n/a	n/a	n/a	n/a	n/a	n/a	n/a	n/a	n/a	n/a	n/a	n/a	n/a	n/a	n/a	n/a	fixation
266234.22380987532	2750	n/a	854	89	2750	3992.77619012	stim	stop-signal	505	1403882	0.0-21.9-1.9	beast_fmri_test	337	1401417,/,1402098,/,1402776,/,1403457,/,1404137,/,1404815,/,1405496,/,1406176,/,1406856,/,1407535,/	t,t,t,t,t,t,t,t,t,t	<img class = center src='/static/experiments/beast_fmri_test/images/B.png'></img>	89,71	2750.0	test	<img class = center src='/static/experiments/beast_fmri_test/images/redB.png'></img>	go	2150.0	2.0	9.0	go	target	B	89,Middle Finger	71,Index Finger	600.0	850.0	2150.0	1950.0	1.0	n/a	600.0	1.0	go_stim
268984.22380987532	3992.7761901246727	n/a	854	89	2750	3992.77619012	stim	stop-signal	505	1403882	0.0-21.9-1.9	beast_fmri_test	337	1401417,/,1402098,/,1402776,/,1403457,/,1404137,/,1404815,/,1405496,/,1406176,/,1406856,/,1407535,/	t,t,t,t,t,t,t,t,t,t	<img class = center src='/static/experiments/beast_fmri_test/images/B.png'></img>	89,71	2750.0	test	<img class = center src='/static/experiments/beast_fmri_test/images/redB.png'></img>	go	2150.0	2.0	9.0	go	target	B	89,Middle Finger	71,Index Finger	600.0	850.0	2150.0	1950.0	1.0	n/a	600.0	1.0	ITI
277529	500	n/a	-1	-1	500	0.0	fixation	poldrack-single-stim	506	1408434	0.0-21.10-0.10	beast_fmri_test	337	1408215,/	t	<div class = centerbox2><div class = fixation>+</div></div>	none	500.0	test	n/a	n/a	n/a	n/a	n/a	n/a	n/a	n/a	n/a	n/a	n/a	n/a	n/a	n/a	n/a	n/a	n/a	n/a	fixation
275342.73422806454	2750	n/a	1062	71	2750	2187.26577194	stim	stop-signal	507	1411185	0.0-21.10-1.10	beast_fmri_test	337	1408893,/,1409573,/,1410253,/,1410932,/,1411613,/,1412292,/,1412972,/	t,t,t,t,t,t,t	<img class = center src='/static/experiments/beast_fmri_test/images/P.png'></img>	89,71	2750.0	test	<img class = center src='/static/experiments/beast_fmri_test/images/redP.png'></img>	go	1900.0	2.0	10.0	go	non-target	P	89,Middle Finger	71,Index Finger	600.0	850.0	2150.0	1900.0	1.0	n/a	850.0	1.0	go_stim
278092.73422806454	2187.265771935361	n/a	1062	71	2750	2187.26577194	stim	stop-signal	507	1411185	0.0-21.10-1.10	beast_fmri_test	337	1408893,/,1409573,/,1410253,/,1410932,/,1411613,/,1412292,/,1412972,/	t,t,t,t,t,t,t	<img class = center src='/static/experiments/beast_fmri_test/images/P.png'></img>	89,71	2750.0	test	<img class = center src='/static/experiments/beast_fmri_test/images/redP.png'></img>	go	1900.0	2.0	10.0	go	non-target	P	89,Middle Finger	71,Index Finger	600.0	850.0	2150.0	1900.0	1.0	n/a	850.0	1.0	ITI
283018	500	n/a	-1	-1	500	0.0	fixation	poldrack-single-stim	508	1413923	0.0-21.11-0.11	beast_fmri_test	337	1413652,/	t	<div class = centerbox2><div class = fixation>+</div></div>	none	500.0	test	n/a	n/a	n/a	n/a	n/a	n/a	n/a	n/a	n/a	n/a	n/a	n/a	n/a	n/a	n/a	n/a	n/a	n/a	fixation
281443.61496896064	2750	n/a	817	71	2750	1576.38503104	stim	stop-signal	509	1416675	0.0-21.11-1.11	beast_fmri_test	337	1414332,/,1415012,/,1415690,/,1416371,/,1417050,/,1417730,/	t,t,t,t,t,t	<img class = center src='/static/experiments/beast_fmri_test/images/D.png'></img>	89,71	2750.0	test	<img class = center src='/static/experiments/beast_fmri_test/images/redD.png'></img>	go	1900.0	2.0	11.0	go	non-target	D	89,Middle Finger	71,Index Finger	600.0	850.0	2150.0	1900.0	1.0	n/a	850.0	1.0	go_stim
284193.61496896064	1576.3850310394644	n/a	817	71	2750	1576.38503104	stim	stop-signal	509	1416675	0.0-21.11-1.11	beast_fmri_test	337	1414332,/,1415012,/,1415690,/,1416371,/,1417050,/,1417730,/	t,t,t,t,t,t	<img class = center src='/static/experiments/beast_fmri_test/images/D.png'></img>	89,71	2750.0	test	<img class = center src='/static/experiments/beast_fmri_test/images/redD.png'></img>	go	1900.0	2.0	11.0	go	non-target	D	89,Middle Finger	71,Index Finger	600.0	850.0	2150.0	1900.0	1.0	n/a	850.0	1.0	ITI
287909	500	n/a	-1	-1	500	0.0	fixation	poldrack-single-stim	510	1418814	0.0-21.12-0.12	beast_fmri_test	337	1418410,/	t	<div class = centerbox2><div class = fixation>+</div></div>	none	500.0	test	n/a	n/a	n/a	n/a	n/a	n/a	n/a	n/a	n/a	n/a	n/a	n/a	n/a	n/a	n/a	n/a	n/a	n/a	fixation
287323.75557663501	2750	n/a	1253	71	2750	586.244423365	stim	stop-signal	511	1421565	0.0-21.12-1.12	beast_fmri_test	337	1419090,/,1419769,/,1420448,/,1421129,/,1421808,/	t,t,t,t,t	<img class = center src='/static/experiments/beast_fmri_test/images/T.png'></img>	89,71	2750.0	test	<img class = center src='/static/experiments/beast_fmri_test/images/redT.png'></img>	go	1900.0	2.0	12.0	go	non-target	T	89,Middle Finger	71,Index Finger	600.0	850.0	2150.0	1900.0	1.0	n/a	850.0	1.0	go_stim
290073.75557663501	586.24442336509128	n/a	1253	71	2750	586.244423365	stim	stop-signal	511	1421565	0.0-21.12-1.12	beast_fmri_test	337	1419090,/,1419769,/,1420448,/,1421129,/,1421808,/	t,t,t,t,t	<img class = center src='/static/experiments/beast_fmri_test/images/T.png'></img>	89,71	2750.0	test	<img class = center src='/static/experiments/beast_fmri_test/images/redT.png'></img>	go	1900.0	2.0	12.0	go	non-target	T	89,Middle Finger	71,Index Finger	600.0	850.0	2150.0	1900.0	1.0	n/a	850.0	1.0	ITI
291800	500	n/a	-1	-1	500	0.0	fixation	poldrack-single-stim	512	1422705	0.0-21.13-0.13	beast_fmri_test	337	1422489,/	t	<div class = centerbox2><div class = fixation>+</div></div>	none	500.0	test	n/a	n/a	n/a	n/a	n/a	n/a	n/a	n/a	n/a	n/a	n/a	n/a	n/a	n/a	n/a	n/a	n/a	n/a	fixation
291552.83670735592	2750	n/a	1345	71	2750	249.163292644	stim	stop-signal	513	1425457	0.0-21.13-1.13	beast_fmri_test	337	1423167,/,1423847,/,1424527,/,1425208,/	t,t,t,t	<img class = center src='/static/experiments/beast_fmri_test/images/T.png'></img>	89,71	2750.0	test	<img class = center src='/static/experiments/beast_fmri_test/images/redT.png'></img>	go	1900.0	2.0	13.0	go	non-target	T	89,Middle Finger	71,Index Finger	600.0	850.0	2150.0	1900.0	1.0	n/a	850.0	1.0	go_stim
294302.83670735592	249.16329264405331	n/a	1345	71	2750	249.163292644	stim	stop-signal	513	1425457	0.0-21.13-1.13	beast_fmri_test	337	1423167,/,1423847,/,1424527,/,1425208,/	t,t,t,t	<img class = center src='/static/experiments/beast_fmri_test/images/T.png'></img>	89,71	2750.0	test	<img class = center src='/static/experiments/beast_fmri_test/images/redT.png'></img>	go	1900.0	2.0	13.0	go	non-target	T	89,Middle Finger	71,Index Finger	600.0	850.0	2150.0	1900.0	1.0	n/a	850.0	1.0	ITI
295365	500	n/a	-1	-1	500	0.0	fixation	poldrack-single-stim	514	1426270	0.0-21.14-0.14	beast_fmri_test	337	1425890,/	t	<div class = centerbox2><div class = fixation>+</div></div>	none	500.0	test	n/a	n/a	n/a	n/a	n/a	n/a	n/a	n/a	n/a	n/a	n/a	n/a	n/a	n/a	n/a	n/a	n/a	n/a	fixation
294706.08719478198	850.0	n/a	945	71	2750	661.912805218	stim	stop-signal	515	1429023	0.0-21.14-1.14	beast_fmri_test	337	1426566,/,1427245,/,1427925,/,1428606,/,1429285,/	t,t,t,t,t	<img class = center src='/static/experiments/beast_fmri_test/images/P.png'></img>	89,71	2750.0	test	<img class = center src='/static/experiments/beast_fmri_test/images/redP.png'></img>	stop	1900.0	2.0	14.0	stop	non-target	P	89,Middle Finger	71,Index Finger	600.0	850.0	2150.0	1900.0	0.0	0.0	850.0	n/a	go_stim
296606.08719478198	1900.0	n/a	945	71	2750	661.912805218	stim	stop-signal	515	1429023	0.0-21.14-1.14	beast_fmri_test	337	1426566,/,1427245,/,1427925,/,1428606,/,1429285,/	t,t,t,t,t	<img class = center src='/static/experiments/beast_fmri_test/images/P.png'></img>	89,71	2750.0	test	<img class = center src='/static/experiments/beast_fmri_test/images/redP.png'></img>	stop	1900.0	2.0	14.0	stop	non-target	P	89,Middle Finger	71,Index Finger	600.0	850.0	2150.0	1900.0	0.0	0.0	850.0	n/a	stop_stim
297456.08719478198	661.91280521808972	n/a	945	71	2750	661.912805218	stim	stop-signal	515	1429023	0.0-21.14-1.14	beast_fmri_test	337	1426566,/,1427245,/,1427925,/,1428606,/,1429285,/	t,t,t,t,t	<img class = center src='/static/experiments/beast_fmri_test/images/P.png'></img>	89,71	2750.0	test	<img class = center src='/static/experiments/beast_fmri_test/images/redP.png'></img>	stop	1900.0	2.0	14.0	stop	non-target	P	89,Middle Finger	71,Index Finger	600.0	850.0	2150.0	1900.0	0.0	0.0	850.0	n/a	ITI
299337	500	n/a	-1	-1	500	0.0	fixation	poldrack-single-stim	516	1430242	0.0-21.15-0.15	beast_fmri_test	337	1429965,/	t	<div class = centerbox2><div class = fixation>+</div></div>	none	500.0	test	n/a	n/a	n/a	n/a	n/a	n/a	n/a	n/a	n/a	n/a	n/a	n/a	n/a	n/a	n/a	n/a	n/a	n/a	fixation
298079.47158535453	2750	n/a	901	71	2750	1258.52841465	stim	stop-signal	517	1432993	0.0-21.15-1.15	beast_fmri_test	337	1430643,/,1431324,/,1432004,/,1432684,/,1433363,/,1434043,/	t,t,t,t,t,t	<img class = center src='/static/experiments/beast_fmri_test/images/V.png'></img>	89,71	2750.0	test	<img class = center src='/static/experiments/beast_fmri_test/images/redV.png'></img>	go	1950.0	2.0	15.0	go	non-target	V	89,Middle Finger	71,Index Finger	600.0	800.0	2150.0	1950.0	1.0	n/a	800.0	1.0	go_stim
300829.47158535453	1258.5284146455353	n/a	901	71	2750	1258.52841465	stim	stop-signal	517	1432993	0.0-21.15-1.15	beast_fmri_test	337	1430643,/,1431324,/,1432004,/,1432684,/,1433363,/,1434043,/	t,t,t,t,t,t	<img class = center src='/static/experiments/beast_fmri_test/images/V.png'></img>	89,71	2750.0	test	<img class = center src='/static/experiments/beast_fmri_test/images/redV.png'></img>	go	1950.0	2.0	15.0	go	non-target	V	89,Middle Finger	71,Index Finger	600.0	800.0	2150.0	1950.0	1.0	n/a	800.0	1.0	ITI
303908	500	n/a	-1	-1	500	0.0	fixation	poldrack-single-stim	518	1434813	0.0-21.16-0.16	beast_fmri_test	337	1434723,/	t	<div class = centerbox2><div class = fixation>+</div></div>	none	500.0	test	n/a	n/a	n/a	n/a	n/a	n/a	n/a	n/a	n/a	n/a	n/a	n/a	n/a	n/a	n/a	n/a	n/a	n/a	fixation
303730.47512813518	800.0	n/a	974	71	2750	178.524871865	stim	stop-signal	519	1437564	0.0-21.16-1.16	beast_fmri_test	337	1435402,/,1436081,/,1436760,/,1437440,/	t,t,t,t	<img class = center src='/static/experiments/beast_fmri_test/images/V.png'></img>	89,71	2750.0	test	<img class = center src='/static/experiments/beast_fmri_test/images/redV.png'></img>	stop	1950.0	2.0	16.0	stop	non-target	V	89,Middle Finger	71,Index Finger	600.0	800.0	2150.0	1950.0	0.0	0.0	800.0	n/a	go_stim
305680.47512813518	1950.0	n/a	974	71	2750	178.524871865	stim	stop-signal	519	1437564	0.0-21.16-1.16	beast_fmri_test	337	1435402,/,1436081,/,1436760,/,1437440,/	t,t,t,t	<img class = center src='/static/experiments/beast_fmri_test/images/V.png'></img>	89,71	2750.0	test	<img class = center src='/static/experiments/beast_fmri_test/images/redV.png'></img>	stop	1950.0	2.0	16.0	stop	non-target	V	89,Middle Finger	71,Index Finger	600.0	800.0	2150.0	1950.0	0.0	0.0	800.0	n/a	stop_stim
306480.47512813518	178.52487186479175	n/a	974	71	2750	178.524871865	stim	stop-signal	519	1437564	0.0-21.16-1.16	beast_fmri_test	337	1435402,/,1436081,/,1436760,/,1437440,/	t,t,t,t	<img class = center src='/static/experiments/beast_fmri_test/images/V.png'></img>	89,71	2750.0	test	<img class = center src='/static/experiments/beast_fmri_test/images/redV.png'></img>	stop	1950.0	2.0	16.0	stop	non-target	V	89,Middle Finger	71,Index Finger	600.0	800.0	2150.0	1950.0	0.0	0.0	800.0	n/a	ITI
307398	500	n/a	-1	-1	500	0.0	fixation	poldrack-single-stim	520	1438303	0.0-21.17-0.17	beast_fmri_test	337	1438121,/	t	<div class = centerbox2><div class = fixation>+</div></div>	none	500.0	test	n/a	n/a	n/a	n/a	n/a	n/a	n/a	n/a	n/a	n/a	n/a	n/a	n/a	n/a	n/a	n/a	n/a	n/a	fixation
307173.02316636406	2750	n/a	1236	71	2750	226.976833636	stim	stop-signal	521	1441055	0.0-21.17-1.17	beast_fmri_test	337	1438800,/,1439480,/,1440160,/,1440839,/	t,t,t,t	<img class = center src='/static/experiments/beast_fmri_test/images/D.png'></img>	89,71	2750.0	test	<img class = center src='/static/experiments/beast_fmri_test/images/redD.png'></img>	go	2000.0	2.0	17.0	go	non-target	D	89,Middle Finger	71,Index Finger	600.0	750.0	2150.0	2000.0	1.0	n/a	750.0	1.0	go_stim
309923.02316636406	226.97683363587129	n/a	1236	71	2750	226.976833636	stim	stop-signal	521	1441055	0.0-21.17-1.17	beast_fmri_test	337	1438800,/,1439480,/,1440160,/,1440839,/	t,t,t,t	<img class = center src='/static/experiments/beast_fmri_test/images/D.png'></img>	89,71	2750.0	test	<img class = center src='/static/experiments/beast_fmri_test/images/redD.png'></img>	go	2000.0	2.0	17.0	go	non-target	D	89,Middle Finger	71,Index Finger	600.0	750.0	2150.0	2000.0	1.0	n/a	750.0	1.0	ITI
310933	500	n/a	-1	-1	500	0.0	fixation	poldrack-single-stim	522	1441838	0.0-21.18-0.18	beast_fmri_test	337	1441518,/	t	<div class = centerbox2><div class = fixation>+</div></div>	none	500.0	test	n/a	n/a	n/a	n/a	n/a	n/a	n/a	n/a	n/a	n/a	n/a	n/a	n/a	n/a	n/a	n/a	n/a	n/a	fixation
308852.65501757269	2750	n/a	1313	71	2750	2083.34498243	stim	stop-signal	523	1444591	0.0-21.18-1.18	beast_fmri_test	337	1442199,/,1442880,/,1443558,/,1444237,/,1444917,/,1445597,/,1446276,/	t,t,t,t,t,t,t	<img class = center src='/static/experiments/beast_fmri_test/images/P.png'></img>	89,71	2750.0	test	<img class = center src='/static/experiments/beast_fmri_test/images/redP.png'></img>	go	2000.0	2.0	18.0	go	non-target	P	89,Middle Finger	71,Index Finger	600.0	750.0	2150.0	2000.0	1.0	n/a	750.0	1.0	go_stim
311602.65501757269	2083.3449824273271	n/a	1313	71	2750	2083.34498243	stim	stop-signal	523	1444591	0.0-21.18-1.18	beast_fmri_test	337	1442199,/,1442880,/,1443558,/,1444237,/,1444917,/,1445597,/,1446276,/	t,t,t,t,t,t,t	<img class = center src='/static/experiments/beast_fmri_test/images/P.png'></img>	89,71	2750.0	test	<img class = center src='/static/experiments/beast_fmri_test/images/redP.png'></img>	go	2000.0	2.0	18.0	go	non-target	P	89,Middle Finger	71,Index Finger	600.0	750.0	2150.0	2000.0	1.0	n/a	750.0	1.0	ITI
316328	500	n/a	-1	-1	500	0.0	fixation	poldrack-single-stim	524	1447233	0.0-21.19-0.19	beast_fmri_test	337	1446955,/	t	<div class = centerbox2><div class = fixation>+</div></div>	none	500.0	test	n/a	n/a	n/a	n/a	n/a	n/a	n/a	n/a	n/a	n/a	n/a	n/a	n/a	n/a	n/a	n/a	n/a	n/a	fixation
315617.24635974295	750.0	n/a	-1	-1	2750	711.753640257	stim	stop-signal	525	1449984	0.0-21.19-1.19	beast_fmri_test	337	1447636,/,1448316,/,1448995,/,1449675,/,1450354,/	t,t,t,t,t	<img class = center src='/static/experiments/beast_fmri_test/images/T.png'></img>	89,71	2750.0	test	<img class = center src='/static/experiments/beast_fmri_test/images/redT.png'></img>	stop	2000.0	2.0	19.0	stop	non-target	T	89,Middle Finger	71,Index Finger	600.0	750.0	2150.0	2000.0	0.0	1.0	750.0	n/a	go_stim
317617.24635974295	2000.0	n/a	-1	-1	2750	711.753640257	stim	stop-signal	525	1449984	0.0-21.19-1.19	beast_fmri_test	337	1447636,/,1448316,/,1448995,/,1449675,/,1450354,/	t,t,t,t,t	<img class = center src='/static/experiments/beast_fmri_test/images/T.png'></img>	89,71	2750.0	test	<img class = center src='/static/experiments/beast_fmri_test/images/redT.png'></img>	stop	2000.0	2.0	19.0	stop	non-target	T	89,Middle Finger	71,Index Finger	600.0	750.0	2150.0	2000.0	0.0	1.0	750.0	n/a	stop_stim
318367.24635974295	711.75364025705369	n/a	-1	-1	2750	711.753640257	stim	stop-signal	525	1449984	0.0-21.19-1.19	beast_fmri_test	337	1447636,/,1448316,/,1448995,/,1449675,/,1450354,/	t,t,t,t,t	<img class = center src='/static/experiments/beast_fmri_test/images/T.png'></img>	89,71	2750.0	test	<img class = center src='/static/experiments/beast_fmri_test/images/redT.png'></img>	stop	2000.0	2.0	19.0	stop	non-target	T	89,Middle Finger	71,Index Finger	600.0	750.0	2150.0	2000.0	0.0	1.0	750.0	n/a	ITI
