onset	duration	"”text"""	rt	key_press	block_duration	timing_post_trial	trial_id	trial_type	trial_index	time_elapsed	internal_node_id	exp_id	subject_id	trigger_times	triggers	stimulus	possible_responses	stim_duration	exp_stage	SS_stimulus	SS_trial_type	SS_duration	load	trial_num	stop_trial_type	adaptive_trial_type	stim	yes_response_key	no_response_key	SSD_target	SSD_non_target	SSTarget	SSNonTarget	go_acc	stop_acc	SS_delay	adaptive_acc	new_trial_type
test	10880	n/a	-1	-1	10880	0.0	practice-no-stop-feedback	poldrack-single-stim	582	1694373	0.0-24.0	beast_fmri_test	337	1683497,/,1684175,/,1684853,/,1685534,/,1686213,/,1686893,/,1687572,/,1688253,/,1688931,/,1689612,/,1690292,/,1690972,/,1691651,/,1692330,/,1693010,/,1693689,/,1694369,/	t,t,t,t,t,t,t,t,t,t,t,t,t,t,t,t,t	"<div class = ""centerbox""><p class = ""block-text"">Your delay is 3 trials.</p><p class = block-text>Please wait for the scanner to start the block</p></div>"	77	10880.0	n/a	n/a	n/a	n/a	n/a	n/a	n/a	n/a	n/a	n/a	n/a	n/a	n/a	n/a	n/a	n/a	n/a	n/a	n/a	start_functional_block
11379	500	n/a	-1	-1	500	0.0	fixation	poldrack-single-stim	583	1694876	0.0-25.0-0.0	beast_fmri_test	337	n/a	n/a	<div class = centerbox2><div class = fixation>+</div></div>	none	500.0	test	n/a	n/a	n/a	n/a	n/a	n/a	n/a	n/a	n/a	n/a	n/a	n/a	n/a	n/a	n/a	n/a	n/a	n/a	fixation
11290.316567413742	2750	n/a	2223	71	2750	90.6834325862	stim	stop-signal	584	1697628	0.0-25.0-1.0	beast_fmri_test	337	1695050,/,1695730,/,1696408,/,1697087,/	t,t,t,t	<img class = center src='/static/experiments/beast_fmri_test/images/B.png'></img>	89,71	2750.0	test	<img class = center src='/static/experiments/beast_fmri_test/images/redB.png'></img>	go	-1.0	3.0	0.0	go	temp-non-target	B	89,Middle Finger	71,Index Finger	600.0	800.0	2150.0	1950.0	0.0	n/a	n/a	n/a	go_stim
14040.316567413742	90.683432586246639	n/a	2223	71	2750	90.6834325862	stim	stop-signal	584	1697628	0.0-25.0-1.0	beast_fmri_test	337	1695050,/,1695730,/,1696408,/,1697087,/	t,t,t,t	<img class = center src='/static/experiments/beast_fmri_test/images/B.png'></img>	89,71	2750.0	test	<img class = center src='/static/experiments/beast_fmri_test/images/redB.png'></img>	go	-1.0	3.0	0.0	go	temp-non-target	B	89,Middle Finger	71,Index Finger	600.0	800.0	2150.0	1950.0	0.0	n/a	n/a	n/a	ITI
14784	500	n/a	-1	-1	500	0.0	fixation	poldrack-single-stim	585	1698281	0.0-25.1-0.1	beast_fmri_test	337	1697779,/	t	<div class = centerbox2><div class = fixation>+</div></div>	none	500.0	test	n/a	n/a	n/a	n/a	n/a	n/a	n/a	n/a	n/a	n/a	n/a	n/a	n/a	n/a	n/a	n/a	n/a	n/a	fixation
12346.031019649701	2750	n/a	1289	71	2750	2439.96898035	stim	stop-signal	586	1701033	0.0-25.1-1.1	beast_fmri_test	337	1698448,/,1699128,/,1699808,/,1700487,/,1701166,/,1701846,/,1702525,/,1703206,/	t,t,t,t,t,t,t,t	<img class = center src='/static/experiments/beast_fmri_test/images/V.png'></img>	89,71	2750.0	test	<img class = center src='/static/experiments/beast_fmri_test/images/redV.png'></img>	go	-1.0	3.0	1.0	go	temp-non-target	V	89,Middle Finger	71,Index Finger	600.0	800.0	2150.0	1950.0	0.0	n/a	n/a	n/a	go_stim
15096.031019649701	2439.9689803501842	n/a	1289	71	2750	2439.96898035	stim	stop-signal	586	1701033	0.0-25.1-1.1	beast_fmri_test	337	1698448,/,1699128,/,1699808,/,1700487,/,1701166,/,1701846,/,1702525,/,1703206,/	t,t,t,t,t,t,t,t	<img class = center src='/static/experiments/beast_fmri_test/images/V.png'></img>	89,71	2750.0	test	<img class = center src='/static/experiments/beast_fmri_test/images/redV.png'></img>	go	-1.0	3.0	1.0	go	temp-non-target	V	89,Middle Finger	71,Index Finger	600.0	800.0	2150.0	1950.0	0.0	n/a	n/a	n/a	ITI
20534	500	n/a	-1	-1	500	0.0	fixation	poldrack-single-stim	587	1704031	0.0-25.2-0.2	beast_fmri_test	337	1703884,/	t	<div class = centerbox2><div class = fixation>+</div></div>	none	500.0	test	n/a	n/a	n/a	n/a	n/a	n/a	n/a	n/a	n/a	n/a	n/a	n/a	n/a	n/a	n/a	n/a	n/a	n/a	fixation
19626.948898233473	temp_go_duration	n/a	877	71	2750	908.051101766	stim	stop-signal	588	1706782	0.0-25.2-1.2	beast_fmri_test	337	1704565,/,1705245,/,1705923,/,1706603,/,1707284,/	t,t,t,t,t	<img class = center src='/static/experiments/beast_fmri_test/images/P.png'></img>	89,71	2750.0	test	<img class = center src='/static/experiments/beast_fmri_test/images/redP.png'></img>	stop	-1.0	3.0	2.0	stop	temp-non-target	P	89,Middle Finger	71,Index Finger	600.0	800.0	2150.0	1950.0	0.0	0.0	n/a	n/a	go_stim
temp-non-target	temp_stop_duration	n/a	877	71	2750	908.051101766	stim	stop-signal	588	1706782	0.0-25.2-1.2	beast_fmri_test	337	1704565,/,1705245,/,1705923,/,1706603,/,1707284,/	t,t,t,t,t	<img class = center src='/static/experiments/beast_fmri_test/images/P.png'></img>	89,71	2750.0	test	<img class = center src='/static/experiments/beast_fmri_test/images/redP.png'></img>	stop	-1.0	3.0	2.0	stop	temp-non-target	P	89,Middle Finger	71,Index Finger	600.0	800.0	2150.0	1950.0	0.0	0.0	n/a	n/a	stop_stim
22376.948898233473	908.05110176646076	n/a	877	71	2750	908.051101766	stim	stop-signal	588	1706782	0.0-25.2-1.2	beast_fmri_test	337	1704565,/,1705245,/,1705923,/,1706603,/,1707284,/	t,t,t,t,t	<img class = center src='/static/experiments/beast_fmri_test/images/P.png'></img>	89,71	2750.0	test	<img class = center src='/static/experiments/beast_fmri_test/images/redP.png'></img>	stop	-1.0	3.0	2.0	stop	temp-non-target	P	89,Middle Finger	71,Index Finger	600.0	800.0	2150.0	1950.0	0.0	0.0	n/a	n/a	ITI
24756	500	n/a	-1	-1	500	0.0	fixation	poldrack-single-stim	589	1708253	0.0-25.3-0.3	beast_fmri_test	337	1707964,/	t	<div class = centerbox2><div class = fixation>+</div></div>	none	500.0	test	n/a	n/a	n/a	n/a	n/a	n/a	n/a	n/a	n/a	n/a	n/a	n/a	n/a	n/a	n/a	n/a	n/a	n/a	fixation
24522.039779279381	2750	n/a	776	89	2750	239.960220721	stim	stop-signal	590	1711009	0.0-25.3-1.3	beast_fmri_test	337	1708644,/,1709323,/,1710003,/,1710684,/	t,t,t,t	<img class = center src='/static/experiments/beast_fmri_test/images/B.png'></img>	89,71	2750.0	test	<img class = center src='/static/experiments/beast_fmri_test/images/redB.png'></img>	go	2150.0	3.0	3.0	go	target	B	89,Middle Finger	71,Index Finger	600.0	800.0	2150.0	1950.0	1.0	n/a	600.0	1.0	go_stim
27272.039779279381	239.96022072069289	n/a	776	89	2750	239.960220721	stim	stop-signal	590	1711009	0.0-25.3-1.3	beast_fmri_test	337	1708644,/,1709323,/,1710003,/,1710684,/	t,t,t,t	<img class = center src='/static/experiments/beast_fmri_test/images/B.png'></img>	89,71	2750.0	test	<img class = center src='/static/experiments/beast_fmri_test/images/redB.png'></img>	go	2150.0	3.0	3.0	go	target	B	89,Middle Finger	71,Index Finger	600.0	800.0	2150.0	1950.0	1.0	n/a	600.0	1.0	ITI
28312	500	n/a	-1	-1	500	0.0	fixation	poldrack-single-stim	591	1711809	0.0-25.4-0.4	beast_fmri_test	337	1711361,/	t	<div class = centerbox2><div class = fixation>+</div></div>	none	500.0	test	n/a	n/a	n/a	n/a	n/a	n/a	n/a	n/a	n/a	n/a	n/a	n/a	n/a	n/a	n/a	n/a	n/a	n/a	fixation
27491.899407039629	2750	n/a	715	89	2750	822.10059296	stim	stop-signal	592	1714561	0.0-25.4-1.4	beast_fmri_test	337	1712042,/,1712722,/,1713402,/,1714081,/,1714761,/	t,t,t,t,t	<img class = center src='/static/experiments/beast_fmri_test/images/V.png'></img>	89,71	2750.0	test	<img class = center src='/static/experiments/beast_fmri_test/images/redV.png'></img>	go	2150.0	3.0	4.0	go	target	V	89,Middle Finger	71,Index Finger	600.0	800.0	2150.0	1950.0	1.0	n/a	600.0	1.0	go_stim
30241.899407039629	822.10059296028226	n/a	715	89	2750	822.10059296	stim	stop-signal	592	1714561	0.0-25.4-1.4	beast_fmri_test	337	1712042,/,1712722,/,1713402,/,1714081,/,1714761,/	t,t,t,t,t	<img class = center src='/static/experiments/beast_fmri_test/images/V.png'></img>	89,71	2750.0	test	<img class = center src='/static/experiments/beast_fmri_test/images/redV.png'></img>	go	2150.0	3.0	4.0	go	target	V	89,Middle Finger	71,Index Finger	600.0	800.0	2150.0	1950.0	1.0	n/a	600.0	1.0	ITI
32453	500	n/a	-1	-1	500	0.0	fixation	poldrack-single-stim	593	1715950	0.0-25.5-0.5	beast_fmri_test	337	1715447,/	t	<div class = centerbox2><div class = fixation>+</div></div>	none	500.0	test	n/a	n/a	n/a	n/a	n/a	n/a	n/a	n/a	n/a	n/a	n/a	n/a	n/a	n/a	n/a	n/a	n/a	n/a	fixation
31754.093475917587	2750	n/a	742	71	2750	700.906524082	stim	stop-signal	594	1718702	0.0-25.5-1.5	beast_fmri_test	337	1716119,/,1716799,/,1717478,/,1718160,/,1718838,/	t,t,t,t,t	<img class = center src='/static/experiments/beast_fmri_test/images/D.png'></img>	89,71	2750.0	test	<img class = center src='/static/experiments/beast_fmri_test/images/redD.png'></img>	go	1950.0	3.0	5.0	go	non-target	D	89,Middle Finger	71,Index Finger	600.0	800.0	2150.0	1950.0	1.0	n/a	800.0	1.0	go_stim
34504.093475917587	700.90652408229812	n/a	742	71	2750	700.906524082	stim	stop-signal	594	1718702	0.0-25.5-1.5	beast_fmri_test	337	1716119,/,1716799,/,1717478,/,1718160,/,1718838,/	t,t,t,t,t	<img class = center src='/static/experiments/beast_fmri_test/images/D.png'></img>	89,71	2750.0	test	<img class = center src='/static/experiments/beast_fmri_test/images/redD.png'></img>	go	1950.0	3.0	5.0	go	non-target	D	89,Middle Finger	71,Index Finger	600.0	800.0	2150.0	1950.0	1.0	n/a	800.0	1.0	ITI
36471	500	n/a	-1	-1	500	0.0	fixation	poldrack-single-stim	595	1719968	0.0-25.6-0.6	beast_fmri_test	337	1719518,/	t	<div class = centerbox2><div class = fixation>+</div></div>	none	500.0	test	n/a	n/a	n/a	n/a	n/a	n/a	n/a	n/a	n/a	n/a	n/a	n/a	n/a	n/a	n/a	n/a	n/a	n/a	fixation
35424.56226205267	2750	n/a	1264	71	2750	1048.43773795	stim	stop-signal	596	1722720	0.0-25.6-1.6	beast_fmri_test	337	1720198,/,1720878,/,1721557,/,1722236,/,1722917,/,1723596,/	t,t,t,t,t,t	<img class = center src='/static/experiments/beast_fmri_test/images/T.png'></img>	89,71	2750.0	test	<img class = center src='/static/experiments/beast_fmri_test/images/redT.png'></img>	go	1950.0	3.0	6.0	go	non-target	T	89,Middle Finger	71,Index Finger	600.0	800.0	2150.0	1950.0	1.0	n/a	800.0	1.0	go_stim
38174.56226205267	1048.4377379473403	n/a	1264	71	2750	1048.43773795	stim	stop-signal	596	1722720	0.0-25.6-1.6	beast_fmri_test	337	1720198,/,1720878,/,1721557,/,1722236,/,1722917,/,1723596,/	t,t,t,t,t,t	<img class = center src='/static/experiments/beast_fmri_test/images/T.png'></img>	89,71	2750.0	test	<img class = center src='/static/experiments/beast_fmri_test/images/redT.png'></img>	go	1950.0	3.0	6.0	go	non-target	T	89,Middle Finger	71,Index Finger	600.0	800.0	2150.0	1950.0	1.0	n/a	800.0	1.0	ITI
40832	500	n/a	-1	-1	500	0.0	fixation	poldrack-single-stim	597	1724329	0.0-25.7-0.7	beast_fmri_test	337	1724277,/	t	<div class = centerbox2><div class = fixation>+</div></div>	none	500.0	test	n/a	n/a	n/a	n/a	n/a	n/a	n/a	n/a	n/a	n/a	n/a	n/a	n/a	n/a	n/a	n/a	n/a	n/a	fixation
39969.34286535834	800.0	n/a	996	89	2750	863.657134642	stim	stop-signal	598	1727080	0.0-25.7-1.7	beast_fmri_test	337	1724956,/,1725636,/,1726315,/,1726994,/,1727673,/	t,t,t,t,t	<img class = center src='/static/experiments/beast_fmri_test/images/T.png'></img>	89,71	2750.0	test	<img class = center src='/static/experiments/beast_fmri_test/images/redT.png'></img>	stop	1950.0	3.0	7.0	stop	non-target	T	89,Middle Finger	71,Index Finger	600.0	800.0	2150.0	1950.0	0.0	0.0	800.0	n/a	go_stim
41919.34286535834	1950.0	n/a	996	89	2750	863.657134642	stim	stop-signal	598	1727080	0.0-25.7-1.7	beast_fmri_test	337	1724956,/,1725636,/,1726315,/,1726994,/,1727673,/	t,t,t,t,t	<img class = center src='/static/experiments/beast_fmri_test/images/T.png'></img>	89,71	2750.0	test	<img class = center src='/static/experiments/beast_fmri_test/images/redT.png'></img>	stop	1950.0	3.0	7.0	stop	non-target	T	89,Middle Finger	71,Index Finger	600.0	800.0	2150.0	1950.0	0.0	0.0	800.0	n/a	stop_stim
42719.34286535834	863.65713464158091	n/a	996	89	2750	863.657134642	stim	stop-signal	598	1727080	0.0-25.7-1.7	beast_fmri_test	337	1724956,/,1725636,/,1726315,/,1726994,/,1727673,/	t,t,t,t,t	<img class = center src='/static/experiments/beast_fmri_test/images/T.png'></img>	89,71	2750.0	test	<img class = center src='/static/experiments/beast_fmri_test/images/redT.png'></img>	stop	1950.0	3.0	7.0	stop	non-target	T	89,Middle Finger	71,Index Finger	600.0	800.0	2150.0	1950.0	0.0	0.0	800.0	n/a	ITI
45007	500	n/a	-1	-1	500	0.0	fixation	poldrack-single-stim	599	1728504	0.0-25.8-0.8	beast_fmri_test	337	1728353,/	t	<div class = centerbox2><div class = fixation>+</div></div>	none	500.0	test	n/a	n/a	n/a	n/a	n/a	n/a	n/a	n/a	n/a	n/a	n/a	n/a	n/a	n/a	n/a	n/a	n/a	n/a	fixation
44035.347727976274	2750	n/a	1304	89	2750	972.652272024	stim	stop-signal	600	1731255	0.0-25.8-1.8	beast_fmri_test	337	1729034,/,1729712,/,1730391,/,1731075,/,1731751,/	t,t,t,t,t	<img class = center src='/static/experiments/beast_fmri_test/images/V.png'></img>	89,71	2750.0	test	<img class = center src='/static/experiments/beast_fmri_test/images/redV.png'></img>	go	2000.0	3.0	8.0	go	non-target	V	89,Middle Finger	71,Index Finger	600.0	750.0	2150.0	2000.0	0.0	n/a	750.0	0.0	go_stim
46785.347727976274	972.65227202361621	n/a	1304	89	2750	972.652272024	stim	stop-signal	600	1731255	0.0-25.8-1.8	beast_fmri_test	337	1729034,/,1729712,/,1730391,/,1731075,/,1731751,/	t,t,t,t,t	<img class = center src='/static/experiments/beast_fmri_test/images/V.png'></img>	89,71	2750.0	test	<img class = center src='/static/experiments/beast_fmri_test/images/redV.png'></img>	go	2000.0	3.0	8.0	go	non-target	V	89,Middle Finger	71,Index Finger	600.0	750.0	2150.0	2000.0	0.0	n/a	750.0	0.0	ITI
49292	500	n/a	-1	-1	500	0.0	fixation	poldrack-single-stim	601	1732789	0.0-25.9-0.9	beast_fmri_test	337	1732431,/	t	<div class = centerbox2><div class = fixation>+</div></div>	none	500.0	test	n/a	n/a	n/a	n/a	n/a	n/a	n/a	n/a	n/a	n/a	n/a	n/a	n/a	n/a	n/a	n/a	n/a	n/a	fixation
49023.99101679842	2750	n/a	1455	89	2750	269.008983201	stim	stop-signal	602	1735540	0.0-25.9-1.9	beast_fmri_test	337	1733110,/,1733791,/,1734470,/,1735150,/	t,t,t,t	<img class = center src='/static/experiments/beast_fmri_test/images/T.png'></img>	89,71	2750.0	test	<img class = center src='/static/experiments/beast_fmri_test/images/redT.png'></img>	go	2150.0	3.0	9.0	go	target	T	89,Middle Finger	71,Index Finger	600.0	750.0	2150.0	2000.0	1.0	n/a	600.0	1.0	go_stim
51773.99101679842	269.00898320148508	n/a	1455	89	2750	269.008983201	stim	stop-signal	602	1735540	0.0-25.9-1.9	beast_fmri_test	337	1733110,/,1733791,/,1734470,/,1735150,/	t,t,t,t	<img class = center src='/static/experiments/beast_fmri_test/images/T.png'></img>	89,71	2750.0	test	<img class = center src='/static/experiments/beast_fmri_test/images/redT.png'></img>	go	2150.0	3.0	9.0	go	target	T	89,Middle Finger	71,Index Finger	600.0	750.0	2150.0	2000.0	1.0	n/a	600.0	1.0	ITI
52873	500	n/a	-1	-1	500	0.0	fixation	poldrack-single-stim	603	1736370	0.0-25.10-0.10	beast_fmri_test	337	1735870,/	t	<div class = centerbox2><div class = fixation>+</div></div>	none	500.0	test	n/a	n/a	n/a	n/a	n/a	n/a	n/a	n/a	n/a	n/a	n/a	n/a	n/a	n/a	n/a	n/a	n/a	n/a	fixation
50006.538941563573	750.0	n/a	-1	-1	2750	2868.46105844	stim	stop-signal	604	1739122	0.0-25.10-1.10	beast_fmri_test	337	1736509,/,1737190,/,1737869,/,1738551,/,1739228,/,1739908,/,1740587,/,1741267,/,1741947,/	t,t,t,t,t,t,t,t,t	<img class = center src='/static/experiments/beast_fmri_test/images/B.png'></img>	89,71	2750.0	test	<img class = center src='/static/experiments/beast_fmri_test/images/redB.png'></img>	stop	2000.0	3.0	10.0	stop	non-target	B	89,Middle Finger	71,Index Finger	600.0	750.0	2150.0	2000.0	0.0	1.0	750.0	n/a	go_stim
52006.538941563573	2000.0	n/a	-1	-1	2750	2868.46105844	stim	stop-signal	604	1739122	0.0-25.10-1.10	beast_fmri_test	337	1736509,/,1737190,/,1737869,/,1738551,/,1739228,/,1739908,/,1740587,/,1741267,/,1741947,/	t,t,t,t,t,t,t,t,t	<img class = center src='/static/experiments/beast_fmri_test/images/B.png'></img>	89,71	2750.0	test	<img class = center src='/static/experiments/beast_fmri_test/images/redB.png'></img>	stop	2000.0	3.0	10.0	stop	non-target	B	89,Middle Finger	71,Index Finger	600.0	750.0	2150.0	2000.0	0.0	1.0	750.0	n/a	stop_stim
52756.538941563573	2868.4610584364191	n/a	-1	-1	2750	2868.46105844	stim	stop-signal	604	1739122	0.0-25.10-1.10	beast_fmri_test	337	1736509,/,1737190,/,1737869,/,1738551,/,1739228,/,1739908,/,1740587,/,1741267,/,1741947,/	t,t,t,t,t,t,t,t,t	<img class = center src='/static/experiments/beast_fmri_test/images/B.png'></img>	89,71	2750.0	test	<img class = center src='/static/experiments/beast_fmri_test/images/redB.png'></img>	stop	2000.0	3.0	10.0	stop	non-target	B	89,Middle Finger	71,Index Finger	600.0	750.0	2150.0	2000.0	0.0	1.0	750.0	n/a	ITI
59066	500	n/a	-1	-1	500	0.0	fixation	poldrack-single-stim	605	1742563	0.0-25.11-0.11	beast_fmri_test	337	n/a	n/a	<div class = centerbox2><div class = fixation>+</div></div>	none	500.0	test	n/a	n/a	n/a	n/a	n/a	n/a	n/a	n/a	n/a	n/a	n/a	n/a	n/a	n/a	n/a	n/a	n/a	n/a	fixation
56666.447383866413	2750	n/a	896	71	2750	2399.55261613	stim	stop-signal	606	1745313	0.0-25.11-1.11	beast_fmri_test	337	1742627,/,1743307,/,1743986,/,1744666,/,1745345,/,1746025,/,1746704,/,1747384,/	t,t,t,t,t,t,t,t	<img class = center src='/static/experiments/beast_fmri_test/images/P.png'></img>	89,71	2750.0	test	<img class = center src='/static/experiments/beast_fmri_test/images/redP.png'></img>	go	1950.0	3.0	11.0	go	non-target	P	89,Middle Finger	71,Index Finger	600.0	800.0	2150.0	1950.0	1.0	n/a	800.0	1.0	go_stim
59416.447383866413	2399.5526161335074	n/a	896	71	2750	2399.55261613	stim	stop-signal	606	1745313	0.0-25.11-1.11	beast_fmri_test	337	1742627,/,1743307,/,1743986,/,1744666,/,1745345,/,1746025,/,1746704,/,1747384,/	t,t,t,t,t,t,t,t	<img class = center src='/static/experiments/beast_fmri_test/images/P.png'></img>	89,71	2750.0	test	<img class = center src='/static/experiments/beast_fmri_test/images/redP.png'></img>	go	1950.0	3.0	11.0	go	non-target	P	89,Middle Finger	71,Index Finger	600.0	800.0	2150.0	1950.0	1.0	n/a	800.0	1.0	ITI
64778	500	n/a	-1	-1	500	0.0	fixation	poldrack-single-stim	607	1748275	0.0-25.12-0.12	beast_fmri_test	337	1748064,/	t	<div class = centerbox2><div class = fixation>+</div></div>	none	500.0	test	n/a	n/a	n/a	n/a	n/a	n/a	n/a	n/a	n/a	n/a	n/a	n/a	n/a	n/a	n/a	n/a	n/a	n/a	fixation
64742.478499489371	2750	n/a	898	89	2750	44.5215005107	stim	stop-signal	608	1751034	0.0-25.12-1.12	beast_fmri_test	337	1748744,/,1749423,/,1750104,/,1750782,/	t,t,t,t	<img class = center src='/static/experiments/beast_fmri_test/images/B.png'></img>	89,71	2750.0	test	<img class = center src='/static/experiments/beast_fmri_test/images/redB.png'></img>	go	1950.0	3.0	12.0	go	non-target	B	89,Middle Finger	71,Index Finger	600.0	800.0	2150.0	1950.0	0.0	n/a	800.0	0.0	go_stim
67492.478499489371	44.521500510710233	n/a	898	89	2750	44.5215005107	stim	stop-signal	608	1751034	0.0-25.12-1.12	beast_fmri_test	337	1748744,/,1749423,/,1750104,/,1750782,/	t,t,t,t	<img class = center src='/static/experiments/beast_fmri_test/images/B.png'></img>	89,71	2750.0	test	<img class = center src='/static/experiments/beast_fmri_test/images/redB.png'></img>	go	1950.0	3.0	12.0	go	non-target	B	89,Middle Finger	71,Index Finger	600.0	800.0	2150.0	1950.0	0.0	n/a	800.0	0.0	ITI
68144	500	n/a	-1	-1	500	0.0	fixation	poldrack-single-stim	609	1751641	0.0-25.13-0.13	beast_fmri_test	337	1751462,/	t	<div class = centerbox2><div class = fixation>+</div></div>	none	500.0	test	n/a	n/a	n/a	n/a	n/a	n/a	n/a	n/a	n/a	n/a	n/a	n/a	n/a	n/a	n/a	n/a	n/a	n/a	fixation
67776.359987240983	2750	n/a	1519	71	2750	369.640012759	stim	stop-signal	610	1754393	0.0-25.13-1.13	beast_fmri_test	337	1752143,/,1752822,/,1753502,/,1754181,/	t,t,t,t	<img class = center src='/static/experiments/beast_fmri_test/images/V.png'></img>	89,71	2750.0	test	<img class = center src='/static/experiments/beast_fmri_test/images/redV.png'></img>	go	1950.0	3.0	13.0	go	non-target	V	89,Middle Finger	71,Index Finger	600.0	800.0	2150.0	1950.0	1.0	n/a	800.0	1.0	go_stim
70526.359987240983	369.64001275903649	n/a	1519	71	2750	369.640012759	stim	stop-signal	610	1754393	0.0-25.13-1.13	beast_fmri_test	337	1752143,/,1752822,/,1753502,/,1754181,/	t,t,t,t	<img class = center src='/static/experiments/beast_fmri_test/images/V.png'></img>	89,71	2750.0	test	<img class = center src='/static/experiments/beast_fmri_test/images/redV.png'></img>	go	1950.0	3.0	13.0	go	non-target	V	89,Middle Finger	71,Index Finger	600.0	800.0	2150.0	1950.0	1.0	n/a	800.0	1.0	ITI
71828	500	n/a	-1	-1	500	0.0	fixation	poldrack-single-stim	611	1755325	0.0-25.14-0.14	beast_fmri_test	337	1754861,/	t	<div class = centerbox2><div class = fixation>+</div></div>	none	500.0	test	n/a	n/a	n/a	n/a	n/a	n/a	n/a	n/a	n/a	n/a	n/a	n/a	n/a	n/a	n/a	n/a	n/a	n/a	fixation
71323.871181912953	600.0	n/a	-1	-1	2750	507.128818087	stim	stop-signal	612	1758078	0.0-25.14-1.14	beast_fmri_test	337	1755540,/,1756220,/,1756900,/,1757580,/,1758260,/	t,t,t,t,t	<img class = center src='/static/experiments/beast_fmri_test/images/P.png'></img>	89,71	2750.0	test	<img class = center src='/static/experiments/beast_fmri_test/images/redP.png'></img>	stop	2150.0	3.0	14.0	stop	target	P	89,Middle Finger	71,Index Finger	600.0	800.0	2150.0	1950.0	0.0	1.0	600.0	n/a	go_stim
73473.871181912953	2150.0	n/a	-1	-1	2750	507.128818087	stim	stop-signal	612	1758078	0.0-25.14-1.14	beast_fmri_test	337	1755540,/,1756220,/,1756900,/,1757580,/,1758260,/	t,t,t,t,t	<img class = center src='/static/experiments/beast_fmri_test/images/P.png'></img>	89,71	2750.0	test	<img class = center src='/static/experiments/beast_fmri_test/images/redP.png'></img>	stop	2150.0	3.0	14.0	stop	target	P	89,Middle Finger	71,Index Finger	600.0	800.0	2150.0	1950.0	0.0	1.0	600.0	n/a	stop_stim
74073.871181912953	507.12881808706231	n/a	-1	-1	2750	507.128818087	stim	stop-signal	612	1758078	0.0-25.14-1.14	beast_fmri_test	337	1755540,/,1756220,/,1756900,/,1757580,/,1758260,/	t,t,t,t,t	<img class = center src='/static/experiments/beast_fmri_test/images/P.png'></img>	89,71	2750.0	test	<img class = center src='/static/experiments/beast_fmri_test/images/redP.png'></img>	stop	2150.0	3.0	14.0	stop	target	P	89,Middle Finger	71,Index Finger	600.0	800.0	2150.0	1950.0	0.0	1.0	600.0	n/a	ITI
75664	500	n/a	-1	-1	500	0.0	fixation	poldrack-single-stim	613	1759161	0.0-25.15-0.15	beast_fmri_test	337	1758939,/	t	<div class = centerbox2><div class = fixation>+</div></div>	none	500.0	test	n/a	n/a	n/a	n/a	n/a	n/a	n/a	n/a	n/a	n/a	n/a	n/a	n/a	n/a	n/a	n/a	n/a	n/a	fixation
73580.904498700285	2750	n/a	940	71	2750	2083.0955013	stim	stop-signal	614	1761911	0.0-25.15-1.15	beast_fmri_test	337	1759618,/,1760299,/,1760978,/,1761658,/,1762337,/,1763017,/,1763696,/	t,t,t,t,t,t,t	<img class = center src='/static/experiments/beast_fmri_test/images/T.png'></img>	89,71	2750.0	test	<img class = center src='/static/experiments/beast_fmri_test/images/redT.png'></img>	go	1950.0	3.0	15.0	go	non-target	T	89,Middle Finger	71,Index Finger	650.0	800.0	2150.0	1950.0	1.0	n/a	800.0	1.0	go_stim
76330.904498700285	2083.0955012996219	n/a	940	71	2750	2083.0955013	stim	stop-signal	614	1761911	0.0-25.15-1.15	beast_fmri_test	337	1759618,/,1760299,/,1760978,/,1761658,/,1762337,/,1763017,/,1763696,/	t,t,t,t,t,t,t	<img class = center src='/static/experiments/beast_fmri_test/images/T.png'></img>	89,71	2750.0	test	<img class = center src='/static/experiments/beast_fmri_test/images/redT.png'></img>	go	1950.0	3.0	15.0	go	non-target	T	89,Middle Finger	71,Index Finger	650.0	800.0	2150.0	1950.0	1.0	n/a	800.0	1.0	ITI
81062	500	n/a	-1	-1	500	0.0	fixation	poldrack-single-stim	615	1764559	0.0-25.16-0.16	beast_fmri_test	337	1764376,/	t	<div class = centerbox2><div class = fixation>+</div></div>	none	500.0	test	n/a	n/a	n/a	n/a	n/a	n/a	n/a	n/a	n/a	n/a	n/a	n/a	n/a	n/a	n/a	n/a	n/a	n/a	fixation
80462.965383954113	2750	n/a	1559	89	2750	599.034616046	stim	stop-signal	616	1767309	0.0-25.16-1.16	beast_fmri_test	337	1765056,/,1765737,/,1766417,/,1767096,/,1767776,/	t,t,t,t,t	<img class = center src='/static/experiments/beast_fmri_test/images/V.png'></img>	89,71	2750.0	test	<img class = center src='/static/experiments/beast_fmri_test/images/redV.png'></img>	go	2100.0	3.0	16.0	go	target	V	89,Middle Finger	71,Index Finger	650.0	800.0	2100.0	1950.0	1.0	n/a	650.0	1.0	go_stim
83212.965383954113	599.03461604593861	n/a	1559	89	2750	599.034616046	stim	stop-signal	616	1767309	0.0-25.16-1.16	beast_fmri_test	337	1765056,/,1765737,/,1766417,/,1767096,/,1767776,/	t,t,t,t,t	<img class = center src='/static/experiments/beast_fmri_test/images/V.png'></img>	89,71	2750.0	test	<img class = center src='/static/experiments/beast_fmri_test/images/redV.png'></img>	go	2100.0	3.0	16.0	go	target	V	89,Middle Finger	71,Index Finger	650.0	800.0	2100.0	1950.0	1.0	n/a	650.0	1.0	ITI
84977	500	n/a	-1	-1	500	0.0	fixation	poldrack-single-stim	617	1768474	0.0-25.17-0.17	beast_fmri_test	337	1768455,/	t	<div class = centerbox2><div class = fixation>+</div></div>	none	500.0	test	n/a	n/a	n/a	n/a	n/a	n/a	n/a	n/a	n/a	n/a	n/a	n/a	n/a	n/a	n/a	n/a	n/a	n/a	fixation
84823.375076886499	2750	n/a	1222	71	2750	155.624923113	stim	stop-signal	618	1771226	0.0-25.17-1.17	beast_fmri_test	337	1769135,/,1769814,/,1770494,/,1771174,/	t,t,t,t	<img class = center src='/static/experiments/beast_fmri_test/images/D.png'></img>	89,71	2750.0	test	<img class = center src='/static/experiments/beast_fmri_test/images/redD.png'></img>	go	1950.0	3.0	17.0	go	non-target	D	89,Middle Finger	71,Index Finger	650.0	800.0	2100.0	1950.0	1.0	n/a	800.0	1.0	go_stim
87573.375076886499	155.62492311342217	n/a	1222	71	2750	155.624923113	stim	stop-signal	618	1771226	0.0-25.17-1.17	beast_fmri_test	337	1769135,/,1769814,/,1770494,/,1771174,/	t,t,t,t	<img class = center src='/static/experiments/beast_fmri_test/images/D.png'></img>	89,71	2750.0	test	<img class = center src='/static/experiments/beast_fmri_test/images/redD.png'></img>	go	1950.0	3.0	17.0	go	non-target	D	89,Middle Finger	71,Index Finger	650.0	800.0	2100.0	1950.0	1.0	n/a	800.0	1.0	ITI
88449	500	n/a	-1	-1	500	0.0	fixation	poldrack-single-stim	619	1771946	0.0-25.18-0.18	beast_fmri_test	337	1771854,/	t	<div class = centerbox2><div class = fixation>+</div></div>	none	500.0	test	n/a	n/a	n/a	n/a	n/a	n/a	n/a	n/a	n/a	n/a	n/a	n/a	n/a	n/a	n/a	n/a	n/a	n/a	fixation
88172.316671335837	2750	n/a	1905	71	2750	277.683328664	stim	stop-signal	620	1774697	0.0-25.18-1.18	beast_fmri_test	337	1772535,/,1773213,/,1773894,/,1774574,/	t,t,t,t	<img class = center src='/static/experiments/beast_fmri_test/images/B.png'></img>	89,71	2750.0	test	<img class = center src='/static/experiments/beast_fmri_test/images/redB.png'></img>	go	1950.0	3.0	18.0	go	non-target	B	89,Middle Finger	71,Index Finger	650.0	800.0	2100.0	1950.0	1.0	n/a	800.0	1.0	go_stim
90922.316671335837	277.68332866422003	n/a	1905	71	2750	277.683328664	stim	stop-signal	620	1774697	0.0-25.18-1.18	beast_fmri_test	337	1772535,/,1773213,/,1773894,/,1774574,/	t,t,t,t	<img class = center src='/static/experiments/beast_fmri_test/images/B.png'></img>	89,71	2750.0	test	<img class = center src='/static/experiments/beast_fmri_test/images/redB.png'></img>	go	1950.0	3.0	18.0	go	non-target	B	89,Middle Finger	71,Index Finger	650.0	800.0	2100.0	1950.0	1.0	n/a	800.0	1.0	ITI
92057	500	n/a	-1	-1	500	0.0	fixation	poldrack-single-stim	621	1775554	0.0-25.19-0.19	beast_fmri_test	337	1775252,/	t	<div class = centerbox2><div class = fixation>+</div></div>	none	500.0	test	n/a	n/a	n/a	n/a	n/a	n/a	n/a	n/a	n/a	n/a	n/a	n/a	n/a	n/a	n/a	n/a	n/a	n/a	fixation
91544.916225168388	2750	n/a	900	89	2750	513.083774832	stim	stop-signal	622	1778305	0.0-25.19-1.19	beast_fmri_test	337	1775934,/,1776612,/,1777291,/,1777972,/,1778650,/	t,t,t,t,t	<img class = center src='/static/experiments/beast_fmri_test/images/T.png'></img>	89,71	2750.0	test	<img class = center src='/static/experiments/beast_fmri_test/images/redT.png'></img>	go	1950.0	3.0	19.0	go	non-target	T	89,Middle Finger	71,Index Finger	650.0	800.0	2100.0	1950.0	0.0	n/a	800.0	0.0	go_stim
94294.916225168388	513.08377483167965	n/a	900	89	2750	513.083774832	stim	stop-signal	622	1778305	0.0-25.19-1.19	beast_fmri_test	337	1775934,/,1776612,/,1777291,/,1777972,/,1778650,/	t,t,t,t,t	<img class = center src='/static/experiments/beast_fmri_test/images/T.png'></img>	89,71	2750.0	test	<img class = center src='/static/experiments/beast_fmri_test/images/redT.png'></img>	go	1950.0	3.0	19.0	go	non-target	T	89,Middle Finger	71,Index Finger	650.0	800.0	2100.0	1950.0	0.0	n/a	800.0	0.0	ITI
95898	500	n/a	-1	-1	500	0.0	fixation	poldrack-single-stim	623	1779395	0.0-25.20-0.20	beast_fmri_test	337	1779330,/	t	<div class = centerbox2><div class = fixation>+</div></div>	none	500.0	test	n/a	n/a	n/a	n/a	n/a	n/a	n/a	n/a	n/a	n/a	n/a	n/a	n/a	n/a	n/a	n/a	n/a	n/a	fixation
95021.313410987612	650.0	n/a	-1	-1	2750	878.686589012	stim	stop-signal	624	1782147	0.0-25.20-1.20	beast_fmri_test	337	1780010,/,1780689,/,1781370,/,1782049,/,1782728,/	t,t,t,t,t	<img class = center src='/static/experiments/beast_fmri_test/images/D.png'></img>	89,71	2750.0	test	<img class = center src='/static/experiments/beast_fmri_test/images/redD.png'></img>	stop	2100.0	3.0	20.0	stop	target	D	89,Middle Finger	71,Index Finger	650.0	800.0	2100.0	1950.0	0.0	1.0	650.0	n/a	go_stim
97121.313410987612	2100.0	n/a	-1	-1	2750	878.686589012	stim	stop-signal	624	1782147	0.0-25.20-1.20	beast_fmri_test	337	1780010,/,1780689,/,1781370,/,1782049,/,1782728,/	t,t,t,t,t	<img class = center src='/static/experiments/beast_fmri_test/images/D.png'></img>	89,71	2750.0	test	<img class = center src='/static/experiments/beast_fmri_test/images/redD.png'></img>	stop	2100.0	3.0	20.0	stop	target	D	89,Middle Finger	71,Index Finger	650.0	800.0	2100.0	1950.0	0.0	1.0	650.0	n/a	stop_stim
97771.313410987612	878.68658901234846	n/a	-1	-1	2750	878.686589012	stim	stop-signal	624	1782147	0.0-25.20-1.20	beast_fmri_test	337	1780010,/,1780689,/,1781370,/,1782049,/,1782728,/	t,t,t,t,t	<img class = center src='/static/experiments/beast_fmri_test/images/D.png'></img>	89,71	2750.0	test	<img class = center src='/static/experiments/beast_fmri_test/images/redD.png'></img>	stop	2100.0	3.0	20.0	stop	target	D	89,Middle Finger	71,Index Finger	650.0	800.0	2100.0	1950.0	0.0	1.0	650.0	n/a	ITI
100092	500	n/a	-1	-1	500	0.0	fixation	poldrack-single-stim	625	1783589	0.0-25.21-0.21	beast_fmri_test	337	1783408,/	t	<div class = centerbox2><div class = fixation>+</div></div>	none	500.0	test	n/a	n/a	n/a	n/a	n/a	n/a	n/a	n/a	n/a	n/a	n/a	n/a	n/a	n/a	n/a	n/a	n/a	n/a	fixation
99494.089573674137	2750	n/a	1399	89	2750	598.910426326	stim	stop-signal	626	1786340	0.0-25.21-1.21	beast_fmri_test	337	1784088,/,1784770,/,1785447,/,1786127,/,1786806,/	t,t,t,t,t	<img class = center src='/static/experiments/beast_fmri_test/images/D.png'></img>	89,71	2750.0	test	<img class = center src='/static/experiments/beast_fmri_test/images/redD.png'></img>	go	1950.0	3.0	21.0	go	non-target	D	89,Middle Finger	71,Index Finger	700.0	800.0	2100.0	1950.0	0.0	n/a	800.0	0.0	go_stim
102244.08957367414	598.91042632577796	n/a	1399	89	2750	598.910426326	stim	stop-signal	626	1786340	0.0-25.21-1.21	beast_fmri_test	337	1784088,/,1784770,/,1785447,/,1786127,/,1786806,/	t,t,t,t,t	<img class = center src='/static/experiments/beast_fmri_test/images/D.png'></img>	89,71	2750.0	test	<img class = center src='/static/experiments/beast_fmri_test/images/redD.png'></img>	go	1950.0	3.0	21.0	go	non-target	D	89,Middle Finger	71,Index Finger	700.0	800.0	2100.0	1950.0	0.0	n/a	800.0	0.0	ITI
104008	500	n/a	-1	-1	500	0.0	fixation	poldrack-single-stim	627	1787505	0.0-25.22-0.22	beast_fmri_test	337	1787486,/	t	<div class = centerbox2><div class = fixation>+</div></div>	none	500.0	test	n/a	n/a	n/a	n/a	n/a	n/a	n/a	n/a	n/a	n/a	n/a	n/a	n/a	n/a	n/a	n/a	n/a	n/a	fixation
103133.55342713278	2750	n/a	1993	71	2750	875.446572867	stim	stop-signal	628	1790256	0.0-25.22-1.22	beast_fmri_test	337	1788166,/,1788845,/,1789524,/,1790205,/,1790884,/	t,t,t,t,t	<img class = center src='/static/experiments/beast_fmri_test/images/V.png'></img>	89,71	2750.0	test	<img class = center src='/static/experiments/beast_fmri_test/images/redV.png'></img>	go	1950.0	3.0	22.0	go	non-target	V	89,Middle Finger	71,Index Finger	700.0	800.0	2100.0	1950.0	1.0	n/a	800.0	1.0	go_stim
105883.55342713278	875.44657286731615	n/a	1993	71	2750	875.446572867	stim	stop-signal	628	1790256	0.0-25.22-1.22	beast_fmri_test	337	1788166,/,1788845,/,1789524,/,1790205,/,1790884,/	t,t,t,t,t	<img class = center src='/static/experiments/beast_fmri_test/images/V.png'></img>	89,71	2750.0	test	<img class = center src='/static/experiments/beast_fmri_test/images/redV.png'></img>	go	1950.0	3.0	22.0	go	non-target	V	89,Middle Finger	71,Index Finger	700.0	800.0	2100.0	1950.0	1.0	n/a	800.0	1.0	ITI
108203	500	n/a	-1	-1	500	0.0	fixation	poldrack-single-stim	629	1791700	0.0-25.23-0.23	beast_fmri_test	337	1791564,/	t	<div class = centerbox2><div class = fixation>+</div></div>	none	500.0	test	n/a	n/a	n/a	n/a	n/a	n/a	n/a	n/a	n/a	n/a	n/a	n/a	n/a	n/a	n/a	n/a	n/a	n/a	fixation
108029.85060054553	700.0	n/a	-1	-1	2750	175.149399454	stim	stop-signal	630	1794452	0.0-25.23-1.23	beast_fmri_test	337	1792244,/,1792924,/,1793603,/,1794282,/	t,t,t,t	<img class = center src='/static/experiments/beast_fmri_test/images/D.png'></img>	89,71	2750.0	test	<img class = center src='/static/experiments/beast_fmri_test/images/redD.png'></img>	stop	2050.0	3.0	23.0	stop	target	D	89,Middle Finger	71,Index Finger	700.0	800.0	2050.0	1950.0	0.0	1.0	700.0	n/a	go_stim
110079.85060054553	2050.0	n/a	-1	-1	2750	175.149399454	stim	stop-signal	630	1794452	0.0-25.23-1.23	beast_fmri_test	337	1792244,/,1792924,/,1793603,/,1794282,/	t,t,t,t	<img class = center src='/static/experiments/beast_fmri_test/images/D.png'></img>	89,71	2750.0	test	<img class = center src='/static/experiments/beast_fmri_test/images/redD.png'></img>	stop	2050.0	3.0	23.0	stop	target	D	89,Middle Finger	71,Index Finger	700.0	800.0	2050.0	1950.0	0.0	1.0	700.0	n/a	stop_stim
110779.85060054553	175.14939945445926	n/a	-1	-1	2750	175.149399454	stim	stop-signal	630	1794452	0.0-25.23-1.23	beast_fmri_test	337	1792244,/,1792924,/,1793603,/,1794282,/	t,t,t,t	<img class = center src='/static/experiments/beast_fmri_test/images/D.png'></img>	89,71	2750.0	test	<img class = center src='/static/experiments/beast_fmri_test/images/redD.png'></img>	stop	2050.0	3.0	23.0	stop	target	D	89,Middle Finger	71,Index Finger	700.0	800.0	2050.0	1950.0	0.0	1.0	700.0	n/a	ITI
111695	500	n/a	-1	-1	500	0.0	fixation	poldrack-single-stim	631	1795192	0.0-25.24-0.24	beast_fmri_test	337	1794963,/	t	<div class = centerbox2><div class = fixation>+</div></div>	none	500.0	test	n/a	n/a	n/a	n/a	n/a	n/a	n/a	n/a	n/a	n/a	n/a	n/a	n/a	n/a	n/a	n/a	n/a	n/a	fixation
110833.01164242765	2750	n/a	1705	89	2750	863.988357572	stim	stop-signal	632	1797944	0.0-25.24-1.24	beast_fmri_test	337	1795643,/,1796322,/,1797002,/,1797682,/,1798361,/	t,t,t,t,t	<img class = center src='/static/experiments/beast_fmri_test/images/T.png'></img>	89,71	2750.0	test	<img class = center src='/static/experiments/beast_fmri_test/images/redT.png'></img>	go	1950.0	3.0	24.0	go	non-target	T	89,Middle Finger	71,Index Finger	750.0	800.0	2050.0	1950.0	0.0	n/a	800.0	0.0	go_stim
113583.01164242765	863.98835757237225	n/a	1705	89	2750	863.988357572	stim	stop-signal	632	1797944	0.0-25.24-1.24	beast_fmri_test	337	1795643,/,1796322,/,1797002,/,1797682,/,1798361,/	t,t,t,t,t	<img class = center src='/static/experiments/beast_fmri_test/images/T.png'></img>	89,71	2750.0	test	<img class = center src='/static/experiments/beast_fmri_test/images/redT.png'></img>	go	1950.0	3.0	24.0	go	non-target	T	89,Middle Finger	71,Index Finger	750.0	800.0	2050.0	1950.0	0.0	n/a	800.0	0.0	ITI
115881	500	n/a	-1	-1	500	0.0	fixation	poldrack-single-stim	633	1799378	0.0-25.25-0.25	beast_fmri_test	337	1799042,/	t	<div class = centerbox2><div class = fixation>+</div></div>	none	500.0	test	n/a	n/a	n/a	n/a	n/a	n/a	n/a	n/a	n/a	n/a	n/a	n/a	n/a	n/a	n/a	n/a	n/a	n/a	fixation
114758.0415821143	800.0	n/a	1063	71	2750	1124.95841789	stim	stop-signal	634	1802130	0.0-25.25-1.25	beast_fmri_test	337	1799722,/,1800400,/,1801080,/,1801760,/,1802439,/,1803119,/	t,t,t,t,t,t	<img class = center src='/static/experiments/beast_fmri_test/images/T.png'></img>	89,71	2750.0	test	<img class = center src='/static/experiments/beast_fmri_test/images/redT.png'></img>	stop	1950.0	3.0	25.0	stop	non-target	T	89,Middle Finger	71,Index Finger	750.0	800.0	2050.0	1950.0	0.0	0.0	800.0	n/a	go_stim
116708.0415821143	1950.0	n/a	1063	71	2750	1124.95841789	stim	stop-signal	634	1802130	0.0-25.25-1.25	beast_fmri_test	337	1799722,/,1800400,/,1801080,/,1801760,/,1802439,/,1803119,/	t,t,t,t,t,t	<img class = center src='/static/experiments/beast_fmri_test/images/T.png'></img>	89,71	2750.0	test	<img class = center src='/static/experiments/beast_fmri_test/images/redT.png'></img>	stop	1950.0	3.0	25.0	stop	non-target	T	89,Middle Finger	71,Index Finger	750.0	800.0	2050.0	1950.0	0.0	0.0	800.0	n/a	stop_stim
117508.0415821143	1124.958417885678	n/a	1063	71	2750	1124.95841789	stim	stop-signal	634	1802130	0.0-25.25-1.25	beast_fmri_test	337	1799722,/,1800400,/,1801080,/,1801760,/,1802439,/,1803119,/	t,t,t,t,t,t	<img class = center src='/static/experiments/beast_fmri_test/images/T.png'></img>	89,71	2750.0	test	<img class = center src='/static/experiments/beast_fmri_test/images/redT.png'></img>	stop	1950.0	3.0	25.0	stop	non-target	T	89,Middle Finger	71,Index Finger	750.0	800.0	2050.0	1950.0	0.0	0.0	800.0	n/a	ITI
120329	500	n/a	-1	-1	500	0.0	fixation	poldrack-single-stim	635	1803826	0.0-25.26-0.26	beast_fmri_test	337	1803799,/	t	<div class = centerbox2><div class = fixation>+</div></div>	none	500.0	test	n/a	n/a	n/a	n/a	n/a	n/a	n/a	n/a	n/a	n/a	n/a	n/a	n/a	n/a	n/a	n/a	n/a	n/a	fixation
118876.45308858273	2750	n/a	762	71	2750	1454.54691142	stim	stop-signal	636	1806578	0.0-25.26-1.26	beast_fmri_test	337	1804479,/,1805160,/,1805839,/,1806517,/,1807199,/,1807878,/	t,t,t,t,t,t	<img class = center src='/static/experiments/beast_fmri_test/images/P.png'></img>	89,71	2750.0	test	<img class = center src='/static/experiments/beast_fmri_test/images/redP.png'></img>	go	2000.0	3.0	26.0	go	non-target	P	89,Middle Finger	71,Index Finger	750.0	750.0	2050.0	2000.0	1.0	n/a	750.0	1.0	go_stim
121626.45308858273	1454.5469114172506	n/a	762	71	2750	1454.54691142	stim	stop-signal	636	1806578	0.0-25.26-1.26	beast_fmri_test	337	1804479,/,1805160,/,1805839,/,1806517,/,1807199,/,1807878,/	t,t,t,t,t,t	<img class = center src='/static/experiments/beast_fmri_test/images/P.png'></img>	89,71	2750.0	test	<img class = center src='/static/experiments/beast_fmri_test/images/redP.png'></img>	go	2000.0	3.0	26.0	go	non-target	P	89,Middle Finger	71,Index Finger	750.0	750.0	2050.0	2000.0	1.0	n/a	750.0	1.0	ITI
125107	500	n/a	-1	-1	500	0.0	fixation	poldrack-single-stim	637	1808604	0.0-25.27-0.27	beast_fmri_test	337	1808558,/	t	<div class = centerbox2><div class = fixation>+</div></div>	none	500.0	test	n/a	n/a	n/a	n/a	n/a	n/a	n/a	n/a	n/a	n/a	n/a	n/a	n/a	n/a	n/a	n/a	n/a	n/a	fixation
123364.12435121136	750.0	n/a	-1	-1	2750	1743.87564879	stim	stop-signal	638	1811355	0.0-25.27-1.27	beast_fmri_test	337	1809237,/,1809917,/,1810596,/,1811275,/,1811955,/,1812636,/	t,t,t,t,t,t	<img class = center src='/static/experiments/beast_fmri_test/images/B.png'></img>	89,71	2750.0	test	<img class = center src='/static/experiments/beast_fmri_test/images/redB.png'></img>	stop	2000.0	3.0	27.0	stop	non-target	B	89,Middle Finger	71,Index Finger	750.0	750.0	2050.0	2000.0	0.0	1.0	750.0	n/a	go_stim
125364.12435121136	2000.0	n/a	-1	-1	2750	1743.87564879	stim	stop-signal	638	1811355	0.0-25.27-1.27	beast_fmri_test	337	1809237,/,1809917,/,1810596,/,1811275,/,1811955,/,1812636,/	t,t,t,t,t,t	<img class = center src='/static/experiments/beast_fmri_test/images/B.png'></img>	89,71	2750.0	test	<img class = center src='/static/experiments/beast_fmri_test/images/redB.png'></img>	stop	2000.0	3.0	27.0	stop	non-target	B	89,Middle Finger	71,Index Finger	750.0	750.0	2050.0	2000.0	0.0	1.0	750.0	n/a	stop_stim
126114.12435121136	1743.8756487887208	n/a	-1	-1	2750	1743.87564879	stim	stop-signal	638	1811355	0.0-25.27-1.27	beast_fmri_test	337	1809237,/,1809917,/,1810596,/,1811275,/,1811955,/,1812636,/	t,t,t,t,t,t	<img class = center src='/static/experiments/beast_fmri_test/images/B.png'></img>	89,71	2750.0	test	<img class = center src='/static/experiments/beast_fmri_test/images/redB.png'></img>	stop	2000.0	3.0	27.0	stop	non-target	B	89,Middle Finger	71,Index Finger	750.0	750.0	2050.0	2000.0	0.0	1.0	750.0	n/a	ITI
130184	500	n/a	-1	-1	500	0.0	fixation	poldrack-single-stim	639	1813681	0.0-25.28-0.28	beast_fmri_test	337	1813314,/	t	<div class = centerbox2><div class = fixation>+</div></div>	none	500.0	test	n/a	n/a	n/a	n/a	n/a	n/a	n/a	n/a	n/a	n/a	n/a	n/a	n/a	n/a	n/a	n/a	n/a	n/a	fixation
129196.76103255828	2750	n/a	926	89	2750	988.238967442	stim	stop-signal	640	1816432	0.0-25.28-1.28	beast_fmri_test	337	1813995,/,1814675,/,1815354,/,1816033,/,1816712,/,1817393,/	t,t,t,t,t,t	<img class = center src='/static/experiments/beast_fmri_test/images/B.png'></img>	89,71	2750.0	test	<img class = center src='/static/experiments/beast_fmri_test/images/redB.png'></img>	go	1950.0	3.0	28.0	go	non-target	B	89,Middle Finger	71,Index Finger	750.0	800.0	2050.0	1950.0	0.0	n/a	800.0	0.0	go_stim
131946.76103255828	988.23896744169224	n/a	926	89	2750	988.238967442	stim	stop-signal	640	1816432	0.0-25.28-1.28	beast_fmri_test	337	1813995,/,1814675,/,1815354,/,1816033,/,1816712,/,1817393,/	t,t,t,t,t,t	<img class = center src='/static/experiments/beast_fmri_test/images/B.png'></img>	89,71	2750.0	test	<img class = center src='/static/experiments/beast_fmri_test/images/redB.png'></img>	go	1950.0	3.0	28.0	go	non-target	B	89,Middle Finger	71,Index Finger	750.0	800.0	2050.0	1950.0	0.0	n/a	800.0	0.0	ITI
134507	500	n/a	-1	-1	500	0.0	fixation	poldrack-single-stim	641	1818004	0.0-25.29-0.29	beast_fmri_test	337	n/a	n/a	<div class = centerbox2><div class = fixation>+</div></div>	none	500.0	test	n/a	n/a	n/a	n/a	n/a	n/a	n/a	n/a	n/a	n/a	n/a	n/a	n/a	n/a	n/a	n/a	n/a	n/a	fixation
132465.22088700044	2750	n/a	973	71	2750	2043.779113	stim	stop-signal	642	1820756	0.0-25.29-1.29	beast_fmri_test	337	1818073,/,1818753,/,1819432,/,1820112,/,1820790,/,1821470,/,1822151,/	t,t,t,t,t,t,t	<img class = center src='/static/experiments/beast_fmri_test/images/D.png'></img>	89,71	2750.0	test	<img class = center src='/static/experiments/beast_fmri_test/images/redD.png'></img>	go	1950.0	3.0	29.0	go	non-target	D	89,Middle Finger	71,Index Finger	750.0	800.0	2050.0	1950.0	1.0	n/a	800.0	1.0	go_stim
135215.22088700044	2043.7791129995999	n/a	973	71	2750	2043.779113	stim	stop-signal	642	1820756	0.0-25.29-1.29	beast_fmri_test	337	1818073,/,1818753,/,1819432,/,1820112,/,1820790,/,1821470,/,1822151,/	t,t,t,t,t,t,t	<img class = center src='/static/experiments/beast_fmri_test/images/D.png'></img>	89,71	2750.0	test	<img class = center src='/static/experiments/beast_fmri_test/images/redD.png'></img>	go	1950.0	3.0	29.0	go	non-target	D	89,Middle Finger	71,Index Finger	750.0	800.0	2050.0	1950.0	1.0	n/a	800.0	1.0	ITI
139879	500	n/a	-1	-1	500	0.0	fixation	poldrack-single-stim	643	1823376	0.0-25.30-0.30	beast_fmri_test	337	1822875,/	t	<div class = centerbox2><div class = fixation>+</div></div>	none	500.0	test	n/a	n/a	n/a	n/a	n/a	n/a	n/a	n/a	n/a	n/a	n/a	n/a	n/a	n/a	n/a	n/a	n/a	n/a	fixation
139633.46674240497	800.0	n/a	1021	71	2750	247.533257595	stim	stop-signal	644	1826128	0.0-25.30-1.30	beast_fmri_test	337	1823511,/,1824190,/,1824870,/,1825550,/,1826229,/	t,t,t,t,t	<img class = center src='/static/experiments/beast_fmri_test/images/P.png'></img>	89,71	2750.0	test	<img class = center src='/static/experiments/beast_fmri_test/images/redP.png'></img>	stop	1950.0	3.0	30.0	stop	non-target	P	89,Middle Finger	71,Index Finger	750.0	800.0	2050.0	1950.0	0.0	0.0	800.0	n/a	go_stim
141583.46674240497	1950.0	n/a	1021	71	2750	247.533257595	stim	stop-signal	644	1826128	0.0-25.30-1.30	beast_fmri_test	337	1823511,/,1824190,/,1824870,/,1825550,/,1826229,/	t,t,t,t,t	<img class = center src='/static/experiments/beast_fmri_test/images/P.png'></img>	89,71	2750.0	test	<img class = center src='/static/experiments/beast_fmri_test/images/redP.png'></img>	stop	1950.0	3.0	30.0	stop	non-target	P	89,Middle Finger	71,Index Finger	750.0	800.0	2050.0	1950.0	0.0	0.0	800.0	n/a	stop_stim
142383.46674240497	247.53325759493441	n/a	1021	71	2750	247.533257595	stim	stop-signal	644	1826128	0.0-25.30-1.30	beast_fmri_test	337	1823511,/,1824190,/,1824870,/,1825550,/,1826229,/	t,t,t,t,t	<img class = center src='/static/experiments/beast_fmri_test/images/P.png'></img>	89,71	2750.0	test	<img class = center src='/static/experiments/beast_fmri_test/images/redP.png'></img>	stop	1950.0	3.0	30.0	stop	non-target	P	89,Middle Finger	71,Index Finger	750.0	800.0	2050.0	1950.0	0.0	0.0	800.0	n/a	ITI
143456	500	n/a	-1	-1	500	0.0	fixation	poldrack-single-stim	645	1826953	0.0-25.31-0.31	beast_fmri_test	337	1826908,/	t	<div class = centerbox2><div class = fixation>+</div></div>	none	500.0	test	n/a	n/a	n/a	n/a	n/a	n/a	n/a	n/a	n/a	n/a	n/a	n/a	n/a	n/a	n/a	n/a	n/a	n/a	fixation
142672.22971951775	2750	n/a	1931	89	2750	785.770280482	stim	stop-signal	646	1829705	0.0-25.31-1.31	beast_fmri_test	337	1827589,/,1828269,/,1828948,/,1829628,/,1830307,/	t,t,t,t,t	<img class = center src='/static/experiments/beast_fmri_test/images/B.png'></img>	89,71	2750.0	test	<img class = center src='/static/experiments/beast_fmri_test/images/redB.png'></img>	go	2000.0	3.0	31.0	go	target	B	89,Middle Finger	71,Index Finger	750.0	750.0	2000.0	1950.0	1.0	n/a	750.0	1.0	go_stim
145422.22971951775	785.77028048223974	n/a	1931	89	2750	785.770280482	stim	stop-signal	646	1829705	0.0-25.31-1.31	beast_fmri_test	337	1827589,/,1828269,/,1828948,/,1829628,/,1830307,/	t,t,t,t,t	<img class = center src='/static/experiments/beast_fmri_test/images/B.png'></img>	89,71	2750.0	test	<img class = center src='/static/experiments/beast_fmri_test/images/redB.png'></img>	go	2000.0	3.0	31.0	go	target	B	89,Middle Finger	71,Index Finger	750.0	750.0	2000.0	1950.0	1.0	n/a	750.0	1.0	ITI
147562	500	n/a	-1	-1	500	0.0	fixation	poldrack-single-stim	647	1831059	0.0-25.32-0.32	beast_fmri_test	337	1830988,/	t	<div class = centerbox2><div class = fixation>+</div></div>	none	500.0	test	n/a	n/a	n/a	n/a	n/a	n/a	n/a	n/a	n/a	n/a	n/a	n/a	n/a	n/a	n/a	n/a	n/a	n/a	fixation
147137.7503733146	2750	n/a	1305	89	2750	425.249626685	stim	stop-signal	648	1833810	0.0-25.32-1.32	beast_fmri_test	337	1831667,/,1832347,/,1833026,/,1833705,/	t,t,t,t	<img class = center src='/static/experiments/beast_fmri_test/images/D.png'></img>	89,71	2750.0	test	<img class = center src='/static/experiments/beast_fmri_test/images/redD.png'></img>	go	2000.0	3.0	32.0	go	target	D	89,Middle Finger	71,Index Finger	750.0	750.0	2000.0	1950.0	1.0	n/a	750.0	1.0	go_stim
149887.7503733146	425.24962668536659	n/a	1305	89	2750	425.249626685	stim	stop-signal	648	1833810	0.0-25.32-1.32	beast_fmri_test	337	1831667,/,1832347,/,1833026,/,1833705,/	t,t,t,t	<img class = center src='/static/experiments/beast_fmri_test/images/D.png'></img>	89,71	2750.0	test	<img class = center src='/static/experiments/beast_fmri_test/images/redD.png'></img>	go	2000.0	3.0	32.0	go	target	D	89,Middle Finger	71,Index Finger	750.0	750.0	2000.0	1950.0	1.0	n/a	750.0	1.0	ITI
151304	500	n/a	-1	-1	500	0.0	fixation	poldrack-single-stim	649	1834801	0.0-25.33-0.33	beast_fmri_test	337	1834386,/	t	<div class = centerbox2><div class = fixation>+</div></div>	none	500.0	test	n/a	n/a	n/a	n/a	n/a	n/a	n/a	n/a	n/a	n/a	n/a	n/a	n/a	n/a	n/a	n/a	n/a	n/a	fixation
150490.17321488867	750.0	n/a	906	71	2750	814.826785111	stim	stop-signal	650	1837552	0.0-25.33-1.33	beast_fmri_test	337	1835066,/,1835745,/,1836424,/,1837104,/,1837784,/	t,t,t,t,t	<img class = center src='/static/experiments/beast_fmri_test/images/P.png'></img>	89,71	2750.0	test	<img class = center src='/static/experiments/beast_fmri_test/images/redP.png'></img>	stop	2000.0	3.0	33.0	stop	target	P	89,Middle Finger	71,Index Finger	750.0	750.0	2000.0	1950.0	0.0	0.0	750.0	n/a	go_stim
152490.17321488867	2000.0	n/a	906	71	2750	814.826785111	stim	stop-signal	650	1837552	0.0-25.33-1.33	beast_fmri_test	337	1835066,/,1835745,/,1836424,/,1837104,/,1837784,/	t,t,t,t,t	<img class = center src='/static/experiments/beast_fmri_test/images/P.png'></img>	89,71	2750.0	test	<img class = center src='/static/experiments/beast_fmri_test/images/redP.png'></img>	stop	2000.0	3.0	33.0	stop	target	P	89,Middle Finger	71,Index Finger	750.0	750.0	2000.0	1950.0	0.0	0.0	750.0	n/a	stop_stim
153240.17321488867	814.82678511124618	n/a	906	71	2750	814.826785111	stim	stop-signal	650	1837552	0.0-25.33-1.33	beast_fmri_test	337	1835066,/,1835745,/,1836424,/,1837104,/,1837784,/	t,t,t,t,t	<img class = center src='/static/experiments/beast_fmri_test/images/P.png'></img>	89,71	2750.0	test	<img class = center src='/static/experiments/beast_fmri_test/images/redP.png'></img>	stop	2000.0	3.0	33.0	stop	target	P	89,Middle Finger	71,Index Finger	750.0	750.0	2000.0	1950.0	0.0	0.0	750.0	n/a	ITI
155435	500	n/a	-1	-1	500	0.0	fixation	poldrack-single-stim	651	1838932	0.0-25.34-0.34	beast_fmri_test	337	1838462,/	t	<div class = centerbox2><div class = fixation>+</div></div>	none	500.0	test	n/a	n/a	n/a	n/a	n/a	n/a	n/a	n/a	n/a	n/a	n/a	n/a	n/a	n/a	n/a	n/a	n/a	n/a	fixation
153311.35358415847	2750	n/a	816	89	2750	2125.64641584	stim	stop-signal	652	1841684	0.0-25.34-1.34	beast_fmri_test	337	1839144,/,1839822,/,1840503,/,1841184,/,1841863,/,1842542,/,1843222,/	t,t,t,t,t,t,t	<img class = center src='/static/experiments/beast_fmri_test/images/B.png'></img>	89,71	2750.0	test	<img class = center src='/static/experiments/beast_fmri_test/images/redB.png'></img>	go	2050.0	3.0	34.0	go	target	B	89,Middle Finger	71,Index Finger	700.0	750.0	2050.0	1950.0	1.0	n/a	700.0	1.0	go_stim
156061.35358415847	2125.6464158415001	n/a	816	89	2750	2125.64641584	stim	stop-signal	652	1841684	0.0-25.34-1.34	beast_fmri_test	337	1839144,/,1839822,/,1840503,/,1841184,/,1841863,/,1842542,/,1843222,/	t,t,t,t,t,t,t	<img class = center src='/static/experiments/beast_fmri_test/images/B.png'></img>	89,71	2750.0	test	<img class = center src='/static/experiments/beast_fmri_test/images/redB.png'></img>	go	2050.0	3.0	34.0	go	target	B	89,Middle Finger	71,Index Finger	700.0	750.0	2050.0	1950.0	1.0	n/a	700.0	1.0	ITI
160878	500	n/a	-1	-1	500	0.0	fixation	poldrack-single-stim	653	1844375	0.0-25.35-0.35	beast_fmri_test	337	1843900,/	t	<div class = centerbox2><div class = fixation>+</div></div>	none	500.0	test	n/a	n/a	n/a	n/a	n/a	n/a	n/a	n/a	n/a	n/a	n/a	n/a	n/a	n/a	n/a	n/a	n/a	n/a	fixation
159918.68691338855	2750	n/a	868	71	2750	961.313086611	stim	stop-signal	654	1847127	0.0-25.35-1.35	beast_fmri_test	337	1844581,/,1845260,/,1845939,/,1846619,/,1847299,/,1847979,/	t,t,t,t,t,t	<img class = center src='/static/experiments/beast_fmri_test/images/T.png'></img>	89,71	2750.0	test	<img class = center src='/static/experiments/beast_fmri_test/images/redT.png'></img>	go	2000.0	3.0	35.0	go	non-target	T	89,Middle Finger	71,Index Finger	700.0	750.0	2050.0	2000.0	1.0	n/a	750.0	1.0	go_stim
162668.68691338855	961.31308661138428	n/a	868	71	2750	961.313086611	stim	stop-signal	654	1847127	0.0-25.35-1.35	beast_fmri_test	337	1844581,/,1845260,/,1845939,/,1846619,/,1847299,/,1847979,/	t,t,t,t,t,t	<img class = center src='/static/experiments/beast_fmri_test/images/T.png'></img>	89,71	2750.0	test	<img class = center src='/static/experiments/beast_fmri_test/images/redT.png'></img>	go	2000.0	3.0	35.0	go	non-target	T	89,Middle Finger	71,Index Finger	700.0	750.0	2050.0	2000.0	1.0	n/a	750.0	1.0	ITI
165159	500	n/a	-1	-1	500	0.0	fixation	poldrack-single-stim	655	1848656	0.0-25.36-0.36	beast_fmri_test	337	n/a	n/a	<div class = centerbox2><div class = fixation>+</div></div>	none	500.0	test	n/a	n/a	n/a	n/a	n/a	n/a	n/a	n/a	n/a	n/a	n/a	n/a	n/a	n/a	n/a	n/a	n/a	n/a	fixation
164310.96358990739	700.0	n/a	943	71	2750	849.036410093	stim	stop-signal	656	1851407	0.0-25.36-1.36	beast_fmri_test	337	1848659,/,1849338,/,1850017,/,1850696,/,1851376,/,1852057,/	t,t,t,t,t,t	<img class = center src='/static/experiments/beast_fmri_test/images/P.png'></img>	89,71	2750.0	test	<img class = center src='/static/experiments/beast_fmri_test/images/redP.png'></img>	stop	2050.0	3.0	36.0	stop	target	P	89,Middle Finger	71,Index Finger	700.0	750.0	2050.0	2000.0	0.0	0.0	700.0	n/a	go_stim
166360.96358990739	2050.0	n/a	943	71	2750	849.036410093	stim	stop-signal	656	1851407	0.0-25.36-1.36	beast_fmri_test	337	1848659,/,1849338,/,1850017,/,1850696,/,1851376,/,1852057,/	t,t,t,t,t,t	<img class = center src='/static/experiments/beast_fmri_test/images/P.png'></img>	89,71	2750.0	test	<img class = center src='/static/experiments/beast_fmri_test/images/redP.png'></img>	stop	2050.0	3.0	36.0	stop	target	P	89,Middle Finger	71,Index Finger	700.0	750.0	2050.0	2000.0	0.0	0.0	700.0	n/a	stop_stim
167060.96358990739	849.03641009272019	n/a	943	71	2750	849.036410093	stim	stop-signal	656	1851407	0.0-25.36-1.36	beast_fmri_test	337	1848659,/,1849338,/,1850017,/,1850696,/,1851376,/,1852057,/	t,t,t,t,t,t	<img class = center src='/static/experiments/beast_fmri_test/images/P.png'></img>	89,71	2750.0	test	<img class = center src='/static/experiments/beast_fmri_test/images/redP.png'></img>	stop	2050.0	3.0	36.0	stop	target	P	89,Middle Finger	71,Index Finger	700.0	750.0	2050.0	2000.0	0.0	0.0	700.0	n/a	ITI
169330	500	n/a	-1	-1	500	0.0	fixation	poldrack-single-stim	657	1852827	0.0-25.37-0.37	beast_fmri_test	337	1852736,/	t	<div class = centerbox2><div class = fixation>+</div></div>	none	500.0	test	n/a	n/a	n/a	n/a	n/a	n/a	n/a	n/a	n/a	n/a	n/a	n/a	n/a	n/a	n/a	n/a	n/a	n/a	fixation
168410.69545357279	750.0	n/a	-1	-1	2750	920.304546427	stim	stop-signal	658	1855578	0.0-25.37-1.37	beast_fmri_test	337	1853416,/,1854095,/,1854775,/,1855455,/,1856136,/	t,t,t,t,t	<img class = center src='/static/experiments/beast_fmri_test/images/V.png'></img>	89,71	2750.0	test	<img class = center src='/static/experiments/beast_fmri_test/images/redV.png'></img>	stop	2000.0	3.0	37.0	stop	non-target	V	89,Middle Finger	71,Index Finger	650.0	750.0	2050.0	2000.0	0.0	1.0	750.0	n/a	go_stim
170410.69545357279	2000.0	n/a	-1	-1	2750	920.304546427	stim	stop-signal	658	1855578	0.0-25.37-1.37	beast_fmri_test	337	1853416,/,1854095,/,1854775,/,1855455,/,1856136,/	t,t,t,t,t	<img class = center src='/static/experiments/beast_fmri_test/images/V.png'></img>	89,71	2750.0	test	<img class = center src='/static/experiments/beast_fmri_test/images/redV.png'></img>	stop	2000.0	3.0	37.0	stop	non-target	V	89,Middle Finger	71,Index Finger	650.0	750.0	2050.0	2000.0	0.0	1.0	750.0	n/a	stop_stim
171160.69545357279	920.30454642719928	n/a	-1	-1	2750	920.304546427	stim	stop-signal	658	1855578	0.0-25.37-1.37	beast_fmri_test	337	1853416,/,1854095,/,1854775,/,1855455,/,1856136,/	t,t,t,t,t	<img class = center src='/static/experiments/beast_fmri_test/images/V.png'></img>	89,71	2750.0	test	<img class = center src='/static/experiments/beast_fmri_test/images/redV.png'></img>	stop	2000.0	3.0	37.0	stop	non-target	V	89,Middle Finger	71,Index Finger	650.0	750.0	2050.0	2000.0	0.0	1.0	750.0	n/a	ITI
173568	500	n/a	-1	-1	500	0.0	fixation	poldrack-single-stim	659	1857065	0.0-25.38-0.38	beast_fmri_test	337	1856815,/	t	<div class = centerbox2><div class = fixation>+</div></div>	none	500.0	test	n/a	n/a	n/a	n/a	n/a	n/a	n/a	n/a	n/a	n/a	n/a	n/a	n/a	n/a	n/a	n/a	n/a	n/a	fixation
172810.3035098305	2750	n/a	1301	71	2750	760.69649017	stim	stop-signal	660	1859818	0.0-25.38-1.38	beast_fmri_test	337	1857495,/,1858175,/,1858855,/,1859534,/,1860214,/	t,t,t,t,t	<img class = center src='/static/experiments/beast_fmri_test/images/D.png'></img>	89,71	2750.0	test	<img class = center src='/static/experiments/beast_fmri_test/images/redD.png'></img>	go	1950.0	3.0	38.0	go	non-target	D	89,Middle Finger	71,Index Finger	650.0	800.0	2050.0	1950.0	1.0	n/a	800.0	1.0	go_stim
175560.3035098305	760.6964901695593	n/a	1301	71	2750	760.69649017	stim	stop-signal	660	1859818	0.0-25.38-1.38	beast_fmri_test	337	1857495,/,1858175,/,1858855,/,1859534,/,1860214,/	t,t,t,t,t	<img class = center src='/static/experiments/beast_fmri_test/images/D.png'></img>	89,71	2750.0	test	<img class = center src='/static/experiments/beast_fmri_test/images/redD.png'></img>	go	1950.0	3.0	38.0	go	non-target	D	89,Middle Finger	71,Index Finger	650.0	800.0	2050.0	1950.0	1.0	n/a	800.0	1.0	ITI
177657	500	n/a	-1	-1	500	0.0	fixation	poldrack-single-stim	661	1861154	0.0-25.39-0.39	beast_fmri_test	337	1860894,/	t	<div class = centerbox2><div class = fixation>+</div></div>	none	500.0	test	n/a	n/a	n/a	n/a	n/a	n/a	n/a	n/a	n/a	n/a	n/a	n/a	n/a	n/a	n/a	n/a	n/a	n/a	fixation
177430.33952708263	2750	n/a	1868	71	2750	227.660472917	stim	stop-signal	662	1863905	0.0-25.39-1.39	beast_fmri_test	337	1861574,/,1862252,/,1862935,/,1863612,/	t,t,t,t	<img class = center src='/static/experiments/beast_fmri_test/images/T.png'></img>	89,71	2750.0	test	<img class = center src='/static/experiments/beast_fmri_test/images/redT.png'></img>	go	1950.0	3.0	39.0	go	non-target	T	89,Middle Finger	71,Index Finger	650.0	800.0	2050.0	1950.0	1.0	n/a	800.0	1.0	go_stim
180180.33952708263	227.66047291746062	n/a	1868	71	2750	227.660472917	stim	stop-signal	662	1863905	0.0-25.39-1.39	beast_fmri_test	337	1861574,/,1862252,/,1862935,/,1863612,/	t,t,t,t	<img class = center src='/static/experiments/beast_fmri_test/images/T.png'></img>	89,71	2750.0	test	<img class = center src='/static/experiments/beast_fmri_test/images/redT.png'></img>	go	1950.0	3.0	39.0	go	non-target	T	89,Middle Finger	71,Index Finger	650.0	800.0	2050.0	1950.0	1.0	n/a	800.0	1.0	ITI
181214	500	n/a	-1	-1	500	0.0	fixation	poldrack-single-stim	663	1864711	0.0-25.40-0.40	beast_fmri_test	337	1864291,/	t	<div class = centerbox2><div class = fixation>+</div></div>	none	500.0	test	n/a	n/a	n/a	n/a	n/a	n/a	n/a	n/a	n/a	n/a	n/a	n/a	n/a	n/a	n/a	n/a	n/a	n/a	fixation
180370.38970407727	800.0	n/a	-1	-1	2750	846.610295923	stim	stop-signal	664	1867464	0.0-25.40-1.40	beast_fmri_test	337	1864972,/,1865651,/,1866331,/,1867010,/,1867689,/	t,t,t,t,t	<img class = center src='/static/experiments/beast_fmri_test/images/P.png'></img>	89,71	2750.0	test	<img class = center src='/static/experiments/beast_fmri_test/images/redP.png'></img>	stop	1950.0	3.0	40.0	stop	non-target	P	89,Middle Finger	71,Index Finger	650.0	800.0	2050.0	1950.0	0.0	1.0	800.0	n/a	go_stim
182320.38970407727	1950.0	n/a	-1	-1	2750	846.610295923	stim	stop-signal	664	1867464	0.0-25.40-1.40	beast_fmri_test	337	1864972,/,1865651,/,1866331,/,1867010,/,1867689,/	t,t,t,t,t	<img class = center src='/static/experiments/beast_fmri_test/images/P.png'></img>	89,71	2750.0	test	<img class = center src='/static/experiments/beast_fmri_test/images/redP.png'></img>	stop	1950.0	3.0	40.0	stop	non-target	P	89,Middle Finger	71,Index Finger	650.0	800.0	2050.0	1950.0	0.0	1.0	800.0	n/a	stop_stim
183120.38970407727	846.61029592275668	n/a	-1	-1	2750	846.610295923	stim	stop-signal	664	1867464	0.0-25.40-1.40	beast_fmri_test	337	1864972,/,1865651,/,1866331,/,1867010,/,1867689,/	t,t,t,t,t	<img class = center src='/static/experiments/beast_fmri_test/images/P.png'></img>	89,71	2750.0	test	<img class = center src='/static/experiments/beast_fmri_test/images/redP.png'></img>	stop	1950.0	3.0	40.0	stop	non-target	P	89,Middle Finger	71,Index Finger	650.0	800.0	2050.0	1950.0	0.0	1.0	800.0	n/a	ITI
185393	500	n/a	-1	-1	500	0.0	fixation	poldrack-single-stim	665	1868890	0.0-25.41-0.41	beast_fmri_test	337	1868388,/	t	<div class = centerbox2><div class = fixation>+</div></div>	none	500.0	test	n/a	n/a	n/a	n/a	n/a	n/a	n/a	n/a	n/a	n/a	n/a	n/a	n/a	n/a	n/a	n/a	n/a	n/a	fixation
184960.31938167941	2750	n/a	799	89	2750	435.680618321	stim	stop-signal	666	1871643	0.0-25.41-1.41	beast_fmri_test	337	1869049,/,1869730,/,1870408,/,1871089,/,1871767,/	t,t,t,t,t	<img class = center src='/static/experiments/beast_fmri_test/images/D.png'></img>	89,71	2750.0	test	<img class = center src='/static/experiments/beast_fmri_test/images/redD.png'></img>	go	2100.0	3.0	41.0	go	target	D	89,Middle Finger	71,Index Finger	650.0	850.0	2100.0	1950.0	1.0	n/a	650.0	1.0	go_stim
187710.31938167941	435.68061832050819	n/a	799	89	2750	435.680618321	stim	stop-signal	666	1871643	0.0-25.41-1.41	beast_fmri_test	337	1869049,/,1869730,/,1870408,/,1871089,/,1871767,/	t,t,t,t,t	<img class = center src='/static/experiments/beast_fmri_test/images/D.png'></img>	89,71	2750.0	test	<img class = center src='/static/experiments/beast_fmri_test/images/redD.png'></img>	go	2100.0	3.0	41.0	go	target	D	89,Middle Finger	71,Index Finger	650.0	850.0	2100.0	1950.0	1.0	n/a	650.0	1.0	ITI
189156	500	n/a	-1	-1	500	0.0	fixation	poldrack-single-stim	667	1872653	0.0-25.42-0.42	beast_fmri_test	337	1872448,/	t	<div class = centerbox2><div class = fixation>+</div></div>	none	500.0	test	n/a	n/a	n/a	n/a	n/a	n/a	n/a	n/a	n/a	n/a	n/a	n/a	n/a	n/a	n/a	n/a	n/a	n/a	fixation
187897.57517853146	2750	n/a	651	89	2750	1259.42482147	stim	stop-signal	668	1875404	0.0-25.42-1.42	beast_fmri_test	337	1873126,/,1873807,/,1874487,/,1875166,/,1875847,/,1876526,/	t,t,t,t,t,t	<img class = center src='/static/experiments/beast_fmri_test/images/T.png'></img>	89,71	2750.0	test	<img class = center src='/static/experiments/beast_fmri_test/images/redT.png'></img>	go	2100.0	3.0	42.0	go	target	T	89,Middle Finger	71,Index Finger	650.0	850.0	2100.0	1950.0	1.0	n/a	650.0	1.0	go_stim
190647.57517853146	1259.4248214685015	n/a	651	89	2750	1259.42482147	stim	stop-signal	668	1875404	0.0-25.42-1.42	beast_fmri_test	337	1873126,/,1873807,/,1874487,/,1875166,/,1875847,/,1876526,/	t,t,t,t,t,t	<img class = center src='/static/experiments/beast_fmri_test/images/T.png'></img>	89,71	2750.0	test	<img class = center src='/static/experiments/beast_fmri_test/images/redT.png'></img>	go	2100.0	3.0	42.0	go	target	T	89,Middle Finger	71,Index Finger	650.0	850.0	2100.0	1950.0	1.0	n/a	650.0	1.0	ITI
193744	500	n/a	-1	-1	500	0.0	fixation	poldrack-single-stim	669	1877241	0.0-25.43-0.43	beast_fmri_test	337	1877206,/	t	<div class = centerbox2><div class = fixation>+</div></div>	none	500.0	test	n/a	n/a	n/a	n/a	n/a	n/a	n/a	n/a	n/a	n/a	n/a	n/a	n/a	n/a	n/a	n/a	n/a	n/a	fixation
193611.82274930435	850.0	n/a	921	71	2750	135.177250696	stim	stop-signal	670	1879994	0.0-25.43-1.43	beast_fmri_test	337	1877886,/,1878564,/,1879245,/,1879925,/	t,t,t,t	<img class = center src='/static/experiments/beast_fmri_test/images/D.png'></img>	89,71	2750.0	test	<img class = center src='/static/experiments/beast_fmri_test/images/redD.png'></img>	stop	1900.0	3.0	43.0	stop	non-target	D	89,Middle Finger	71,Index Finger	650.0	850.0	2100.0	1900.0	0.0	0.0	850.0	n/a	go_stim
195511.82274930435	1900.0	n/a	921	71	2750	135.177250696	stim	stop-signal	670	1879994	0.0-25.43-1.43	beast_fmri_test	337	1877886,/,1878564,/,1879245,/,1879925,/	t,t,t,t	<img class = center src='/static/experiments/beast_fmri_test/images/D.png'></img>	89,71	2750.0	test	<img class = center src='/static/experiments/beast_fmri_test/images/redD.png'></img>	stop	1900.0	3.0	43.0	stop	non-target	D	89,Middle Finger	71,Index Finger	650.0	850.0	2100.0	1900.0	0.0	0.0	850.0	n/a	stop_stim
196361.82274930435	135.17725069575272	n/a	921	71	2750	135.177250696	stim	stop-signal	670	1879994	0.0-25.43-1.43	beast_fmri_test	337	1877886,/,1878564,/,1879245,/,1879925,/	t,t,t,t	<img class = center src='/static/experiments/beast_fmri_test/images/D.png'></img>	89,71	2750.0	test	<img class = center src='/static/experiments/beast_fmri_test/images/redD.png'></img>	stop	1900.0	3.0	43.0	stop	non-target	D	89,Middle Finger	71,Index Finger	650.0	850.0	2100.0	1900.0	0.0	0.0	850.0	n/a	ITI
197212	500	n/a	-1	-1	500	0.0	fixation	poldrack-single-stim	671	1880709	0.0-25.44-0.44	beast_fmri_test	337	1880605,/	t	<div class = centerbox2><div class = fixation>+</div></div>	none	500.0	test	n/a	n/a	n/a	n/a	n/a	n/a	n/a	n/a	n/a	n/a	n/a	n/a	n/a	n/a	n/a	n/a	n/a	n/a	fixation
196534.38025210961	2750	n/a	952	89	2750	679.61974789	stim	stop-signal	672	1883461	0.0-25.44-1.44	beast_fmri_test	337	1881283,/,1881963,/,1882643,/,1883322,/,1884002,/	t,t,t,t,t	<img class = center src='/static/experiments/beast_fmri_test/images/T.png'></img>	89,71	2750.0	test	<img class = center src='/static/experiments/beast_fmri_test/images/redT.png'></img>	go	1950.0	3.0	44.0	go	non-target	T	89,Middle Finger	71,Index Finger	650.0	800.0	2100.0	1950.0	0.0	n/a	800.0	0.0	go_stim
199284.38025210961	679.61974789047679	n/a	952	89	2750	679.61974789	stim	stop-signal	672	1883461	0.0-25.44-1.44	beast_fmri_test	337	1881283,/,1881963,/,1882643,/,1883322,/,1884002,/	t,t,t,t,t	<img class = center src='/static/experiments/beast_fmri_test/images/T.png'></img>	89,71	2750.0	test	<img class = center src='/static/experiments/beast_fmri_test/images/redT.png'></img>	go	1950.0	3.0	44.0	go	non-target	T	89,Middle Finger	71,Index Finger	650.0	800.0	2100.0	1950.0	0.0	n/a	800.0	0.0	ITI
201222	500	n/a	-1	-1	500	0.0	fixation	poldrack-single-stim	673	1884719	0.0-25.45-0.45	beast_fmri_test	337	1884682,/	t	<div class = centerbox2><div class = fixation>+</div></div>	none	500.0	test	n/a	n/a	n/a	n/a	n/a	n/a	n/a	n/a	n/a	n/a	n/a	n/a	n/a	n/a	n/a	n/a	n/a	n/a	fixation
200537.70740083698	800.0	n/a	876	71	2750	686.292599163	stim	stop-signal	674	1887471	0.0-25.45-1.45	beast_fmri_test	337	1885362,/,1886042,/,1886722,/,1887401,/,1888081,/	t,t,t,t,t	<img class = center src='/static/experiments/beast_fmri_test/images/V.png'></img>	89,71	2750.0	test	<img class = center src='/static/experiments/beast_fmri_test/images/redV.png'></img>	stop	1950.0	3.0	45.0	stop	non-target	V	89,Middle Finger	71,Index Finger	650.0	800.0	2100.0	1950.0	0.0	0.0	800.0	n/a	go_stim
202487.70740083698	1950.0	n/a	876	71	2750	686.292599163	stim	stop-signal	674	1887471	0.0-25.45-1.45	beast_fmri_test	337	1885362,/,1886042,/,1886722,/,1887401,/,1888081,/	t,t,t,t,t	<img class = center src='/static/experiments/beast_fmri_test/images/V.png'></img>	89,71	2750.0	test	<img class = center src='/static/experiments/beast_fmri_test/images/redV.png'></img>	stop	1950.0	3.0	45.0	stop	non-target	V	89,Middle Finger	71,Index Finger	650.0	800.0	2100.0	1950.0	0.0	0.0	800.0	n/a	stop_stim
203287.70740083698	686.29259916291721	n/a	876	71	2750	686.292599163	stim	stop-signal	674	1887471	0.0-25.45-1.45	beast_fmri_test	337	1885362,/,1886042,/,1886722,/,1887401,/,1888081,/	t,t,t,t,t	<img class = center src='/static/experiments/beast_fmri_test/images/V.png'></img>	89,71	2750.0	test	<img class = center src='/static/experiments/beast_fmri_test/images/redV.png'></img>	stop	1950.0	3.0	45.0	stop	non-target	V	89,Middle Finger	71,Index Finger	650.0	800.0	2100.0	1950.0	0.0	0.0	800.0	n/a	ITI
205235	500	n/a	-1	-1	500	0.0	fixation	poldrack-single-stim	675	1888732	0.0-25.46-0.46	beast_fmri_test	337	n/a	n/a	<div class = centerbox2><div class = fixation>+</div></div>	none	500.0	test	n/a	n/a	n/a	n/a	n/a	n/a	n/a	n/a	n/a	n/a	n/a	n/a	n/a	n/a	n/a	n/a	n/a	n/a	fixation
204976.92641652562	750.0	n/a	-1	-1	2750	258.073583474	stim	stop-signal	676	1891482	0.0-25.46-1.46	beast_fmri_test	337	1888761,/,1889440,/,1890121,/,1890800,/,1891480,/	t,t,t,t,t	<img class = center src='/static/experiments/beast_fmri_test/images/T.png'></img>	89,71	2750.0	test	<img class = center src='/static/experiments/beast_fmri_test/images/redT.png'></img>	stop	2000.0	3.0	46.0	stop	non-target	T	89,Middle Finger	71,Index Finger	650.0	750.0	2100.0	2000.0	0.0	1.0	750.0	n/a	go_stim
206976.92641652562	2000.0	n/a	-1	-1	2750	258.073583474	stim	stop-signal	676	1891482	0.0-25.46-1.46	beast_fmri_test	337	1888761,/,1889440,/,1890121,/,1890800,/,1891480,/	t,t,t,t,t	<img class = center src='/static/experiments/beast_fmri_test/images/T.png'></img>	89,71	2750.0	test	<img class = center src='/static/experiments/beast_fmri_test/images/redT.png'></img>	stop	2000.0	3.0	46.0	stop	non-target	T	89,Middle Finger	71,Index Finger	650.0	750.0	2100.0	2000.0	0.0	1.0	750.0	n/a	stop_stim
207726.92641652562	258.07358347441811	n/a	-1	-1	2750	258.073583474	stim	stop-signal	676	1891482	0.0-25.46-1.46	beast_fmri_test	337	1888761,/,1889440,/,1890121,/,1890800,/,1891480,/	t,t,t,t,t	<img class = center src='/static/experiments/beast_fmri_test/images/T.png'></img>	89,71	2750.0	test	<img class = center src='/static/experiments/beast_fmri_test/images/redT.png'></img>	stop	2000.0	3.0	46.0	stop	non-target	T	89,Middle Finger	71,Index Finger	650.0	750.0	2100.0	2000.0	0.0	1.0	750.0	n/a	ITI
208820	500	n/a	-1	-1	500	0.0	fixation	poldrack-single-stim	677	1892317	0.0-25.47-0.47	beast_fmri_test	337	1892159,/	t	<div class = centerbox2><div class = fixation>+</div></div>	none	500.0	test	n/a	n/a	n/a	n/a	n/a	n/a	n/a	n/a	n/a	n/a	n/a	n/a	n/a	n/a	n/a	n/a	n/a	n/a	fixation
208691.15124275559	2750	n/a	1020	71	2750	131.848757244	stim	stop-signal	678	1895070	0.0-25.47-1.47	beast_fmri_test	337	1892839,/,1893519,/,1894198,/,1894878,/	t,t,t,t	<img class = center src='/static/experiments/beast_fmri_test/images/T.png'></img>	89,71	2750.0	test	<img class = center src='/static/experiments/beast_fmri_test/images/redT.png'></img>	go	2100.0	3.0	47.0	go	target	T	89,Middle Finger	71,Index Finger	650.0	800.0	2100.0	2000.0	0.0	n/a	650.0	0.0	go_stim
211441.15124275559	131.84875724445587	n/a	1020	71	2750	131.848757244	stim	stop-signal	678	1895070	0.0-25.47-1.47	beast_fmri_test	337	1892839,/,1893519,/,1894198,/,1894878,/	t,t,t,t	<img class = center src='/static/experiments/beast_fmri_test/images/T.png'></img>	89,71	2750.0	test	<img class = center src='/static/experiments/beast_fmri_test/images/redT.png'></img>	go	2100.0	3.0	47.0	go	target	T	89,Middle Finger	71,Index Finger	650.0	800.0	2100.0	2000.0	0.0	n/a	650.0	0.0	ITI
226790	15000	n/a	-1	-1	15000	0.0	practice-no-stop-feedback	poldrack-single-stim	679	1910287	0.0-26.0	beast_fmri_test	337	1895558,/,1896237,/,1896918,/,1897597,/,1898277,/,1898956,/,1899636,/,1900315,/,1900994,/,1901674,/,1902355,/,1903033,/,1903714,/,1904392,/,1905072,/,1905753,/,1906432,/,1907113,/,1907791,/,1908471,/,1909150,/,1909831,/	t,t,t,t,t,t,t,t,t,t,t,t,t,t,t,t,t,t,t,t,t,t	"<div class = ""centerbox""><p class = ""block-text"">Your delay is 2 trials.</p><p class = block-text>Please wait for the scanner to start the block</p></div>"	77	15000.0	n/a	n/a	n/a	n/a	n/a	n/a	n/a	n/a	n/a	n/a	n/a	n/a	n/a	n/a	n/a	n/a	n/a	n/a	n/a	practice-no-stop-feedback
227294	500	n/a	-1	-1	500	0.0	fixation	poldrack-single-stim	680	1910791	0.0-27.0-0.0	beast_fmri_test	337	1910510,/	t	<div class = centerbox2><div class = fixation>+</div></div>	none	500.0	test	n/a	n/a	n/a	n/a	n/a	n/a	n/a	n/a	n/a	n/a	n/a	n/a	n/a	n/a	n/a	n/a	n/a	n/a	fixation
226593.92904339544	2750	n/a	1435	71	2750	701.070956605	stim	stop-signal	681	1913542	0.0-27.0-1.0	beast_fmri_test	337	1911190,/,1911870,/,1912548,/,1913229,/,1913910,/	t,t,t,t,t	<img class = center src='/static/experiments/beast_fmri_test/images/V.png'></img>	89,71	2750.0	test	<img class = center src='/static/experiments/beast_fmri_test/images/redV.png'></img>	go	-1.0	2.0	0.0	go	temp-non-target	V	89,Middle Finger	71,Index Finger	650.0	800.0	2100.0	2000.0	0.0	n/a	n/a	n/a	go_stim
229343.92904339544	701.0709566045723	n/a	1435	71	2750	701.070956605	stim	stop-signal	681	1913542	0.0-27.0-1.0	beast_fmri_test	337	1911190,/,1911870,/,1912548,/,1913229,/,1913910,/	t,t,t,t,t	<img class = center src='/static/experiments/beast_fmri_test/images/V.png'></img>	89,71	2750.0	test	<img class = center src='/static/experiments/beast_fmri_test/images/redV.png'></img>	go	-1.0	2.0	0.0	go	temp-non-target	V	89,Middle Finger	71,Index Finger	650.0	800.0	2100.0	2000.0	0.0	n/a	n/a	n/a	ITI
231321	500	n/a	-1	-1	500	0.0	fixation	poldrack-single-stim	682	1914818	0.0-27.1-0.1	beast_fmri_test	337	1914589,/	t	<div class = centerbox2><div class = fixation>+</div></div>	none	500.0	test	n/a	n/a	n/a	n/a	n/a	n/a	n/a	n/a	n/a	n/a	n/a	n/a	n/a	n/a	n/a	n/a	n/a	n/a	fixation
231244.6579222877	2750	n/a	1014	71	2750	78.3420777123	stim	stop-signal	683	1917570	0.0-27.1-1.1	beast_fmri_test	337	1915268,/,1915949,/,1916628,/,1917308,/	t,t,t,t	<img class = center src='/static/experiments/beast_fmri_test/images/V.png'></img>	89,71	2750.0	test	<img class = center src='/static/experiments/beast_fmri_test/images/redV.png'></img>	go	-1.0	2.0	1.0	go	temp-non-target	V	89,Middle Finger	71,Index Finger	650.0	800.0	2100.0	2000.0	0.0	n/a	n/a	n/a	go_stim
233994.6579222877	78.342077712284748	n/a	1014	71	2750	78.3420777123	stim	stop-signal	683	1917570	0.0-27.1-1.1	beast_fmri_test	337	1915268,/,1915949,/,1916628,/,1917308,/	t,t,t,t	<img class = center src='/static/experiments/beast_fmri_test/images/V.png'></img>	89,71	2750.0	test	<img class = center src='/static/experiments/beast_fmri_test/images/redV.png'></img>	go	-1.0	2.0	1.0	go	temp-non-target	V	89,Middle Finger	71,Index Finger	650.0	800.0	2100.0	2000.0	0.0	n/a	n/a	n/a	ITI
234726	500	n/a	-1	-1	500	0.0	fixation	poldrack-single-stim	684	1918223	0.0-27.2-0.2	beast_fmri_test	337	1917988,/	t	<div class = centerbox2><div class = fixation>+</div></div>	none	500.0	test	n/a	n/a	n/a	n/a	n/a	n/a	n/a	n/a	n/a	n/a	n/a	n/a	n/a	n/a	n/a	n/a	n/a	n/a	fixation
233974.23584840936	2750	n/a	487	89	2750	753.764151591	stim	stop-signal	685	1920975	0.0-27.2-1.2	beast_fmri_test	337	1918667,/,1919347,/,1920025,/,1920706,/,1921386,/	t,t,t,t,t	<img class = center src='/static/experiments/beast_fmri_test/images/V.png'></img>	89,71	2750.0	test	<img class = center src='/static/experiments/beast_fmri_test/images/redV.png'></img>	go	2100.0	2.0	2.0	go	target	V	89,Middle Finger	71,Index Finger	650.0	800.0	2100.0	2000.0	1.0	n/a	650.0	1.0	go_stim
236724.23584840936	753.764151590697	n/a	487	89	2750	753.764151591	stim	stop-signal	685	1920975	0.0-27.2-1.2	beast_fmri_test	337	1918667,/,1919347,/,1920025,/,1920706,/,1921386,/	t,t,t,t,t	<img class = center src='/static/experiments/beast_fmri_test/images/V.png'></img>	89,71	2750.0	test	<img class = center src='/static/experiments/beast_fmri_test/images/redV.png'></img>	go	2100.0	2.0	2.0	go	target	V	89,Middle Finger	71,Index Finger	650.0	800.0	2100.0	2000.0	1.0	n/a	650.0	1.0	ITI
238802	500	n/a	-1	-1	500	0.0	fixation	poldrack-single-stim	686	1922299	0.0-27.3-0.3	beast_fmri_test	337	1922065,/	t	<div class = centerbox2><div class = fixation>+</div></div>	none	500.0	test	n/a	n/a	n/a	n/a	n/a	n/a	n/a	n/a	n/a	n/a	n/a	n/a	n/a	n/a	n/a	n/a	n/a	n/a	fixation
238620.63920120266	650.0	n/a	771	89	2750	185.360798797	stim	stop-signal	687	1925053	0.0-27.3-1.3	beast_fmri_test	337	1922744,/,1923424,/,1924105,/,1924783,/	t,t,t,t	<img class = center src='/static/experiments/beast_fmri_test/images/V.png'></img>	89,71	2750.0	test	<img class = center src='/static/experiments/beast_fmri_test/images/redV.png'></img>	stop	2100.0	2.0	3.0	stop	target	V	89,Middle Finger	71,Index Finger	650.0	800.0	2100.0	2000.0	0.0	0.0	650.0	n/a	go_stim
240720.63920120266	2100.0	n/a	771	89	2750	185.360798797	stim	stop-signal	687	1925053	0.0-27.3-1.3	beast_fmri_test	337	1922744,/,1923424,/,1924105,/,1924783,/	t,t,t,t	<img class = center src='/static/experiments/beast_fmri_test/images/V.png'></img>	89,71	2750.0	test	<img class = center src='/static/experiments/beast_fmri_test/images/redV.png'></img>	stop	2100.0	2.0	3.0	stop	target	V	89,Middle Finger	71,Index Finger	650.0	800.0	2100.0	2000.0	0.0	0.0	650.0	n/a	stop_stim
241370.63920120266	185.36079879722539	n/a	771	89	2750	185.360798797	stim	stop-signal	687	1925053	0.0-27.3-1.3	beast_fmri_test	337	1922744,/,1923424,/,1924105,/,1924783,/	t,t,t,t	<img class = center src='/static/experiments/beast_fmri_test/images/V.png'></img>	89,71	2750.0	test	<img class = center src='/static/experiments/beast_fmri_test/images/redV.png'></img>	stop	2100.0	2.0	3.0	stop	target	V	89,Middle Finger	71,Index Finger	650.0	800.0	2100.0	2000.0	0.0	0.0	650.0	n/a	ITI
242313	500	n/a	-1	-1	500	0.0	fixation	poldrack-single-stim	688	1925810	0.0-27.4-0.4	beast_fmri_test	337	1925463,/	t	<div class = centerbox2><div class = fixation>+</div></div>	none	500.0	test	n/a	n/a	n/a	n/a	n/a	n/a	n/a	n/a	n/a	n/a	n/a	n/a	n/a	n/a	n/a	n/a	n/a	n/a	fixation
241317.69001685665	2750	n/a	649	89	2750	998.309983143	stim	stop-signal	689	1928563	0.0-27.4-1.4	beast_fmri_test	337	1926144,/,1926823,/,1927503,/,1928182,/,1928862,/,1929541,/	t,t,t,t,t,t	<img class = center src='/static/experiments/beast_fmri_test/images/V.png'></img>	89,71	2750.0	test	<img class = center src='/static/experiments/beast_fmri_test/images/redV.png'></img>	go	2150.0	2.0	4.0	go	target	V	89,Middle Finger	71,Index Finger	600.0	800.0	2150.0	2000.0	1.0	n/a	600.0	1.0	go_stim
244067.69001685665	998.30998314333499	n/a	649	89	2750	998.309983143	stim	stop-signal	689	1928563	0.0-27.4-1.4	beast_fmri_test	337	1926144,/,1926823,/,1927503,/,1928182,/,1928862,/,1929541,/	t,t,t,t,t,t	<img class = center src='/static/experiments/beast_fmri_test/images/V.png'></img>	89,71	2750.0	test	<img class = center src='/static/experiments/beast_fmri_test/images/redV.png'></img>	go	2150.0	2.0	4.0	go	target	V	89,Middle Finger	71,Index Finger	600.0	800.0	2150.0	2000.0	1.0	n/a	600.0	1.0	ITI
246632	500	n/a	-1	-1	500	0.0	fixation	poldrack-single-stim	690	1930129	0.0-27.5-0.5	beast_fmri_test	337	n/a	n/a	<div class = centerbox2><div class = fixation>+</div></div>	none	500.0	test	n/a	n/a	n/a	n/a	n/a	n/a	n/a	n/a	n/a	n/a	n/a	n/a	n/a	n/a	n/a	n/a	n/a	n/a	fixation
245577.42758327466	2750	n/a	560	71	2750	1055.57241673	stim	stop-signal	691	1932880	0.0-27.5-1.5	beast_fmri_test	337	1930222,/,1930901,/,1931581,/,1932261,/,1932940,/,1933619,/	t,t,t,t,t,t	<img class = center src='/static/experiments/beast_fmri_test/images/D.png'></img>	89,71	2750.0	test	<img class = center src='/static/experiments/beast_fmri_test/images/redD.png'></img>	go	1950.0	2.0	5.0	go	non-target	D	89,Middle Finger	71,Index Finger	600.0	800.0	2150.0	1950.0	1.0	n/a	800.0	1.0	go_stim
248327.42758327466	1055.5724167252724	n/a	560	71	2750	1055.57241673	stim	stop-signal	691	1932880	0.0-27.5-1.5	beast_fmri_test	337	1930222,/,1930901,/,1931581,/,1932261,/,1932940,/,1933619,/	t,t,t,t,t,t	<img class = center src='/static/experiments/beast_fmri_test/images/D.png'></img>	89,71	2750.0	test	<img class = center src='/static/experiments/beast_fmri_test/images/redD.png'></img>	go	1950.0	2.0	5.0	go	non-target	D	89,Middle Finger	71,Index Finger	600.0	800.0	2150.0	1950.0	1.0	n/a	800.0	1.0	ITI
251007	500	n/a	-1	-1	500	0.0	fixation	poldrack-single-stim	692	1934504	0.0-27.6-0.6	beast_fmri_test	337	1934300,/	t	<div class = centerbox2><div class = fixation>+</div></div>	none	500.0	test	n/a	n/a	n/a	n/a	n/a	n/a	n/a	n/a	n/a	n/a	n/a	n/a	n/a	n/a	n/a	n/a	n/a	n/a	fixation
250896.42244434636	2750	n/a	867	71	2750	111.577555654	stim	stop-signal	693	1937255	0.0-27.6-1.6	beast_fmri_test	337	1934979,/,1935659,/,1936339,/,1937019,/	t,t,t,t	<img class = center src='/static/experiments/beast_fmri_test/images/D.png'></img>	89,71	2750.0	test	<img class = center src='/static/experiments/beast_fmri_test/images/redD.png'></img>	go	1950.0	2.0	6.0	go	non-target	D	89,Middle Finger	71,Index Finger	600.0	800.0	2150.0	1950.0	1.0	n/a	800.0	1.0	go_stim
253646.42244434636	111.57755565360814	n/a	867	71	2750	111.577555654	stim	stop-signal	693	1937255	0.0-27.6-1.6	beast_fmri_test	337	1934979,/,1935659,/,1936339,/,1937019,/	t,t,t,t	<img class = center src='/static/experiments/beast_fmri_test/images/D.png'></img>	89,71	2750.0	test	<img class = center src='/static/experiments/beast_fmri_test/images/redD.png'></img>	go	1950.0	2.0	6.0	go	non-target	D	89,Middle Finger	71,Index Finger	600.0	800.0	2150.0	1950.0	1.0	n/a	800.0	1.0	ITI
254442	500	n/a	-1	-1	500	0.0	fixation	poldrack-single-stim	694	1937939	0.0-27.7-0.7	beast_fmri_test	337	1937698,/	t	<div class = centerbox2><div class = fixation>+</div></div>	none	500.0	test	n/a	n/a	n/a	n/a	n/a	n/a	n/a	n/a	n/a	n/a	n/a	n/a	n/a	n/a	n/a	n/a	n/a	n/a	fixation
251838.91086148052	800.0	n/a	701	71	2750	2605.08913852	stim	stop-signal	695	1940691	0.0-27.7-1.7	beast_fmri_test	337	1938377,/,1939056,/,1939735,/,1940416,/,1941097,/,1941776,/,1942455,/,1943137,/	t,t,t,t,t,t,t,t	<img class = center src='/static/experiments/beast_fmri_test/images/B.png'></img>	89,71	2750.0	test	<img class = center src='/static/experiments/beast_fmri_test/images/redB.png'></img>	stop	1950.0	2.0	7.0	stop	non-target	B	89,Middle Finger	71,Index Finger	600.0	800.0	2150.0	1950.0	0.0	0.0	800.0	n/a	go_stim
253788.91086148052	1950.0	n/a	701	71	2750	2605.08913852	stim	stop-signal	695	1940691	0.0-27.7-1.7	beast_fmri_test	337	1938377,/,1939056,/,1939735,/,1940416,/,1941097,/,1941776,/,1942455,/,1943137,/	t,t,t,t,t,t,t,t	<img class = center src='/static/experiments/beast_fmri_test/images/B.png'></img>	89,71	2750.0	test	<img class = center src='/static/experiments/beast_fmri_test/images/redB.png'></img>	stop	1950.0	2.0	7.0	stop	non-target	B	89,Middle Finger	71,Index Finger	600.0	800.0	2150.0	1950.0	0.0	0.0	800.0	n/a	stop_stim
254588.91086148052	2605.0891385194932	n/a	701	71	2750	2605.08913852	stim	stop-signal	695	1940691	0.0-27.7-1.7	beast_fmri_test	337	1938377,/,1939056,/,1939735,/,1940416,/,1941097,/,1941776,/,1942455,/,1943137,/	t,t,t,t,t,t,t,t	<img class = center src='/static/experiments/beast_fmri_test/images/B.png'></img>	89,71	2750.0	test	<img class = center src='/static/experiments/beast_fmri_test/images/redB.png'></img>	stop	1950.0	2.0	7.0	stop	non-target	B	89,Middle Finger	71,Index Finger	600.0	800.0	2150.0	1950.0	0.0	0.0	800.0	n/a	ITI
260374	500	n/a	-1	-1	500	0.0	fixation	poldrack-single-stim	696	1943871	0.0-27.8-0.8	beast_fmri_test	337	1943816,/	t	<div class = centerbox2><div class = fixation>+</div></div>	none	500.0	test	n/a	n/a	n/a	n/a	n/a	n/a	n/a	n/a	n/a	n/a	n/a	n/a	n/a	n/a	n/a	n/a	n/a	n/a	fixation
259154.5360757804	750.0	n/a	959	71	2750	1222.46392422	stim	stop-signal	697	1946624	0.0-27.8-1.8	beast_fmri_test	337	1944495,/,1945174,/,1945854,/,1946533,/,1947214,/	t,t,t,t,t	<img class = center src='/static/experiments/beast_fmri_test/images/T.png'></img>	89,71	2750.0	test	<img class = center src='/static/experiments/beast_fmri_test/images/redT.png'></img>	stop	2000.0	2.0	8.0	stop	non-target	T	89,Middle Finger	71,Index Finger	600.0	750.0	2150.0	2000.0	0.0	0.0	750.0	n/a	go_stim
261154.5360757804	2000.0	n/a	959	71	2750	1222.46392422	stim	stop-signal	697	1946624	0.0-27.8-1.8	beast_fmri_test	337	1944495,/,1945174,/,1945854,/,1946533,/,1947214,/	t,t,t,t,t	<img class = center src='/static/experiments/beast_fmri_test/images/T.png'></img>	89,71	2750.0	test	<img class = center src='/static/experiments/beast_fmri_test/images/redT.png'></img>	stop	2000.0	2.0	8.0	stop	non-target	T	89,Middle Finger	71,Index Finger	600.0	750.0	2150.0	2000.0	0.0	0.0	750.0	n/a	stop_stim
261904.5360757804	1222.4639242197004	n/a	959	71	2750	1222.46392422	stim	stop-signal	697	1946624	0.0-27.8-1.8	beast_fmri_test	337	1944495,/,1945174,/,1945854,/,1946533,/,1947214,/	t,t,t,t,t	<img class = center src='/static/experiments/beast_fmri_test/images/T.png'></img>	89,71	2750.0	test	<img class = center src='/static/experiments/beast_fmri_test/images/redT.png'></img>	stop	2000.0	2.0	8.0	stop	non-target	T	89,Middle Finger	71,Index Finger	600.0	750.0	2150.0	2000.0	0.0	0.0	750.0	n/a	ITI
264921	500	n/a	-1	-1	500	0.0	fixation	poldrack-single-stim	698	1948418	0.0-27.9-0.9	beast_fmri_test	337	1947916,/	t	<div class = centerbox2><div class = fixation>+</div></div>	none	500.0	test	n/a	n/a	n/a	n/a	n/a	n/a	n/a	n/a	n/a	n/a	n/a	n/a	n/a	n/a	n/a	n/a	n/a	n/a	fixation
263159.16321941442	2750	n/a	1225	71	2750	1762.83678059	stim	stop-signal	699	1951169	0.0-27.9-1.9	beast_fmri_test	337	1948574,/,1949255,/,1949932,/,1950613,/,1951291,/,1951974,/,1952650,/	t,t,t,t,t,t,t	<img class = center src='/static/experiments/beast_fmri_test/images/V.png'></img>	89,71	2750.0	test	<img class = center src='/static/experiments/beast_fmri_test/images/redV.png'></img>	go	2050.0	2.0	9.0	go	non-target	V	89,Middle Finger	71,Index Finger	600.0	700.0	2150.0	2050.0	1.0	n/a	700.0	1.0	go_stim
265909.16321941442	1762.8367805856292	n/a	1225	71	2750	1762.83678059	stim	stop-signal	699	1951169	0.0-27.9-1.9	beast_fmri_test	337	1948574,/,1949255,/,1949932,/,1950613,/,1951291,/,1951974,/,1952650,/	t,t,t,t,t,t,t	<img class = center src='/static/experiments/beast_fmri_test/images/V.png'></img>	89,71	2750.0	test	<img class = center src='/static/experiments/beast_fmri_test/images/redV.png'></img>	go	2050.0	2.0	9.0	go	non-target	V	89,Middle Finger	71,Index Finger	600.0	700.0	2150.0	2050.0	1.0	n/a	700.0	1.0	ITI
270008	500	n/a	-1	-1	500	0.0	fixation	poldrack-single-stim	700	1953505	0.0-27.10-0.10	beast_fmri_test	337	1953331,/	t	<div class = centerbox2><div class = fixation>+</div></div>	none	500.0	test	n/a	n/a	n/a	n/a	n/a	n/a	n/a	n/a	n/a	n/a	n/a	n/a	n/a	n/a	n/a	n/a	n/a	n/a	fixation
269729.50088972342	2750	n/a	919	71	2750	279.499110277	stim	stop-signal	701	1956256	0.0-27.10-1.10	beast_fmri_test	337	1954011,/,1954691,/,1955370,/,1956050,/	t,t,t,t	<img class = center src='/static/experiments/beast_fmri_test/images/B.png'></img>	89,71	2750.0	test	<img class = center src='/static/experiments/beast_fmri_test/images/redB.png'></img>	go	2050.0	2.0	10.0	go	non-target	B	89,Middle Finger	71,Index Finger	600.0	700.0	2150.0	2050.0	1.0	n/a	700.0	1.0	go_stim
272479.50088972342	279.49911027659385	n/a	919	71	2750	279.499110277	stim	stop-signal	701	1956256	0.0-27.10-1.10	beast_fmri_test	337	1954011,/,1954691,/,1955370,/,1956050,/	t,t,t,t	<img class = center src='/static/experiments/beast_fmri_test/images/B.png'></img>	89,71	2750.0	test	<img class = center src='/static/experiments/beast_fmri_test/images/redB.png'></img>	go	2050.0	2.0	10.0	go	non-target	B	89,Middle Finger	71,Index Finger	600.0	700.0	2150.0	2050.0	1.0	n/a	700.0	1.0	ITI
273615	500	n/a	-1	-1	500	0.0	fixation	poldrack-single-stim	702	1957112	0.0-27.11-0.11	beast_fmri_test	337	1956729,/	t	<div class = centerbox2><div class = fixation>+</div></div>	none	500.0	test	n/a	n/a	n/a	n/a	n/a	n/a	n/a	n/a	n/a	n/a	n/a	n/a	n/a	n/a	n/a	n/a	n/a	n/a	fixation
272854.75745123182	2750	n/a	946	89	2750	761.242548768	stim	stop-signal	703	1959863	0.0-27.11-1.11	beast_fmri_test	337	1957409,/,1958089,/,1958769,/,1959447,/,1960128,/	t,t,t,t,t	<img class = center src='/static/experiments/beast_fmri_test/images/V.png'></img>	89,71	2750.0	test	<img class = center src='/static/experiments/beast_fmri_test/images/redV.png'></img>	go	2150.0	2.0	11.0	go	target	V	89,Middle Finger	71,Index Finger	600.0	700.0	2150.0	2050.0	1.0	n/a	600.0	1.0	go_stim
275604.75745123182	761.24254876829059	n/a	946	89	2750	761.242548768	stim	stop-signal	703	1959863	0.0-27.11-1.11	beast_fmri_test	337	1957409,/,1958089,/,1958769,/,1959447,/,1960128,/	t,t,t,t,t	<img class = center src='/static/experiments/beast_fmri_test/images/V.png'></img>	89,71	2750.0	test	<img class = center src='/static/experiments/beast_fmri_test/images/redV.png'></img>	go	2150.0	2.0	11.0	go	target	V	89,Middle Finger	71,Index Finger	600.0	700.0	2150.0	2050.0	1.0	n/a	600.0	1.0	ITI
277707	500	n/a	-1	-1	500	0.0	fixation	poldrack-single-stim	704	1961204	0.0-27.12-0.12	beast_fmri_test	337	1960808,/	t	<div class = centerbox2><div class = fixation>+</div></div>	none	500.0	test	n/a	n/a	n/a	n/a	n/a	n/a	n/a	n/a	n/a	n/a	n/a	n/a	n/a	n/a	n/a	n/a	n/a	n/a	fixation
277030.28070545197	600.0	n/a	-1	-1	2750	677.719294548	stim	stop-signal	705	1963955	0.0-27.12-1.12	beast_fmri_test	337	1961487,/,1962166,/,1962845,/,1963526,/,1964206,/	t,t,t,t,t	<img class = center src='/static/experiments/beast_fmri_test/images/B.png'></img>	89,71	2750.0	test	<img class = center src='/static/experiments/beast_fmri_test/images/redB.png'></img>	stop	2150.0	2.0	12.0	stop	target	B	89,Middle Finger	71,Index Finger	600.0	700.0	2150.0	2050.0	0.0	1.0	600.0	n/a	go_stim
279180.28070545197	2150.0	n/a	-1	-1	2750	677.719294548	stim	stop-signal	705	1963955	0.0-27.12-1.12	beast_fmri_test	337	1961487,/,1962166,/,1962845,/,1963526,/,1964206,/	t,t,t,t,t	<img class = center src='/static/experiments/beast_fmri_test/images/B.png'></img>	89,71	2750.0	test	<img class = center src='/static/experiments/beast_fmri_test/images/redB.png'></img>	stop	2150.0	2.0	12.0	stop	target	B	89,Middle Finger	71,Index Finger	600.0	700.0	2150.0	2050.0	0.0	1.0	600.0	n/a	stop_stim
279780.28070545197	677.71929454808162	n/a	-1	-1	2750	677.719294548	stim	stop-signal	705	1963955	0.0-27.12-1.12	beast_fmri_test	337	1961487,/,1962166,/,1962845,/,1963526,/,1964206,/	t,t,t,t,t	<img class = center src='/static/experiments/beast_fmri_test/images/B.png'></img>	89,71	2750.0	test	<img class = center src='/static/experiments/beast_fmri_test/images/redB.png'></img>	stop	2150.0	2.0	12.0	stop	target	B	89,Middle Finger	71,Index Finger	600.0	700.0	2150.0	2050.0	0.0	1.0	600.0	n/a	ITI
281710	500	n/a	-1	-1	500	0.0	fixation	poldrack-single-stim	706	1965207	0.0-27.13-0.13	beast_fmri_test	337	1964886,/	t	<div class = centerbox2><div class = fixation>+</div></div>	none	500.0	test	n/a	n/a	n/a	n/a	n/a	n/a	n/a	n/a	n/a	n/a	n/a	n/a	n/a	n/a	n/a	n/a	n/a	n/a	fixation
280795.3630772843	700.0	n/a	-1	-1	2750	916.636922716	stim	stop-signal	707	1967959	0.0-27.13-1.13	beast_fmri_test	337	1965565,/,1966244,/,1966924,/,1967604,/,1968283,/	t,t,t,t,t	<img class = center src='/static/experiments/beast_fmri_test/images/T.png'></img>	89,71	2750.0	test	<img class = center src='/static/experiments/beast_fmri_test/images/redT.png'></img>	stop	2050.0	2.0	13.0	stop	non-target	T	89,Middle Finger	71,Index Finger	650.0	700.0	2150.0	2050.0	0.0	1.0	700.0	n/a	go_stim
282845.3630772843	2050.0	n/a	-1	-1	2750	916.636922716	stim	stop-signal	707	1967959	0.0-27.13-1.13	beast_fmri_test	337	1965565,/,1966244,/,1966924,/,1967604,/,1968283,/	t,t,t,t,t	<img class = center src='/static/experiments/beast_fmri_test/images/T.png'></img>	89,71	2750.0	test	<img class = center src='/static/experiments/beast_fmri_test/images/redT.png'></img>	stop	2050.0	2.0	13.0	stop	non-target	T	89,Middle Finger	71,Index Finger	650.0	700.0	2150.0	2050.0	0.0	1.0	700.0	n/a	stop_stim
283545.3630772843	916.63692271558932	n/a	-1	-1	2750	916.636922716	stim	stop-signal	707	1967959	0.0-27.13-1.13	beast_fmri_test	337	1965565,/,1966244,/,1966924,/,1967604,/,1968283,/	t,t,t,t,t	<img class = center src='/static/experiments/beast_fmri_test/images/T.png'></img>	89,71	2750.0	test	<img class = center src='/static/experiments/beast_fmri_test/images/redT.png'></img>	stop	2050.0	2.0	13.0	stop	non-target	T	89,Middle Finger	71,Index Finger	650.0	700.0	2150.0	2050.0	0.0	1.0	700.0	n/a	ITI
285961	500	n/a	-1	-1	500	0.0	fixation	poldrack-single-stim	708	1969458	0.0-27.14-0.14	beast_fmri_test	337	1968965,/	t	<div class = centerbox2><div class = fixation>+</div></div>	none	500.0	test	n/a	n/a	n/a	n/a	n/a	n/a	n/a	n/a	n/a	n/a	n/a	n/a	n/a	n/a	n/a	n/a	n/a	n/a	fixation
285958.50374639872	750.0	n/a	774	71	2750	4.49625360129	stim	stop-signal	709	1972210	0.0-27.14-1.14	beast_fmri_test	337	1969643,/,1970322,/,1971001,/,1971682,/	t,t,t,t	<img class = center src='/static/experiments/beast_fmri_test/images/D.png'></img>	89,71	2750.0	test	<img class = center src='/static/experiments/beast_fmri_test/images/redD.png'></img>	stop	2000.0	2.0	14.0	stop	non-target	D	89,Middle Finger	71,Index Finger	650.0	750.0	2150.0	2000.0	0.0	0.0	750.0	n/a	go_stim
287958.50374639872	2000.0	n/a	774	71	2750	4.49625360129	stim	stop-signal	709	1972210	0.0-27.14-1.14	beast_fmri_test	337	1969643,/,1970322,/,1971001,/,1971682,/	t,t,t,t	<img class = center src='/static/experiments/beast_fmri_test/images/D.png'></img>	89,71	2750.0	test	<img class = center src='/static/experiments/beast_fmri_test/images/redD.png'></img>	stop	2000.0	2.0	14.0	stop	non-target	D	89,Middle Finger	71,Index Finger	650.0	750.0	2150.0	2000.0	0.0	0.0	750.0	n/a	stop_stim
288708.50374639872	4.4962536012948631	n/a	774	71	2750	4.49625360129	stim	stop-signal	709	1972210	0.0-27.14-1.14	beast_fmri_test	337	1969643,/,1970322,/,1971001,/,1971682,/	t,t,t,t	<img class = center src='/static/experiments/beast_fmri_test/images/D.png'></img>	89,71	2750.0	test	<img class = center src='/static/experiments/beast_fmri_test/images/redD.png'></img>	stop	2000.0	2.0	14.0	stop	non-target	D	89,Middle Finger	71,Index Finger	650.0	750.0	2150.0	2000.0	0.0	0.0	750.0	n/a	ITI
289293	500	n/a	-1	-1	500	0.0	fixation	poldrack-single-stim	710	1972790	0.0-27.15-0.15	beast_fmri_test	337	1972360,/	t	<div class = centerbox2><div class = fixation>+</div></div>	none	500.0	test	n/a	n/a	n/a	n/a	n/a	n/a	n/a	n/a	n/a	n/a	n/a	n/a	n/a	n/a	n/a	n/a	n/a	n/a	fixation
288307.98687201785	2750	n/a	1262	71	2750	987.013127982	stim	stop-signal	711	1975542	0.0-27.15-1.15	beast_fmri_test	337	1973042,/,1973722,/,1974402,/,1975081,/,1975760,/,1976440,/	t,t,t,t,t,t	<img class = center src='/static/experiments/beast_fmri_test/images/V.png'></img>	89,71	2750.0	test	<img class = center src='/static/experiments/beast_fmri_test/images/redV.png'></img>	go	2050.0	2.0	15.0	go	non-target	V	89,Middle Finger	71,Index Finger	650.0	700.0	2150.0	2050.0	1.0	n/a	700.0	1.0	go_stim
291057.98687201785	987.01312798207277	n/a	1262	71	2750	987.013127982	stim	stop-signal	711	1975542	0.0-27.15-1.15	beast_fmri_test	337	1973042,/,1973722,/,1974402,/,1975081,/,1975760,/,1976440,/	t,t,t,t,t,t	<img class = center src='/static/experiments/beast_fmri_test/images/V.png'></img>	89,71	2750.0	test	<img class = center src='/static/experiments/beast_fmri_test/images/redV.png'></img>	go	2050.0	2.0	15.0	go	non-target	V	89,Middle Finger	71,Index Finger	650.0	700.0	2150.0	2050.0	1.0	n/a	700.0	1.0	ITI
293615	500	n/a	-1	-1	500	0.0	fixation	poldrack-single-stim	712	1977112	0.0-27.16-0.16	beast_fmri_test	337	n/a	n/a	<div class = centerbox2><div class = fixation>+</div></div>	none	500.0	test	n/a	n/a	n/a	n/a	n/a	n/a	n/a	n/a	n/a	n/a	n/a	n/a	n/a	n/a	n/a	n/a	n/a	n/a	fixation
291787.46196847572	2750	n/a	1516	71	2750	1830.53803152	stim	stop-signal	713	1979865	0.0-27.16-1.16	beast_fmri_test	337	1977121,/,1977800,/,1978480,/,1979159,/,1979839,/,1980519,/,1981198,/	t,t,t,t,t,t,t	<img class = center src='/static/experiments/beast_fmri_test/images/P.png'></img>	89,71	2750.0	test	<img class = center src='/static/experiments/beast_fmri_test/images/redP.png'></img>	go	2050.0	2.0	16.0	go	non-target	P	89,Middle Finger	71,Index Finger	650.0	700.0	2150.0	2050.0	1.0	n/a	700.0	1.0	go_stim
294537.46196847572	1830.5380315243415	n/a	1516	71	2750	1830.53803152	stim	stop-signal	713	1979865	0.0-27.16-1.16	beast_fmri_test	337	1977121,/,1977800,/,1978480,/,1979159,/,1979839,/,1980519,/,1981198,/	t,t,t,t,t,t,t	<img class = center src='/static/experiments/beast_fmri_test/images/P.png'></img>	89,71	2750.0	test	<img class = center src='/static/experiments/beast_fmri_test/images/redP.png'></img>	go	2050.0	2.0	16.0	go	non-target	P	89,Middle Finger	71,Index Finger	650.0	700.0	2150.0	2050.0	1.0	n/a	700.0	1.0	ITI
298783	500	n/a	-1	-1	500	0.0	fixation	poldrack-single-stim	714	1982280	0.0-27.17-0.17	beast_fmri_test	337	1981878,/	t	<div class = centerbox2><div class = fixation>+</div></div>	none	500.0	test	n/a	n/a	n/a	n/a	n/a	n/a	n/a	n/a	n/a	n/a	n/a	n/a	n/a	n/a	n/a	n/a	n/a	n/a	fixation
298729.08596771723	2750	n/a	821	71	2750	56.9140322828	stim	stop-signal	715	1985033	0.0-27.17-1.17	beast_fmri_test	337	1982557,/,1983236,/,1983917,/,1984596,/	t,t,t,t	<img class = center src='/static/experiments/beast_fmri_test/images/P.png'></img>	89,71	2750.0	test	<img class = center src='/static/experiments/beast_fmri_test/images/redP.png'></img>	go	2050.0	2.0	17.0	go	non-target	P	89,Middle Finger	71,Index Finger	650.0	700.0	2150.0	2050.0	1.0	n/a	700.0	1.0	go_stim
301479.08596771723	56.914032282819512	n/a	821	71	2750	56.9140322828	stim	stop-signal	715	1985033	0.0-27.17-1.17	beast_fmri_test	337	1982557,/,1983236,/,1983917,/,1984596,/	t,t,t,t	<img class = center src='/static/experiments/beast_fmri_test/images/P.png'></img>	89,71	2750.0	test	<img class = center src='/static/experiments/beast_fmri_test/images/redP.png'></img>	go	2050.0	2.0	17.0	go	non-target	P	89,Middle Finger	71,Index Finger	650.0	700.0	2150.0	2050.0	1.0	n/a	700.0	1.0	ITI
302168	500	n/a	-1	-1	500	0.0	fixation	poldrack-single-stim	716	1985665	0.0-27.18-0.18	beast_fmri_test	337	1985275,/	t	<div class = centerbox2><div class = fixation>+</div></div>	none	500.0	test	n/a	n/a	n/a	n/a	n/a	n/a	n/a	n/a	n/a	n/a	n/a	n/a	n/a	n/a	n/a	n/a	n/a	n/a	fixation
302002.96077388548	700.0	n/a	895	71	2750	167.039226115	stim	stop-signal	717	1988417	0.0-27.18-1.18	beast_fmri_test	337	1985955,/,1986634,/,1987314,/,1987995,/	t,t,t,t	<img class = center src='/static/experiments/beast_fmri_test/images/B.png'></img>	89,71	2750.0	test	<img class = center src='/static/experiments/beast_fmri_test/images/redB.png'></img>	stop	2050.0	2.0	18.0	stop	non-target	B	89,Middle Finger	71,Index Finger	650.0	700.0	2150.0	2050.0	0.0	0.0	700.0	n/a	go_stim
304052.96077388548	2050.0	n/a	895	71	2750	167.039226115	stim	stop-signal	717	1988417	0.0-27.18-1.18	beast_fmri_test	337	1985955,/,1986634,/,1987314,/,1987995,/	t,t,t,t	<img class = center src='/static/experiments/beast_fmri_test/images/B.png'></img>	89,71	2750.0	test	<img class = center src='/static/experiments/beast_fmri_test/images/redB.png'></img>	stop	2050.0	2.0	18.0	stop	non-target	B	89,Middle Finger	71,Index Finger	650.0	700.0	2150.0	2050.0	0.0	0.0	700.0	n/a	stop_stim
304752.96077388548	167.03922611453683	n/a	895	71	2750	167.039226115	stim	stop-signal	717	1988417	0.0-27.18-1.18	beast_fmri_test	337	1985955,/,1986634,/,1987314,/,1987995,/	t,t,t,t	<img class = center src='/static/experiments/beast_fmri_test/images/B.png'></img>	89,71	2750.0	test	<img class = center src='/static/experiments/beast_fmri_test/images/redB.png'></img>	stop	2050.0	2.0	18.0	stop	non-target	B	89,Middle Finger	71,Index Finger	650.0	700.0	2150.0	2050.0	0.0	0.0	700.0	n/a	ITI
305668	500	n/a	-1	-1	500	0.0	fixation	poldrack-single-stim	718	1989165	0.0-27.19-0.19	beast_fmri_test	337	1988674,/	t	<div class = centerbox2><div class = fixation>+</div></div>	none	500.0	test	n/a	n/a	n/a	n/a	n/a	n/a	n/a	n/a	n/a	n/a	n/a	n/a	n/a	n/a	n/a	n/a	n/a	n/a	fixation
302582.65390633862	2750	n/a	1168	71	2750	3086.34609366	stim	stop-signal	719	1991916	0.0-27.19-1.19	beast_fmri_test	337	1989354,/,1990034,/,1990712,/,1991393,/,1992073,/,1992753,/,1993431,/,1994112,/,1994791,/	t,t,t,t,t,t,t,t,t	<img class = center src='/static/experiments/beast_fmri_test/images/D.png'></img>	89,71	2750.0	test	<img class = center src='/static/experiments/beast_fmri_test/images/redD.png'></img>	go	2100.0	2.0	19.0	go	non-target	D	89,Middle Finger	71,Index Finger	650.0	650.0	2150.0	2100.0	1.0	n/a	650.0	1.0	go_stim
305332.65390633862	3086.3460936614715	n/a	1168	71	2750	3086.34609366	stim	stop-signal	719	1991916	0.0-27.19-1.19	beast_fmri_test	337	1989354,/,1990034,/,1990712,/,1991393,/,1992073,/,1992753,/,1993431,/,1994112,/,1994791,/	t,t,t,t,t,t,t,t,t	<img class = center src='/static/experiments/beast_fmri_test/images/D.png'></img>	89,71	2750.0	test	<img class = center src='/static/experiments/beast_fmri_test/images/redD.png'></img>	go	2100.0	2.0	19.0	go	non-target	D	89,Middle Finger	71,Index Finger	650.0	650.0	2150.0	2100.0	1.0	n/a	650.0	1.0	ITI
312085	500	n/a	-1	-1	500	0.0	fixation	poldrack-single-stim	720	1995582	0.0-27.20-0.20	beast_fmri_test	337	1995470,/	t	<div class = centerbox2><div class = fixation>+</div></div>	none	500.0	test	n/a	n/a	n/a	n/a	n/a	n/a	n/a	n/a	n/a	n/a	n/a	n/a	n/a	n/a	n/a	n/a	n/a	n/a	fixation
311794.01114664366	2750	n/a	742	89	2750	292.988853356	stim	stop-signal	721	1998334	0.0-27.20-1.20	beast_fmri_test	337	1996151,/,1996832,/,1997511,/,1998190,/	t,t,t,t	<img class = center src='/static/experiments/beast_fmri_test/images/D.png'></img>	89,71	2750.0	test	<img class = center src='/static/experiments/beast_fmri_test/images/redD.png'></img>	go	2100.0	2.0	20.0	go	non-target	D	89,Middle Finger	71,Index Finger	650.0	650.0	2150.0	2100.0	0.0	n/a	650.0	0.0	go_stim
314544.01114664366	292.98885335637436	n/a	742	89	2750	292.988853356	stim	stop-signal	721	1998334	0.0-27.20-1.20	beast_fmri_test	337	1996151,/,1996832,/,1997511,/,1998190,/	t,t,t,t	<img class = center src='/static/experiments/beast_fmri_test/images/D.png'></img>	89,71	2750.0	test	<img class = center src='/static/experiments/beast_fmri_test/images/redD.png'></img>	go	2100.0	2.0	20.0	go	non-target	D	89,Middle Finger	71,Index Finger	650.0	650.0	2150.0	2100.0	0.0	n/a	650.0	0.0	ITI
315705	500	n/a	-1	-1	500	0.0	fixation	poldrack-single-stim	722	1999202	0.0-27.21-0.21	beast_fmri_test	337	1998869,/	t	<div class = centerbox2><div class = fixation>+</div></div>	none	500.0	test	n/a	n/a	n/a	n/a	n/a	n/a	n/a	n/a	n/a	n/a	n/a	n/a	n/a	n/a	n/a	n/a	n/a	n/a	fixation
