onset	duration	"”text"""	rt	key_press	block_duration	timing_post_trial	trial_id	trial_type	trial_index	time_elapsed	internal_node_id	exp_id	subject_id	trigger_times	triggers	stimulus	possible_responses	stim_duration	exp_stage	SS_stimulus	SS_trial_type	SS_duration	load	trial_num	stop_trial_type	adaptive_trial_type	stim	yes_response_key	no_response_key	SSD_target	SSD_non_target	SSTarget	SSNonTarget	go_acc	stop_acc	SS_delay	adaptive_acc	new_trial_type
test	10880	n/a	-1	-1	10880	0.0	practice-no-stop-feedback	poldrack-single-stim	6	76053	0.0-6.0	beast_fmri_test	337	65176,/,65855,/,66534,/,67213,/,67895,/,68573,/,69253,/,69933,/,70613,/,71292,/,71973,/,72652,/,73332,/,74010,/,74690,/,75370,/,76049,/	t,t,t,t,t,t,t,t,t,t,t,t,t,t,t,t,t	"<div class = ""centerbox""><p class = ""block-text"">Your delay is 2 trials.</p><p class = block-text>Please wait for the scanner to start the block</p></div>"	77	10880.0	n/a	n/a	n/a	n/a	n/a	n/a	n/a	n/a	n/a	n/a	n/a	n/a	n/a	n/a	n/a	n/a	n/a	n/a	n/a	start_functional_block
11380	500	n/a	-1	-1	500	0.0	fixation	poldrack-single-stim	7	76556	0.0-7.0-0.0	beast_fmri_test	337	n/a	n/a	<div class = centerbox2><div class = fixation>+</div></div>	none	500.0	test	n/a	n/a	n/a	n/a	n/a	n/a	n/a	n/a	n/a	n/a	n/a	n/a	n/a	n/a	n/a	n/a	n/a	n/a	fixation
11018.782784648356	2750	n/a	1868	71	2750	365.217215352	stim	stop-signal	8	79310	0.0-7.0-1.0	beast_fmri_test	337	76730,/,77408,/,78088,/,78769,/,79449,/	t,t,t,t,t	<img class = center src='/static/experiments/beast_fmri_test/images/V.png'></img>	89,71	2750.0	test	<img class = center src='/static/experiments/beast_fmri_test/images/redV.png'></img>	go	-1.0	2.0	0.0	go	temp-non-target	V	89,Middle Finger	71,Index Finger	500.0	500.0	0.0	0.0	0.0	n/a	n/a	n/a	go_stim
13768.782784648356	365.21721535163886	n/a	1868	71	2750	365.217215352	stim	stop-signal	8	79310	0.0-7.0-1.0	beast_fmri_test	337	76730,/,77408,/,78088,/,78769,/,79449,/	t,t,t,t,t	<img class = center src='/static/experiments/beast_fmri_test/images/V.png'></img>	89,71	2750.0	test	<img class = center src='/static/experiments/beast_fmri_test/images/redV.png'></img>	go	-1.0	2.0	0.0	go	temp-non-target	V	89,Middle Finger	71,Index Finger	500.0	500.0	0.0	0.0	0.0	n/a	n/a	n/a	ITI
15010	500	n/a	-1	-1	500	0.0	fixation	poldrack-single-stim	9	80186	0.0-7.1-0.1	beast_fmri_test	337	80128,/	t	<div class = centerbox2><div class = fixation>+</div></div>	none	500.0	test	n/a	n/a	n/a	n/a	n/a	n/a	n/a	n/a	n/a	n/a	n/a	n/a	n/a	n/a	n/a	n/a	n/a	n/a	fixation
14492.614447899497	temp_go_duration	n/a	791	71	2750	522.385552101	stim	stop-signal	10	82941	0.0-7.1-1.1	beast_fmri_test	337	80807,/,81488,/,82167,/,82848,/	t,t,t,t	<img class = center src='/static/experiments/beast_fmri_test/images/B.png'></img>	89,71	2750.0	test	<img class = center src='/static/experiments/beast_fmri_test/images/redB.png'></img>	stop	-1.0	2.0	1.0	stop	temp-non-target	B	89,Middle Finger	71,Index Finger	500.0	500.0	0.0	0.0	0.0	0.0	n/a	n/a	go_stim
temp-non-target	temp_stop_duration	n/a	791	71	2750	522.385552101	stim	stop-signal	10	82941	0.0-7.1-1.1	beast_fmri_test	337	80807,/,81488,/,82167,/,82848,/	t,t,t,t	<img class = center src='/static/experiments/beast_fmri_test/images/B.png'></img>	89,71	2750.0	test	<img class = center src='/static/experiments/beast_fmri_test/images/redB.png'></img>	stop	-1.0	2.0	1.0	stop	temp-non-target	B	89,Middle Finger	71,Index Finger	500.0	500.0	0.0	0.0	0.0	0.0	n/a	n/a	stop_stim
17242.614447899497	522.38555210050208	n/a	791	71	2750	522.385552101	stim	stop-signal	10	82941	0.0-7.1-1.1	beast_fmri_test	337	80807,/,81488,/,82167,/,82848,/	t,t,t,t	<img class = center src='/static/experiments/beast_fmri_test/images/B.png'></img>	89,71	2750.0	test	<img class = center src='/static/experiments/beast_fmri_test/images/redB.png'></img>	stop	-1.0	2.0	1.0	stop	temp-non-target	B	89,Middle Finger	71,Index Finger	500.0	500.0	0.0	0.0	0.0	0.0	n/a	n/a	ITI
18796	500	n/a	-1	-1	500	0.0	fixation	poldrack-single-stim	11	83972	0.0-7.2-0.2	beast_fmri_test	337	83527,/	t	<div class = centerbox2><div class = fixation>+</div></div>	none	500.0	test	n/a	n/a	n/a	n/a	n/a	n/a	n/a	n/a	n/a	n/a	n/a	n/a	n/a	n/a	n/a	n/a	n/a	n/a	fixation
18363.056300622673	500.0	n/a	588	71	2750	434.943699377	stim	stop-signal	12	86724	0.0-7.2-1.2	beast_fmri_test	337	84206,/,84886,/,85564,/,86246,/,86925,/	t,t,t,t,t	<img class = center src='/static/experiments/beast_fmri_test/images/V.png'></img>	89,71	2750.0	test	<img class = center src='/static/experiments/beast_fmri_test/images/redV.png'></img>	stop	2250.0	2.0	2.0	stop	target	V	89,Middle Finger	71,Index Finger	500.0	500.0	2250.0	0.0	0.0	0.0	500.0	n/a	go_stim
20613.056300622673	2250.0	n/a	588	71	2750	434.943699377	stim	stop-signal	12	86724	0.0-7.2-1.2	beast_fmri_test	337	84206,/,84886,/,85564,/,86246,/,86925,/	t,t,t,t,t	<img class = center src='/static/experiments/beast_fmri_test/images/V.png'></img>	89,71	2750.0	test	<img class = center src='/static/experiments/beast_fmri_test/images/redV.png'></img>	stop	2250.0	2.0	2.0	stop	target	V	89,Middle Finger	71,Index Finger	500.0	500.0	2250.0	0.0	0.0	0.0	500.0	n/a	stop_stim
21113.056300622673	434.94369937732932	n/a	588	71	2750	434.943699377	stim	stop-signal	12	86724	0.0-7.2-1.2	beast_fmri_test	337	84206,/,84886,/,85564,/,86246,/,86925,/	t,t,t,t,t	<img class = center src='/static/experiments/beast_fmri_test/images/V.png'></img>	89,71	2750.0	test	<img class = center src='/static/experiments/beast_fmri_test/images/redV.png'></img>	stop	2250.0	2.0	2.0	stop	target	V	89,Middle Finger	71,Index Finger	500.0	500.0	2250.0	0.0	0.0	0.0	500.0	n/a	ITI
22491	500	n/a	-1	-1	500	0.0	fixation	poldrack-single-stim	13	87667	0.0-7.3-0.3	beast_fmri_test	337	87606,/	t	<div class = centerbox2><div class = fixation>+</div></div>	none	500.0	test	n/a	n/a	n/a	n/a	n/a	n/a	n/a	n/a	n/a	n/a	n/a	n/a	n/a	n/a	n/a	n/a	n/a	n/a	fixation
21839.538468279454	2750	n/a	653	89	2750	652.461531721	stim	stop-signal	14	90418	0.0-7.3-1.3	beast_fmri_test	337	88285,/,88965,/,89643,/,90325,/,91004,/	t,t,t,t,t	<img class = center src='/static/experiments/beast_fmri_test/images/V.png'></img>	89,71	2750.0	test	<img class = center src='/static/experiments/beast_fmri_test/images/redV.png'></img>	go	2250.0	2.0	3.0	go	non-target	V	89,Middle Finger	71,Index Finger	450.0	500.0	2250.0	2250.0	0.0	n/a	500.0	0.0	go_stim
24589.538468279454	652.46153172054392	n/a	653	89	2750	652.461531721	stim	stop-signal	14	90418	0.0-7.3-1.3	beast_fmri_test	337	88285,/,88965,/,89643,/,90325,/,91004,/	t,t,t,t,t	<img class = center src='/static/experiments/beast_fmri_test/images/V.png'></img>	89,71	2750.0	test	<img class = center src='/static/experiments/beast_fmri_test/images/redV.png'></img>	go	2250.0	2.0	3.0	go	non-target	V	89,Middle Finger	71,Index Finger	450.0	500.0	2250.0	2250.0	0.0	n/a	500.0	0.0	ITI
26400	500	n/a	-1	-1	500	0.0	fixation	poldrack-single-stim	15	91576	0.0-7.4-0.4	beast_fmri_test	337	n/a	n/a	<div class = centerbox2><div class = fixation>+</div></div>	none	500.0	test	n/a	n/a	n/a	n/a	n/a	n/a	n/a	n/a	n/a	n/a	n/a	n/a	n/a	n/a	n/a	n/a	n/a	n/a	fixation
25866.824189874358	2750	n/a	822	71	2750	536.175810126	stim	stop-signal	16	94329	0.0-7.4-1.4	beast_fmri_test	337	91683,/,92363,/,93048,/,93723,/,94402,/	t,t,t,t,t	<img class = center src='/static/experiments/beast_fmri_test/images/D.png'></img>	89,71	2750.0	test	<img class = center src='/static/experiments/beast_fmri_test/images/redD.png'></img>	go	2250.0	2.0	4.0	go	non-target	D	89,Middle Finger	71,Index Finger	450.0	500.0	2250.0	2250.0	1.0	n/a	500.0	1.0	go_stim
28616.824189874358	536.17581012564222	n/a	822	71	2750	536.175810126	stim	stop-signal	16	94329	0.0-7.4-1.4	beast_fmri_test	337	91683,/,92363,/,93048,/,93723,/,94402,/	t,t,t,t,t	<img class = center src='/static/experiments/beast_fmri_test/images/D.png'></img>	89,71	2750.0	test	<img class = center src='/static/experiments/beast_fmri_test/images/redD.png'></img>	go	2250.0	2.0	4.0	go	non-target	D	89,Middle Finger	71,Index Finger	450.0	500.0	2250.0	2250.0	1.0	n/a	500.0	1.0	ITI
30196	500	n/a	-1	-1	500	0.0	fixation	poldrack-single-stim	17	95372	0.0-7.5-0.5	beast_fmri_test	337	95083,/	t	<div class = centerbox2><div class = fixation>+</div></div>	none	500.0	test	n/a	n/a	n/a	n/a	n/a	n/a	n/a	n/a	n/a	n/a	n/a	n/a	n/a	n/a	n/a	n/a	n/a	n/a	fixation
26592.768882073113	500.0	n/a	764	71	2750	3605.23111793	stim	stop-signal	18	98124	0.0-7.5-1.5	beast_fmri_test	337	95762,/,96441,/,97121,/,97801,/,98480,/,99159,/,99839,/,100520,/,101199,/	t,t,t,t,t,t,t,t,t	<img class = center src='/static/experiments/beast_fmri_test/images/T.png'></img>	89,71	2750.0	test	<img class = center src='/static/experiments/beast_fmri_test/images/redT.png'></img>	stop	2250.0	2.0	5.0	stop	non-target	T	89,Middle Finger	71,Index Finger	450.0	500.0	2250.0	2250.0	0.0	0.0	500.0	n/a	go_stim
28842.768882073113	2250.0	n/a	764	71	2750	3605.23111793	stim	stop-signal	18	98124	0.0-7.5-1.5	beast_fmri_test	337	95762,/,96441,/,97121,/,97801,/,98480,/,99159,/,99839,/,100520,/,101199,/	t,t,t,t,t,t,t,t,t	<img class = center src='/static/experiments/beast_fmri_test/images/T.png'></img>	89,71	2750.0	test	<img class = center src='/static/experiments/beast_fmri_test/images/redT.png'></img>	stop	2250.0	2.0	5.0	stop	non-target	T	89,Middle Finger	71,Index Finger	450.0	500.0	2250.0	2250.0	0.0	0.0	500.0	n/a	stop_stim
29342.768882073113	3605.2311179268941	n/a	764	71	2750	3605.23111793	stim	stop-signal	18	98124	0.0-7.5-1.5	beast_fmri_test	337	95762,/,96441,/,97121,/,97801,/,98480,/,99159,/,99839,/,100520,/,101199,/	t,t,t,t,t,t,t,t,t	<img class = center src='/static/experiments/beast_fmri_test/images/T.png'></img>	89,71	2750.0	test	<img class = center src='/static/experiments/beast_fmri_test/images/redT.png'></img>	stop	2250.0	2.0	5.0	stop	non-target	T	89,Middle Finger	71,Index Finger	450.0	500.0	2250.0	2250.0	0.0	0.0	500.0	n/a	ITI
37059	500	n/a	-1	-1	500	0.0	fixation	poldrack-single-stim	19	102235	0.0-7.6-0.6	beast_fmri_test	337	101882,/	t	<div class = centerbox2><div class = fixation>+</div></div>	none	500.0	test	n/a	n/a	n/a	n/a	n/a	n/a	n/a	n/a	n/a	n/a	n/a	n/a	n/a	n/a	n/a	n/a	n/a	n/a	fixation
36584.932379371268	2750	n/a	1054	89	2750	476.067620629	stim	stop-signal	20	104987	0.0-7.6-1.6	beast_fmri_test	337	102558,/,103237,/,103918,/,104597,/,105277,/	t,t,t,t,t	<img class = center src='/static/experiments/beast_fmri_test/images/T.png'></img>	89,71	2750.0	test	<img class = center src='/static/experiments/beast_fmri_test/images/redT.png'></img>	go	2300.0	2.0	6.0	go	non-target	T	89,Middle Finger	71,Index Finger	450.0	450.0	2250.0	2300.0	0.0	n/a	450.0	0.0	go_stim
39334.932379371268	476.06762062873673	n/a	1054	89	2750	476.067620629	stim	stop-signal	20	104987	0.0-7.6-1.6	beast_fmri_test	337	102558,/,103237,/,103918,/,104597,/,105277,/	t,t,t,t,t	<img class = center src='/static/experiments/beast_fmri_test/images/T.png'></img>	89,71	2750.0	test	<img class = center src='/static/experiments/beast_fmri_test/images/redT.png'></img>	go	2300.0	2.0	6.0	go	non-target	T	89,Middle Finger	71,Index Finger	450.0	450.0	2250.0	2300.0	0.0	n/a	450.0	0.0	ITI
40795	500	n/a	-1	-1	500	0.0	fixation	poldrack-single-stim	21	105971	0.0-7.7-0.7	beast_fmri_test	337	105957,/	t	<div class = centerbox2><div class = fixation>+</div></div>	none	500.0	test	n/a	n/a	n/a	n/a	n/a	n/a	n/a	n/a	n/a	n/a	n/a	n/a	n/a	n/a	n/a	n/a	n/a	n/a	fixation
37811.439300113343	2750	n/a	1153	71	2750	2986.56069989	stim	stop-signal	22	108724	0.0-7.7-1.7	beast_fmri_test	337	106637,/,107316,/,107996,/,108675,/,109355,/,110035,/,110714,/,111394,/	t,t,t,t,t,t,t,t	<img class = center src='/static/experiments/beast_fmri_test/images/P.png'></img>	89,71	2750.0	test	<img class = center src='/static/experiments/beast_fmri_test/images/redP.png'></img>	go	2300.0	2.0	7.0	go	non-target	P	89,Middle Finger	71,Index Finger	450.0	450.0	2250.0	2300.0	1.0	n/a	450.0	1.0	go_stim
40561.439300113343	2986.5606998866606	n/a	1153	71	2750	2986.56069989	stim	stop-signal	22	108724	0.0-7.7-1.7	beast_fmri_test	337	106637,/,107316,/,107996,/,108675,/,109355,/,110035,/,110714,/,111394,/	t,t,t,t,t,t,t,t	<img class = center src='/static/experiments/beast_fmri_test/images/P.png'></img>	89,71	2750.0	test	<img class = center src='/static/experiments/beast_fmri_test/images/redP.png'></img>	go	2300.0	2.0	7.0	go	non-target	P	89,Middle Finger	71,Index Finger	450.0	450.0	2250.0	2300.0	1.0	n/a	450.0	1.0	ITI
47040	500	n/a	-1	-1	500	0.0	fixation	poldrack-single-stim	23	112216	0.0-7.8-0.8	beast_fmri_test	337	112074,/	t	<div class = centerbox2><div class = fixation>+</div></div>	none	500.0	test	n/a	n/a	n/a	n/a	n/a	n/a	n/a	n/a	n/a	n/a	n/a	n/a	n/a	n/a	n/a	n/a	n/a	n/a	fixation
46656.589359801568	450.0	n/a	-1	-1	2750	385.410640198	stim	stop-signal	24	114968	0.0-7.8-1.8	beast_fmri_test	337	112753,/,113432,/,114112,/,114791,/	t,t,t,t	<img class = center src='/static/experiments/beast_fmri_test/images/T.png'></img>	89,71	2750.0	test	<img class = center src='/static/experiments/beast_fmri_test/images/redT.png'></img>	stop	2300.0	2.0	8.0	stop	target	T	89,Middle Finger	71,Index Finger	450.0	450.0	2300.0	2300.0	0.0	1.0	450.0	n/a	go_stim
48956.589359801568	2300.0	n/a	-1	-1	2750	385.410640198	stim	stop-signal	24	114968	0.0-7.8-1.8	beast_fmri_test	337	112753,/,113432,/,114112,/,114791,/	t,t,t,t	<img class = center src='/static/experiments/beast_fmri_test/images/T.png'></img>	89,71	2750.0	test	<img class = center src='/static/experiments/beast_fmri_test/images/redT.png'></img>	stop	2300.0	2.0	8.0	stop	target	T	89,Middle Finger	71,Index Finger	450.0	450.0	2300.0	2300.0	0.0	1.0	450.0	n/a	stop_stim
49406.589359801568	385.41064019843901	n/a	-1	-1	2750	385.410640198	stim	stop-signal	24	114968	0.0-7.8-1.8	beast_fmri_test	337	112753,/,113432,/,114112,/,114791,/	t,t,t,t	<img class = center src='/static/experiments/beast_fmri_test/images/T.png'></img>	89,71	2750.0	test	<img class = center src='/static/experiments/beast_fmri_test/images/redT.png'></img>	stop	2300.0	2.0	8.0	stop	target	T	89,Middle Finger	71,Index Finger	450.0	450.0	2300.0	2300.0	0.0	1.0	450.0	n/a	ITI
50684	500	n/a	-1	-1	500	0.0	fixation	poldrack-single-stim	25	115860	0.0-7.9-0.9	beast_fmri_test	337	115472,/	t	<div class = centerbox2><div class = fixation>+</div></div>	none	500.0	test	n/a	n/a	n/a	n/a	n/a	n/a	n/a	n/a	n/a	n/a	n/a	n/a	n/a	n/a	n/a	n/a	n/a	n/a	fixation
49507.657810807621	2750	n/a	1597	89	2750	1177.34218919	stim	stop-signal	26	118611	0.0-7.9-1.9	beast_fmri_test	337	116152,/,116832,/,117511,/,118190,/,118869,/,119549,/	t,t,t,t,t,t	<img class = center src='/static/experiments/beast_fmri_test/images/P.png'></img>	89,71	2750.0	test	<img class = center src='/static/experiments/beast_fmri_test/images/redP.png'></img>	go	2250.0	2.0	9.0	go	target	P	89,Middle Finger	71,Index Finger	500.0	450.0	2250.0	2300.0	1.0	n/a	500.0	1.0	go_stim
52257.657810807621	1177.3421891923738	n/a	1597	89	2750	1177.34218919	stim	stop-signal	26	118611	0.0-7.9-1.9	beast_fmri_test	337	116152,/,116832,/,117511,/,118190,/,118869,/,119549,/	t,t,t,t,t,t	<img class = center src='/static/experiments/beast_fmri_test/images/P.png'></img>	89,71	2750.0	test	<img class = center src='/static/experiments/beast_fmri_test/images/redP.png'></img>	go	2250.0	2.0	9.0	go	target	P	89,Middle Finger	71,Index Finger	500.0	450.0	2250.0	2300.0	1.0	n/a	500.0	1.0	ITI
55120	500	n/a	-1	-1	500	0.0	fixation	poldrack-single-stim	27	120296	0.0-7.10-0.10	beast_fmri_test	337	120230,/	t	<div class = centerbox2><div class = fixation>+</div></div>	none	500.0	test	n/a	n/a	n/a	n/a	n/a	n/a	n/a	n/a	n/a	n/a	n/a	n/a	n/a	n/a	n/a	n/a	n/a	n/a	fixation
52197.126828857261	2750	n/a	2156	71	2750	2925.87317114	stim	stop-signal	28	123049	0.0-7.10-1.10	beast_fmri_test	337	120909,/,121589,/,122268,/,122948,/,123629,/,124308,/,124989,/,125667,/	t,t,t,t,t,t,t,t	<img class = center src='/static/experiments/beast_fmri_test/images/T.png'></img>	89,71	2750.0	test	<img class = center src='/static/experiments/beast_fmri_test/images/redT.png'></img>	go	2250.0	2.0	10.0	go	target	T	89,Middle Finger	71,Index Finger	500.0	450.0	2250.0	2300.0	0.0	n/a	500.0	0.0	go_stim
54947.126828857261	2925.8731711427317	n/a	2156	71	2750	2925.87317114	stim	stop-signal	28	123049	0.0-7.10-1.10	beast_fmri_test	337	120909,/,121589,/,122268,/,122948,/,123629,/,124308,/,124989,/,125667,/	t,t,t,t,t,t,t,t	<img class = center src='/static/experiments/beast_fmri_test/images/T.png'></img>	89,71	2750.0	test	<img class = center src='/static/experiments/beast_fmri_test/images/redT.png'></img>	go	2250.0	2.0	10.0	go	target	T	89,Middle Finger	71,Index Finger	500.0	450.0	2250.0	2300.0	0.0	n/a	500.0	0.0	ITI
61303	500	n/a	-1	-1	500	0.0	fixation	poldrack-single-stim	29	126479	0.0-7.11-0.11	beast_fmri_test	337	126348,/	t	<div class = centerbox2><div class = fixation>+</div></div>	none	500.0	test	n/a	n/a	n/a	n/a	n/a	n/a	n/a	n/a	n/a	n/a	n/a	n/a	n/a	n/a	n/a	n/a	n/a	n/a	fixation
61082.003319169555	2750	n/a	812	71	2750	222.99668083	stim	stop-signal	30	129231	0.0-7.11-1.11	beast_fmri_test	337	127027,/,127706,/,128385,/,129066,/	t,t,t,t	<img class = center src='/static/experiments/beast_fmri_test/images/B.png'></img>	89,71	2750.0	test	<img class = center src='/static/experiments/beast_fmri_test/images/redB.png'></img>	go	2300.0	2.0	11.0	go	non-target	B	89,Middle Finger	71,Index Finger	500.0	450.0	2250.0	2300.0	1.0	n/a	450.0	1.0	go_stim
63832.003319169555	222.9966808304506	n/a	812	71	2750	222.99668083	stim	stop-signal	30	129231	0.0-7.11-1.11	beast_fmri_test	337	127027,/,127706,/,128385,/,129066,/	t,t,t,t	<img class = center src='/static/experiments/beast_fmri_test/images/B.png'></img>	89,71	2750.0	test	<img class = center src='/static/experiments/beast_fmri_test/images/redB.png'></img>	go	2300.0	2.0	11.0	go	non-target	B	89,Middle Finger	71,Index Finger	500.0	450.0	2250.0	2300.0	1.0	n/a	450.0	1.0	ITI
64788	500	n/a	-1	-1	500	0.0	fixation	poldrack-single-stim	31	129964	0.0-7.12-0.12	beast_fmri_test	337	129747,/	t	<div class = centerbox2><div class = fixation>+</div></div>	none	500.0	test	n/a	n/a	n/a	n/a	n/a	n/a	n/a	n/a	n/a	n/a	n/a	n/a	n/a	n/a	n/a	n/a	n/a	n/a	fixation
64482.43617167612	450.0	n/a	-1	-1	2750	307.563828324	stim	stop-signal	32	132716	0.0-7.12-1.12	beast_fmri_test	337	130426,/,131104,/,131785,/,132465,/	t,t,t,t	<img class = center src='/static/experiments/beast_fmri_test/images/D.png'></img>	89,71	2750.0	test	<img class = center src='/static/experiments/beast_fmri_test/images/redD.png'></img>	stop	2300.0	2.0	12.0	stop	non-target	D	89,Middle Finger	71,Index Finger	500.0	450.0	2250.0	2300.0	0.0	1.0	450.0	n/a	go_stim
66782.43617167612	2300.0	n/a	-1	-1	2750	307.563828324	stim	stop-signal	32	132716	0.0-7.12-1.12	beast_fmri_test	337	130426,/,131104,/,131785,/,132465,/	t,t,t,t	<img class = center src='/static/experiments/beast_fmri_test/images/D.png'></img>	89,71	2750.0	test	<img class = center src='/static/experiments/beast_fmri_test/images/redD.png'></img>	stop	2300.0	2.0	12.0	stop	non-target	D	89,Middle Finger	71,Index Finger	500.0	450.0	2250.0	2300.0	0.0	1.0	450.0	n/a	stop_stim
67232.43617167612	307.56382832387993	n/a	-1	-1	2750	307.563828324	stim	stop-signal	32	132716	0.0-7.12-1.12	beast_fmri_test	337	130426,/,131104,/,131785,/,132465,/	t,t,t,t	<img class = center src='/static/experiments/beast_fmri_test/images/D.png'></img>	89,71	2750.0	test	<img class = center src='/static/experiments/beast_fmri_test/images/redD.png'></img>	stop	2300.0	2.0	12.0	stop	non-target	D	89,Middle Finger	71,Index Finger	500.0	450.0	2250.0	2300.0	0.0	1.0	450.0	n/a	ITI
68355	500	n/a	-1	-1	500	0.0	fixation	poldrack-single-stim	33	133531	0.0-7.13-0.13	beast_fmri_test	337	133145,/	t	<div class = centerbox2><div class = fixation>+</div></div>	none	500.0	test	n/a	n/a	n/a	n/a	n/a	n/a	n/a	n/a	n/a	n/a	n/a	n/a	n/a	n/a	n/a	n/a	n/a	n/a	fixation
66867.081053145113	2750	n/a	894	71	2750	1489.91894685	stim	stop-signal	34	136283	0.0-7.13-1.13	beast_fmri_test	337	133824,/,134504,/,135182,/,135862,/,136541,/,137222,/	t,t,t,t,t,t	<img class = center src='/static/experiments/beast_fmri_test/images/B.png'></img>	89,71	2750.0	test	<img class = center src='/static/experiments/beast_fmri_test/images/redB.png'></img>	go	2250.0	2.0	13.0	go	target	B	89,Middle Finger	71,Index Finger	500.0	500.0	2250.0	2300.0	0.0	n/a	500.0	0.0	go_stim
69617.081053145113	1489.9189468548832	n/a	894	71	2750	1489.91894685	stim	stop-signal	34	136283	0.0-7.13-1.13	beast_fmri_test	337	133824,/,134504,/,135182,/,135862,/,136541,/,137222,/	t,t,t,t,t,t	<img class = center src='/static/experiments/beast_fmri_test/images/B.png'></img>	89,71	2750.0	test	<img class = center src='/static/experiments/beast_fmri_test/images/redB.png'></img>	go	2250.0	2.0	13.0	go	target	B	89,Middle Finger	71,Index Finger	500.0	500.0	2250.0	2300.0	0.0	n/a	500.0	0.0	ITI
73108	500	n/a	-1	-1	500	0.0	fixation	poldrack-single-stim	35	138284	0.0-7.14-0.14	beast_fmri_test	337	137902,/	t	<div class = centerbox2><div class = fixation>+</div></div>	none	500.0	test	n/a	n/a	n/a	n/a	n/a	n/a	n/a	n/a	n/a	n/a	n/a	n/a	n/a	n/a	n/a	n/a	n/a	n/a	fixation
71263.630694731488	2750	n/a	1996	71	2750	1847.36930527	stim	stop-signal	36	141037	0.0-7.14-1.14	beast_fmri_test	337	138581,/,139261,/,139940,/,140621,/,141300,/,141981,/,142660,/	t,t,t,t,t,t,t	<img class = center src='/static/experiments/beast_fmri_test/images/V.png'></img>	89,71	2750.0	test	<img class = center src='/static/experiments/beast_fmri_test/images/redV.png'></img>	go	2250.0	2.0	14.0	go	non-target	V	89,Middle Finger	71,Index Finger	500.0	500.0	2250.0	2250.0	1.0	n/a	500.0	1.0	go_stim
74013.630694731488	1847.3693052685128	n/a	1996	71	2750	1847.36930527	stim	stop-signal	36	141037	0.0-7.14-1.14	beast_fmri_test	337	138581,/,139261,/,139940,/,140621,/,141300,/,141981,/,142660,/	t,t,t,t,t,t,t	<img class = center src='/static/experiments/beast_fmri_test/images/V.png'></img>	89,71	2750.0	test	<img class = center src='/static/experiments/beast_fmri_test/images/redV.png'></img>	go	2250.0	2.0	14.0	go	non-target	V	89,Middle Finger	71,Index Finger	500.0	500.0	2250.0	2250.0	1.0	n/a	500.0	1.0	ITI
78218	500	n/a	-1	-1	500	0.0	fixation	poldrack-single-stim	37	143394	0.0-7.15-0.15	beast_fmri_test	337	143340,/	t	<div class = centerbox2><div class = fixation>+</div></div>	none	500.0	test	n/a	n/a	n/a	n/a	n/a	n/a	n/a	n/a	n/a	n/a	n/a	n/a	n/a	n/a	n/a	n/a	n/a	n/a	fixation
77489.630805742083	2750	n/a	1857	71	2750	730.369194258	stim	stop-signal	38	146146	0.0-7.15-1.15	beast_fmri_test	337	144020,/,144699,/,145379,/,146057,/,146737,/	t,t,t,t,t	<img class = center src='/static/experiments/beast_fmri_test/images/B.png'></img>	89,71	2750.0	test	<img class = center src='/static/experiments/beast_fmri_test/images/redB.png'></img>	go	2250.0	2.0	15.0	go	target	B	89,Middle Finger	71,Index Finger	500.0	500.0	2250.0	2250.0	0.0	n/a	500.0	0.0	go_stim
80239.630805742083	730.36919425792485	n/a	1857	71	2750	730.369194258	stim	stop-signal	38	146146	0.0-7.15-1.15	beast_fmri_test	337	144020,/,144699,/,145379,/,146057,/,146737,/	t,t,t,t,t	<img class = center src='/static/experiments/beast_fmri_test/images/B.png'></img>	89,71	2750.0	test	<img class = center src='/static/experiments/beast_fmri_test/images/redB.png'></img>	go	2250.0	2.0	15.0	go	target	B	89,Middle Finger	71,Index Finger	500.0	500.0	2250.0	2250.0	0.0	n/a	500.0	0.0	ITI
82210	500	n/a	-1	-1	500	0.0	fixation	poldrack-single-stim	39	147386	0.0-7.16-0.16	beast_fmri_test	337	n/a	n/a	<div class = centerbox2><div class = fixation>+</div></div>	none	500.0	test	n/a	n/a	n/a	n/a	n/a	n/a	n/a	n/a	n/a	n/a	n/a	n/a	n/a	n/a	n/a	n/a	n/a	n/a	fixation
81422.318117542658	500.0	n/a	856	89	2750	788.681882457	stim	stop-signal	40	150137	0.0-7.16-1.16	beast_fmri_test	337	147416,/,148098,/,148777,/,149456,/,150136,/,150817,/	t,t,t,t,t,t	<img class = center src='/static/experiments/beast_fmri_test/images/V.png'></img>	89,71	2750.0	test	<img class = center src='/static/experiments/beast_fmri_test/images/redV.png'></img>	stop	2250.0	2.0	16.0	stop	target	V	89,Middle Finger	71,Index Finger	500.0	500.0	2250.0	2250.0	0.0	0.0	500.0	n/a	go_stim
83672.318117542658	2250.0	n/a	856	89	2750	788.681882457	stim	stop-signal	40	150137	0.0-7.16-1.16	beast_fmri_test	337	147416,/,148098,/,148777,/,149456,/,150136,/,150817,/	t,t,t,t,t,t	<img class = center src='/static/experiments/beast_fmri_test/images/V.png'></img>	89,71	2750.0	test	<img class = center src='/static/experiments/beast_fmri_test/images/redV.png'></img>	stop	2250.0	2.0	16.0	stop	target	V	89,Middle Finger	71,Index Finger	500.0	500.0	2250.0	2250.0	0.0	0.0	500.0	n/a	stop_stim
84172.318117542658	788.68188245732847	n/a	856	89	2750	788.681882457	stim	stop-signal	40	150137	0.0-7.16-1.16	beast_fmri_test	337	147416,/,148098,/,148777,/,149456,/,150136,/,150817,/	t,t,t,t,t,t	<img class = center src='/static/experiments/beast_fmri_test/images/V.png'></img>	89,71	2750.0	test	<img class = center src='/static/experiments/beast_fmri_test/images/redV.png'></img>	stop	2250.0	2.0	16.0	stop	target	V	89,Middle Finger	71,Index Finger	500.0	500.0	2250.0	2250.0	0.0	0.0	500.0	n/a	ITI
86261	500	n/a	-1	-1	500	0.0	fixation	poldrack-single-stim	41	151437	0.0-7.17-0.17	beast_fmri_test	337	n/a	n/a	<div class = centerbox2><div class = fixation>+</div></div>	none	500.0	test	n/a	n/a	n/a	n/a	n/a	n/a	n/a	n/a	n/a	n/a	n/a	n/a	n/a	n/a	n/a	n/a	n/a	n/a	fixation
85810.850881052931	2750	n/a	952	71	2750	452.149118947	stim	stop-signal	42	154189	0.0-7.17-1.17	beast_fmri_test	337	151497,/,152176,/,152855,/,153535,/,154215,/	t,t,t,t,t	<img class = center src='/static/experiments/beast_fmri_test/images/B.png'></img>	89,71	2750.0	test	<img class = center src='/static/experiments/beast_fmri_test/images/redB.png'></img>	go	2300.0	2.0	17.0	go	target	B	89,Middle Finger	71,Index Finger	450.0	500.0	2300.0	2250.0	0.0	n/a	450.0	0.0	go_stim
88560.850881052931	452.1491189470616	n/a	952	71	2750	452.149118947	stim	stop-signal	42	154189	0.0-7.17-1.17	beast_fmri_test	337	151497,/,152176,/,152855,/,153535,/,154215,/	t,t,t,t,t	<img class = center src='/static/experiments/beast_fmri_test/images/B.png'></img>	89,71	2750.0	test	<img class = center src='/static/experiments/beast_fmri_test/images/redB.png'></img>	go	2300.0	2.0	17.0	go	target	B	89,Middle Finger	71,Index Finger	450.0	500.0	2300.0	2250.0	0.0	n/a	450.0	0.0	ITI
89974	500	n/a	-1	-1	500	0.0	fixation	poldrack-single-stim	43	155150	0.0-7.18-0.18	beast_fmri_test	337	154895,/	t	<div class = centerbox2><div class = fixation>+</div></div>	none	500.0	test	n/a	n/a	n/a	n/a	n/a	n/a	n/a	n/a	n/a	n/a	n/a	n/a	n/a	n/a	n/a	n/a	n/a	n/a	fixation
89523.645109738631	2750	n/a	1338	89	2750	453.354890261	stim	stop-signal	44	157903	0.0-7.18-1.18	beast_fmri_test	337	155574,/,156254,/,156935,/,157612,/,158293,/	t,t,t,t,t	<img class = center src='/static/experiments/beast_fmri_test/images/V.png'></img>	89,71	2750.0	test	<img class = center src='/static/experiments/beast_fmri_test/images/redV.png'></img>	go	2300.0	2.0	18.0	go	target	V	89,Middle Finger	71,Index Finger	450.0	500.0	2300.0	2250.0	1.0	n/a	450.0	1.0	go_stim
92273.645109738631	453.35489026136077	n/a	1338	89	2750	453.354890261	stim	stop-signal	44	157903	0.0-7.18-1.18	beast_fmri_test	337	155574,/,156254,/,156935,/,157612,/,158293,/	t,t,t,t,t	<img class = center src='/static/experiments/beast_fmri_test/images/V.png'></img>	89,71	2750.0	test	<img class = center src='/static/experiments/beast_fmri_test/images/redV.png'></img>	go	2300.0	2.0	18.0	go	target	V	89,Middle Finger	71,Index Finger	450.0	500.0	2300.0	2250.0	1.0	n/a	450.0	1.0	ITI
93690	500	n/a	-1	-1	500	0.0	fixation	poldrack-single-stim	45	158866	0.0-7.19-0.19	beast_fmri_test	337	n/a	n/a	<div class = centerbox2><div class = fixation>+</div></div>	none	500.0	test	n/a	n/a	n/a	n/a	n/a	n/a	n/a	n/a	n/a	n/a	n/a	n/a	n/a	n/a	n/a	n/a	n/a	n/a	fixation
93358.321709225856	500.0	n/a	-1	-1	2750	334.678290774	stim	stop-signal	46	161619	0.0-7.19-1.19	beast_fmri_test	337	158972,/,159653,/,160331,/,161011,/,161692,/	t,t,t,t,t	<img class = center src='/static/experiments/beast_fmri_test/images/V.png'></img>	89,71	2750.0	test	<img class = center src='/static/experiments/beast_fmri_test/images/redV.png'></img>	stop	2250.0	2.0	19.0	stop	non-target	V	89,Middle Finger	71,Index Finger	450.0	500.0	2300.0	2250.0	0.0	1.0	500.0	n/a	go_stim
95608.321709225856	2250.0	n/a	-1	-1	2750	334.678290774	stim	stop-signal	46	161619	0.0-7.19-1.19	beast_fmri_test	337	158972,/,159653,/,160331,/,161011,/,161692,/	t,t,t,t,t	<img class = center src='/static/experiments/beast_fmri_test/images/V.png'></img>	89,71	2750.0	test	<img class = center src='/static/experiments/beast_fmri_test/images/redV.png'></img>	stop	2250.0	2.0	19.0	stop	non-target	V	89,Middle Finger	71,Index Finger	450.0	500.0	2300.0	2250.0	0.0	1.0	500.0	n/a	stop_stim
96108.321709225856	334.67829077413631	n/a	-1	-1	2750	334.678290774	stim	stop-signal	46	161619	0.0-7.19-1.19	beast_fmri_test	337	158972,/,159653,/,160331,/,161011,/,161692,/	t,t,t,t,t	<img class = center src='/static/experiments/beast_fmri_test/images/V.png'></img>	89,71	2750.0	test	<img class = center src='/static/experiments/beast_fmri_test/images/redV.png'></img>	stop	2250.0	2.0	19.0	stop	non-target	V	89,Middle Finger	71,Index Finger	450.0	500.0	2300.0	2250.0	0.0	1.0	500.0	n/a	ITI
97288	500	n/a	-1	-1	500	0.0	fixation	poldrack-single-stim	47	162464	0.0-7.20-0.20	beast_fmri_test	337	162371,/	t	<div class = centerbox2><div class = fixation>+</div></div>	none	500.0	test	n/a	n/a	n/a	n/a	n/a	n/a	n/a	n/a	n/a	n/a	n/a	n/a	n/a	n/a	n/a	n/a	n/a	n/a	fixation
97090.372478163161	450.0	n/a	1410	89	2750	199.627521837	stim	stop-signal	48	165216	0.0-7.20-1.20	beast_fmri_test	337	163051,/,163731,/,164410,/,165089,/	t,t,t,t	<img class = center src='/static/experiments/beast_fmri_test/images/V.png'></img>	89,71	2750.0	test	<img class = center src='/static/experiments/beast_fmri_test/images/redV.png'></img>	stop	2300.0	2.0	20.0	stop	target	V	89,Middle Finger	71,Index Finger	450.0	550.0	2300.0	2250.0	0.0	0.0	450.0	n/a	go_stim
99390.372478163161	2300.0	n/a	1410	89	2750	199.627521837	stim	stop-signal	48	165216	0.0-7.20-1.20	beast_fmri_test	337	163051,/,163731,/,164410,/,165089,/	t,t,t,t	<img class = center src='/static/experiments/beast_fmri_test/images/V.png'></img>	89,71	2750.0	test	<img class = center src='/static/experiments/beast_fmri_test/images/redV.png'></img>	stop	2300.0	2.0	20.0	stop	target	V	89,Middle Finger	71,Index Finger	450.0	550.0	2300.0	2250.0	0.0	0.0	450.0	n/a	stop_stim
99840.372478163161	199.6275218368464	n/a	1410	89	2750	199.627521837	stim	stop-signal	48	165216	0.0-7.20-1.20	beast_fmri_test	337	163051,/,163731,/,164410,/,165089,/	t,t,t,t	<img class = center src='/static/experiments/beast_fmri_test/images/V.png'></img>	89,71	2750.0	test	<img class = center src='/static/experiments/beast_fmri_test/images/redV.png'></img>	stop	2300.0	2.0	20.0	stop	target	V	89,Middle Finger	71,Index Finger	450.0	550.0	2300.0	2250.0	0.0	0.0	450.0	n/a	ITI
100751	500	n/a	-1	-1	500	0.0	fixation	poldrack-single-stim	49	165927	0.0-7.21-0.21	beast_fmri_test	337	165769,/	t	<div class = centerbox2><div class = fixation>+</div></div>	none	500.0	test	n/a	n/a	n/a	n/a	n/a	n/a	n/a	n/a	n/a	n/a	n/a	n/a	n/a	n/a	n/a	n/a	n/a	n/a	fixation
100311.38838912587	2750	n/a	937	71	2750	440.611610874	stim	stop-signal	50	168678	0.0-7.21-1.21	beast_fmri_test	337	166448,/,167129,/,167808,/,168488,/	t,t,t,t	<img class = center src='/static/experiments/beast_fmri_test/images/D.png'></img>	89,71	2750.0	test	<img class = center src='/static/experiments/beast_fmri_test/images/redD.png'></img>	go	2200.0	2.0	21.0	go	non-target	D	89,Middle Finger	71,Index Finger	400.0	550.0	2300.0	2200.0	1.0	n/a	550.0	1.0	go_stim
103061.38838912587	440.61161087413518	n/a	937	71	2750	440.611610874	stim	stop-signal	50	168678	0.0-7.21-1.21	beast_fmri_test	337	166448,/,167129,/,167808,/,168488,/	t,t,t,t	<img class = center src='/static/experiments/beast_fmri_test/images/D.png'></img>	89,71	2750.0	test	<img class = center src='/static/experiments/beast_fmri_test/images/redD.png'></img>	go	2200.0	2.0	21.0	go	non-target	D	89,Middle Finger	71,Index Finger	400.0	550.0	2300.0	2200.0	1.0	n/a	550.0	1.0	ITI
104454	500	n/a	-1	-1	500	0.0	fixation	poldrack-single-stim	51	169630	0.0-7.22-0.22	beast_fmri_test	337	169166,/	t	<div class = centerbox2><div class = fixation>+</div></div>	none	500.0	test	n/a	n/a	n/a	n/a	n/a	n/a	n/a	n/a	n/a	n/a	n/a	n/a	n/a	n/a	n/a	n/a	n/a	n/a	fixation
103689.02347510058	2750	n/a	1116	71	2750	764.976524899	stim	stop-signal	52	172380	0.0-7.22-1.22	beast_fmri_test	337	169846,/,170526,/,171207,/,171887,/,172565,/	t,t,t,t,t	<img class = center src='/static/experiments/beast_fmri_test/images/P.png'></img>	89,71	2750.0	test	<img class = center src='/static/experiments/beast_fmri_test/images/redP.png'></img>	go	2200.0	2.0	22.0	go	non-target	P	89,Middle Finger	71,Index Finger	400.0	550.0	2300.0	2200.0	1.0	n/a	550.0	1.0	go_stim
106439.02347510058	764.97652489943073	n/a	1116	71	2750	764.976524899	stim	stop-signal	52	172380	0.0-7.22-1.22	beast_fmri_test	337	169846,/,170526,/,171207,/,171887,/,172565,/	t,t,t,t,t	<img class = center src='/static/experiments/beast_fmri_test/images/P.png'></img>	89,71	2750.0	test	<img class = center src='/static/experiments/beast_fmri_test/images/redP.png'></img>	go	2200.0	2.0	22.0	go	non-target	P	89,Middle Finger	71,Index Finger	400.0	550.0	2300.0	2200.0	1.0	n/a	550.0	1.0	ITI
108480	500	n/a	-1	-1	500	0.0	fixation	poldrack-single-stim	53	173656	0.0-7.23-0.23	beast_fmri_test	337	173245,/	t	<div class = centerbox2><div class = fixation>+</div></div>	none	500.0	test	n/a	n/a	n/a	n/a	n/a	n/a	n/a	n/a	n/a	n/a	n/a	n/a	n/a	n/a	n/a	n/a	n/a	n/a	fixation
108257.94403295088	2750	n/a	799	71	2750	224.055967049	stim	stop-signal	54	176408	0.0-7.23-1.23	beast_fmri_test	337	173925,/,174604,/,175283,/,175965,/	t,t,t,t	<img class = center src='/static/experiments/beast_fmri_test/images/T.png'></img>	89,71	2750.0	test	<img class = center src='/static/experiments/beast_fmri_test/images/redT.png'></img>	go	2200.0	2.0	23.0	go	non-target	T	89,Middle Finger	71,Index Finger	400.0	550.0	2300.0	2200.0	1.0	n/a	550.0	1.0	go_stim
111007.94403295088	224.05596704912992	n/a	799	71	2750	224.055967049	stim	stop-signal	54	176408	0.0-7.23-1.23	beast_fmri_test	337	173925,/,174604,/,175283,/,175965,/	t,t,t,t	<img class = center src='/static/experiments/beast_fmri_test/images/T.png'></img>	89,71	2750.0	test	<img class = center src='/static/experiments/beast_fmri_test/images/redT.png'></img>	go	2200.0	2.0	23.0	go	non-target	T	89,Middle Finger	71,Index Finger	400.0	550.0	2300.0	2200.0	1.0	n/a	550.0	1.0	ITI
111967	500	n/a	-1	-1	500	0.0	fixation	poldrack-single-stim	55	177143	0.0-7.24-0.24	beast_fmri_test	337	176645,/	t	<div class = centerbox2><div class = fixation>+</div></div>	none	500.0	test	n/a	n/a	n/a	n/a	n/a	n/a	n/a	n/a	n/a	n/a	n/a	n/a	n/a	n/a	n/a	n/a	n/a	n/a	fixation
111847.40753059974	550.0	n/a	-1	-1	2750	120.5924694	stim	stop-signal	56	179894	0.0-7.24-1.24	beast_fmri_test	337	177324,/,178003,/,178683,/,179364,/	t,t,t,t	<img class = center src='/static/experiments/beast_fmri_test/images/B.png'></img>	89,71	2750.0	test	<img class = center src='/static/experiments/beast_fmri_test/images/redB.png'></img>	stop	2200.0	2.0	24.0	stop	non-target	B	89,Middle Finger	71,Index Finger	400.0	550.0	2300.0	2200.0	0.0	1.0	550.0	n/a	go_stim
114047.40753059974	2200.0	n/a	-1	-1	2750	120.5924694	stim	stop-signal	56	179894	0.0-7.24-1.24	beast_fmri_test	337	177324,/,178003,/,178683,/,179364,/	t,t,t,t	<img class = center src='/static/experiments/beast_fmri_test/images/B.png'></img>	89,71	2750.0	test	<img class = center src='/static/experiments/beast_fmri_test/images/redB.png'></img>	stop	2200.0	2.0	24.0	stop	non-target	B	89,Middle Finger	71,Index Finger	400.0	550.0	2300.0	2200.0	0.0	1.0	550.0	n/a	stop_stim
114597.40753059974	120.59246940024882	n/a	-1	-1	2750	120.5924694	stim	stop-signal	56	179894	0.0-7.24-1.24	beast_fmri_test	337	177324,/,178003,/,178683,/,179364,/	t,t,t,t	<img class = center src='/static/experiments/beast_fmri_test/images/B.png'></img>	89,71	2750.0	test	<img class = center src='/static/experiments/beast_fmri_test/images/redB.png'></img>	stop	2200.0	2.0	24.0	stop	non-target	B	89,Middle Finger	71,Index Finger	400.0	550.0	2300.0	2200.0	0.0	1.0	550.0	n/a	ITI
115350	500	n/a	-1	-1	500	0.0	fixation	poldrack-single-stim	57	180526	0.0-7.25-0.25	beast_fmri_test	337	180042,/	t	<div class = centerbox2><div class = fixation>+</div></div>	none	500.0	test	n/a	n/a	n/a	n/a	n/a	n/a	n/a	n/a	n/a	n/a	n/a	n/a	n/a	n/a	n/a	n/a	n/a	n/a	fixation
114798.78901563131	2750	n/a	920	89	2750	553.210984369	stim	stop-signal	58	183278	0.0-7.25-1.25	beast_fmri_test	337	180723,/,181403,/,182083,/,182761,/,183441,/	t,t,t,t,t	<img class = center src='/static/experiments/beast_fmri_test/images/P.png'></img>	89,71	2750.0	test	<img class = center src='/static/experiments/beast_fmri_test/images/redP.png'></img>	go	2150.0	2.0	25.0	go	non-target	P	89,Middle Finger	71,Index Finger	400.0	600.0	2300.0	2150.0	0.0	n/a	600.0	0.0	go_stim
117548.78901563131	553.21098436868726	n/a	920	89	2750	553.210984369	stim	stop-signal	58	183278	0.0-7.25-1.25	beast_fmri_test	337	180723,/,181403,/,182083,/,182761,/,183441,/	t,t,t,t,t	<img class = center src='/static/experiments/beast_fmri_test/images/P.png'></img>	89,71	2750.0	test	<img class = center src='/static/experiments/beast_fmri_test/images/redP.png'></img>	go	2150.0	2.0	25.0	go	non-target	P	89,Middle Finger	71,Index Finger	400.0	600.0	2300.0	2150.0	0.0	n/a	600.0	0.0	ITI
119165	500	n/a	-1	-1	500	0.0	fixation	poldrack-single-stim	59	184341	0.0-7.26-0.26	beast_fmri_test	337	184121,/	t	<div class = centerbox2><div class = fixation>+</div></div>	none	500.0	test	n/a	n/a	n/a	n/a	n/a	n/a	n/a	n/a	n/a	n/a	n/a	n/a	n/a	n/a	n/a	n/a	n/a	n/a	fixation
118783.39228190741	2750	n/a	1773	71	2750	384.607718093	stim	stop-signal	60	187094	0.0-7.26-1.26	beast_fmri_test	337	184800,/,185481,/,186160,/,186839,/	t,t,t,t	<img class = center src='/static/experiments/beast_fmri_test/images/T.png'></img>	89,71	2750.0	test	<img class = center src='/static/experiments/beast_fmri_test/images/redT.png'></img>	go	2150.0	2.0	26.0	go	non-target	T	89,Middle Finger	71,Index Finger	400.0	600.0	2300.0	2150.0	1.0	n/a	600.0	1.0	go_stim
121533.39228190741	384.60771809260228	n/a	1773	71	2750	384.607718093	stim	stop-signal	60	187094	0.0-7.26-1.26	beast_fmri_test	337	184800,/,185481,/,186160,/,186839,/	t,t,t,t	<img class = center src='/static/experiments/beast_fmri_test/images/T.png'></img>	89,71	2750.0	test	<img class = center src='/static/experiments/beast_fmri_test/images/redT.png'></img>	go	2150.0	2.0	26.0	go	non-target	T	89,Middle Finger	71,Index Finger	400.0	600.0	2300.0	2150.0	1.0	n/a	600.0	1.0	ITI
122818	500	n/a	-1	-1	500	0.0	fixation	poldrack-single-stim	61	187994	0.0-7.27-0.27	beast_fmri_test	337	187518,/	t	<div class = centerbox2><div class = fixation>+</div></div>	none	500.0	test	n/a	n/a	n/a	n/a	n/a	n/a	n/a	n/a	n/a	n/a	n/a	n/a	n/a	n/a	n/a	n/a	n/a	n/a	fixation
121236.90411572269	2750	n/a	930	89	2750	1582.09588428	stim	stop-signal	62	190745	0.0-7.27-1.27	beast_fmri_test	337	188199,/,188879,/,189557,/,190237,/,190918,/,191597,/,192277,/	t,t,t,t,t,t,t	<img class = center src='/static/experiments/beast_fmri_test/images/P.png'></img>	89,71	2750.0	test	<img class = center src='/static/experiments/beast_fmri_test/images/redP.png'></img>	go	2350.0	2.0	27.0	go	target	P	89,Middle Finger	71,Index Finger	400.0	600.0	2350.0	2150.0	1.0	n/a	400.0	1.0	go_stim
123986.90411572269	1582.0958842773193	n/a	930	89	2750	1582.09588428	stim	stop-signal	62	190745	0.0-7.27-1.27	beast_fmri_test	337	188199,/,188879,/,189557,/,190237,/,190918,/,191597,/,192277,/	t,t,t,t,t,t,t	<img class = center src='/static/experiments/beast_fmri_test/images/P.png'></img>	89,71	2750.0	test	<img class = center src='/static/experiments/beast_fmri_test/images/redP.png'></img>	go	2350.0	2.0	27.0	go	target	P	89,Middle Finger	71,Index Finger	400.0	600.0	2350.0	2150.0	1.0	n/a	400.0	1.0	ITI
127661	500	n/a	-1	-1	500	0.0	fixation	poldrack-single-stim	63	192837	0.0-7.28-0.28	beast_fmri_test	337	n/a	n/a	<div class = centerbox2><div class = fixation>+</div></div>	none	500.0	test	n/a	n/a	n/a	n/a	n/a	n/a	n/a	n/a	n/a	n/a	n/a	n/a	n/a	n/a	n/a	n/a	n/a	n/a	fixation
126177.24780886338	600.0	n/a	855	71	2750	1484.75219114	stim	stop-signal	64	195588	0.0-7.28-1.28	beast_fmri_test	337	192956,/,193637,/,194315,/,194996,/,195675,/,196355,/,197034,/	t,t,t,t,t,t,t	<img class = center src='/static/experiments/beast_fmri_test/images/V.png'></img>	89,71	2750.0	test	<img class = center src='/static/experiments/beast_fmri_test/images/redV.png'></img>	stop	2150.0	2.0	28.0	stop	non-target	V	89,Middle Finger	71,Index Finger	400.0	600.0	2350.0	2150.0	0.0	0.0	600.0	n/a	go_stim
128327.24780886338	2150.0	n/a	855	71	2750	1484.75219114	stim	stop-signal	64	195588	0.0-7.28-1.28	beast_fmri_test	337	192956,/,193637,/,194315,/,194996,/,195675,/,196355,/,197034,/	t,t,t,t,t,t,t	<img class = center src='/static/experiments/beast_fmri_test/images/V.png'></img>	89,71	2750.0	test	<img class = center src='/static/experiments/beast_fmri_test/images/redV.png'></img>	stop	2150.0	2.0	28.0	stop	non-target	V	89,Middle Finger	71,Index Finger	400.0	600.0	2350.0	2150.0	0.0	0.0	600.0	n/a	stop_stim
128927.24780886338	1484.752191136613	n/a	855	71	2750	1484.75219114	stim	stop-signal	64	195588	0.0-7.28-1.28	beast_fmri_test	337	192956,/,193637,/,194315,/,194996,/,195675,/,196355,/,197034,/	t,t,t,t,t,t,t	<img class = center src='/static/experiments/beast_fmri_test/images/V.png'></img>	89,71	2750.0	test	<img class = center src='/static/experiments/beast_fmri_test/images/redV.png'></img>	stop	2150.0	2.0	28.0	stop	non-target	V	89,Middle Finger	71,Index Finger	400.0	600.0	2350.0	2150.0	0.0	0.0	600.0	n/a	ITI
132408	500	n/a	-1	-1	500	0.0	fixation	poldrack-single-stim	65	197584	0.0-7.29-0.29	beast_fmri_test	337	n/a	n/a	<div class = centerbox2><div class = fixation>+</div></div>	none	500.0	test	n/a	n/a	n/a	n/a	n/a	n/a	n/a	n/a	n/a	n/a	n/a	n/a	n/a	n/a	n/a	n/a	n/a	n/a	fixation
130621.37397742938	2750	n/a	1052	89	2750	1788.62602257	stim	stop-signal	66	200336	0.0-7.29-1.29	beast_fmri_test	337	197715,/,198394,/,199073,/,199754,/,200433,/,201113,/,201793,/	t,t,t,t,t,t,t	<img class = center src='/static/experiments/beast_fmri_test/images/V.png'></img>	89,71	2750.0	test	<img class = center src='/static/experiments/beast_fmri_test/images/redV.png'></img>	go	2200.0	2.0	29.0	go	non-target	V	89,Middle Finger	71,Index Finger	400.0	550.0	2350.0	2200.0	0.0	n/a	550.0	0.0	go_stim
133371.37397742938	1788.6260225706174	n/a	1052	89	2750	1788.62602257	stim	stop-signal	66	200336	0.0-7.29-1.29	beast_fmri_test	337	197715,/,198394,/,199073,/,199754,/,200433,/,201113,/,201793,/	t,t,t,t,t,t,t	<img class = center src='/static/experiments/beast_fmri_test/images/V.png'></img>	89,71	2750.0	test	<img class = center src='/static/experiments/beast_fmri_test/images/redV.png'></img>	go	2200.0	2.0	29.0	go	non-target	V	89,Middle Finger	71,Index Finger	400.0	550.0	2350.0	2200.0	0.0	n/a	550.0	0.0	ITI
137461	500	n/a	-1	-1	500	0.0	fixation	poldrack-single-stim	67	202637	0.0-7.30-0.30	beast_fmri_test	337	202473,/	t	<div class = centerbox2><div class = fixation>+</div></div>	none	500.0	test	n/a	n/a	n/a	n/a	n/a	n/a	n/a	n/a	n/a	n/a	n/a	n/a	n/a	n/a	n/a	n/a	n/a	n/a	fixation
136983.62786001104	550.0	n/a	692	71	2750	479.372139989	stim	stop-signal	68	205389	0.0-7.30-1.30	beast_fmri_test	337	203151,/,203832,/,204511,/,205192,/,205871,/	t,t,t,t,t	<img class = center src='/static/experiments/beast_fmri_test/images/D.png'></img>	89,71	2750.0	test	<img class = center src='/static/experiments/beast_fmri_test/images/redD.png'></img>	stop	2200.0	2.0	30.0	stop	non-target	D	89,Middle Finger	71,Index Finger	400.0	550.0	2350.0	2200.0	0.0	0.0	550.0	n/a	go_stim
139183.62786001104	2200.0	n/a	692	71	2750	479.372139989	stim	stop-signal	68	205389	0.0-7.30-1.30	beast_fmri_test	337	203151,/,203832,/,204511,/,205192,/,205871,/	t,t,t,t,t	<img class = center src='/static/experiments/beast_fmri_test/images/D.png'></img>	89,71	2750.0	test	<img class = center src='/static/experiments/beast_fmri_test/images/redD.png'></img>	stop	2200.0	2.0	30.0	stop	non-target	D	89,Middle Finger	71,Index Finger	400.0	550.0	2350.0	2200.0	0.0	0.0	550.0	n/a	stop_stim
139733.62786001104	479.37213998896561	n/a	692	71	2750	479.372139989	stim	stop-signal	68	205389	0.0-7.30-1.30	beast_fmri_test	337	203151,/,203832,/,204511,/,205192,/,205871,/	t,t,t,t,t	<img class = center src='/static/experiments/beast_fmri_test/images/D.png'></img>	89,71	2750.0	test	<img class = center src='/static/experiments/beast_fmri_test/images/redD.png'></img>	stop	2200.0	2.0	30.0	stop	non-target	D	89,Middle Finger	71,Index Finger	400.0	550.0	2350.0	2200.0	0.0	0.0	550.0	n/a	ITI
141205	500	n/a	-1	-1	500	0.0	fixation	poldrack-single-stim	69	206381	0.0-7.31-0.31	beast_fmri_test	337	n/a	n/a	<div class = centerbox2><div class = fixation>+</div></div>	none	500.0	test	n/a	n/a	n/a	n/a	n/a	n/a	n/a	n/a	n/a	n/a	n/a	n/a	n/a	n/a	n/a	n/a	n/a	n/a	fixation
141197.3027390934	500.0	n/a	-1	-1	2750	9.6972609066	stim	stop-signal	70	209133	0.0-7.31-1.31	beast_fmri_test	337	206551,/,207231,/,207909,/,208590,/	t,t,t,t	<img class = center src='/static/experiments/beast_fmri_test/images/P.png'></img>	89,71	2750.0	test	<img class = center src='/static/experiments/beast_fmri_test/images/redP.png'></img>	stop	2250.0	2.0	31.0	stop	non-target	P	89,Middle Finger	71,Index Finger	400.0	500.0	2350.0	2250.0	0.0	1.0	500.0	n/a	go_stim
143447.3027390934	2250.0	n/a	-1	-1	2750	9.6972609066	stim	stop-signal	70	209133	0.0-7.31-1.31	beast_fmri_test	337	206551,/,207231,/,207909,/,208590,/	t,t,t,t	<img class = center src='/static/experiments/beast_fmri_test/images/P.png'></img>	89,71	2750.0	test	<img class = center src='/static/experiments/beast_fmri_test/images/redP.png'></img>	stop	2250.0	2.0	31.0	stop	non-target	P	89,Middle Finger	71,Index Finger	400.0	500.0	2350.0	2250.0	0.0	1.0	500.0	n/a	stop_stim
143947.3027390934	9.6972609066023736	n/a	-1	-1	2750	9.6972609066	stim	stop-signal	70	209133	0.0-7.31-1.31	beast_fmri_test	337	206551,/,207231,/,207909,/,208590,/	t,t,t,t	<img class = center src='/static/experiments/beast_fmri_test/images/P.png'></img>	89,71	2750.0	test	<img class = center src='/static/experiments/beast_fmri_test/images/redP.png'></img>	stop	2250.0	2.0	31.0	stop	non-target	P	89,Middle Finger	71,Index Finger	400.0	500.0	2350.0	2250.0	0.0	1.0	500.0	n/a	ITI
144478	500	n/a	-1	-1	500	0.0	fixation	poldrack-single-stim	71	209654	0.0-7.32-0.32	beast_fmri_test	337	209270,/	t	<div class = centerbox2><div class = fixation>+</div></div>	none	500.0	test	n/a	n/a	n/a	n/a	n/a	n/a	n/a	n/a	n/a	n/a	n/a	n/a	n/a	n/a	n/a	n/a	n/a	n/a	fixation
141731.46630668262	400.0	n/a	-1	-1	2750	2747.53369332	stim	stop-signal	72	212405	0.0-7.32-1.32	beast_fmri_test	337	209950,/,210630,/,211309,/,211988,/,212669,/,213349,/,214027,/,214708,/	t,t,t,t,t,t,t,t	<img class = center src='/static/experiments/beast_fmri_test/images/D.png'></img>	89,71	2750.0	test	<img class = center src='/static/experiments/beast_fmri_test/images/redD.png'></img>	stop	2350.0	2.0	32.0	stop	target	D	89,Middle Finger	71,Index Finger	400.0	550.0	2350.0	2250.0	0.0	1.0	400.0	n/a	go_stim
144081.46630668262	2350.0	n/a	-1	-1	2750	2747.53369332	stim	stop-signal	72	212405	0.0-7.32-1.32	beast_fmri_test	337	209950,/,210630,/,211309,/,211988,/,212669,/,213349,/,214027,/,214708,/	t,t,t,t,t,t,t,t	<img class = center src='/static/experiments/beast_fmri_test/images/D.png'></img>	89,71	2750.0	test	<img class = center src='/static/experiments/beast_fmri_test/images/redD.png'></img>	stop	2350.0	2.0	32.0	stop	target	D	89,Middle Finger	71,Index Finger	400.0	550.0	2350.0	2250.0	0.0	1.0	400.0	n/a	stop_stim
144481.46630668262	2747.5336933173708	n/a	-1	-1	2750	2747.53369332	stim	stop-signal	72	212405	0.0-7.32-1.32	beast_fmri_test	337	209950,/,210630,/,211309,/,211988,/,212669,/,213349,/,214027,/,214708,/	t,t,t,t,t,t,t,t	<img class = center src='/static/experiments/beast_fmri_test/images/D.png'></img>	89,71	2750.0	test	<img class = center src='/static/experiments/beast_fmri_test/images/redD.png'></img>	stop	2350.0	2.0	32.0	stop	target	D	89,Middle Finger	71,Index Finger	400.0	550.0	2350.0	2250.0	0.0	1.0	400.0	n/a	ITI
150488	500	n/a	-1	-1	500	0.0	fixation	poldrack-single-stim	73	215664	0.0-7.33-0.33	beast_fmri_test	337	215386,/	t	<div class = centerbox2><div class = fixation>+</div></div>	none	500.0	test	n/a	n/a	n/a	n/a	n/a	n/a	n/a	n/a	n/a	n/a	n/a	n/a	n/a	n/a	n/a	n/a	n/a	n/a	fixation
150326.43146095946	2750	n/a	1462	71	2750	163.568539041	stim	stop-signal	74	218416	0.0-7.33-1.33	beast_fmri_test	337	216067,/,216746,/,217426,/,218105,/	t,t,t,t	<img class = center src='/static/experiments/beast_fmri_test/images/D.png'></img>	89,71	2750.0	test	<img class = center src='/static/experiments/beast_fmri_test/images/redD.png'></img>	go	2200.0	2.0	33.0	go	non-target	D	89,Middle Finger	71,Index Finger	450.0	550.0	2350.0	2200.0	1.0	n/a	550.0	1.0	go_stim
153076.43146095946	163.56853904053824	n/a	1462	71	2750	163.568539041	stim	stop-signal	74	218416	0.0-7.33-1.33	beast_fmri_test	337	216067,/,216746,/,217426,/,218105,/	t,t,t,t	<img class = center src='/static/experiments/beast_fmri_test/images/D.png'></img>	89,71	2750.0	test	<img class = center src='/static/experiments/beast_fmri_test/images/redD.png'></img>	go	2200.0	2.0	33.0	go	non-target	D	89,Middle Finger	71,Index Finger	450.0	550.0	2350.0	2200.0	1.0	n/a	550.0	1.0	ITI
153916	500	n/a	-1	-1	500	0.0	fixation	poldrack-single-stim	75	219092	0.0-7.34-0.34	beast_fmri_test	337	218786,/	t	<div class = centerbox2><div class = fixation>+</div></div>	none	500.0	test	n/a	n/a	n/a	n/a	n/a	n/a	n/a	n/a	n/a	n/a	n/a	n/a	n/a	n/a	n/a	n/a	n/a	n/a	fixation
153750.39915510351	2750	n/a	684	89	2750	167.600844896	stim	stop-signal	76	221844	0.0-7.34-1.34	beast_fmri_test	337	219464,/,220145,/,220824,/,221504,/	t,t,t,t	<img class = center src='/static/experiments/beast_fmri_test/images/P.png'></img>	89,71	2750.0	test	<img class = center src='/static/experiments/beast_fmri_test/images/redP.png'></img>	go	2200.0	2.0	34.0	go	non-target	P	89,Middle Finger	71,Index Finger	450.0	550.0	2350.0	2200.0	0.0	n/a	550.0	0.0	go_stim
156500.39915510351	167.60084489647645	n/a	684	89	2750	167.600844896	stim	stop-signal	76	221844	0.0-7.34-1.34	beast_fmri_test	337	219464,/,220145,/,220824,/,221504,/	t,t,t,t	<img class = center src='/static/experiments/beast_fmri_test/images/P.png'></img>	89,71	2750.0	test	<img class = center src='/static/experiments/beast_fmri_test/images/redP.png'></img>	go	2200.0	2.0	34.0	go	non-target	P	89,Middle Finger	71,Index Finger	450.0	550.0	2350.0	2200.0	0.0	n/a	550.0	0.0	ITI
157349	500	n/a	-1	-1	500	0.0	fixation	poldrack-single-stim	77	222525	0.0-7.35-0.35	beast_fmri_test	337	222183,/	t	<div class = centerbox2><div class = fixation>+</div></div>	none	500.0	test	n/a	n/a	n/a	n/a	n/a	n/a	n/a	n/a	n/a	n/a	n/a	n/a	n/a	n/a	n/a	n/a	n/a	n/a	fixation
157055.17403526951	2750	n/a	976	71	2750	295.825964731	stim	stop-signal	78	225277	0.0-7.35-1.35	beast_fmri_test	337	222864,/,223543,/,224223,/,224902,/	t,t,t,t	<img class = center src='/static/experiments/beast_fmri_test/images/V.png'></img>	89,71	2750.0	test	<img class = center src='/static/experiments/beast_fmri_test/images/redV.png'></img>	go	2200.0	2.0	35.0	go	non-target	V	89,Middle Finger	71,Index Finger	450.0	550.0	2350.0	2200.0	1.0	n/a	550.0	1.0	go_stim
159805.17403526951	295.82596473050364	n/a	976	71	2750	295.825964731	stim	stop-signal	78	225277	0.0-7.35-1.35	beast_fmri_test	337	222864,/,223543,/,224223,/,224902,/	t,t,t,t	<img class = center src='/static/experiments/beast_fmri_test/images/V.png'></img>	89,71	2750.0	test	<img class = center src='/static/experiments/beast_fmri_test/images/redV.png'></img>	go	2200.0	2.0	35.0	go	non-target	V	89,Middle Finger	71,Index Finger	450.0	550.0	2350.0	2200.0	1.0	n/a	550.0	1.0	ITI
160909	500	n/a	-1	-1	500	0.0	fixation	poldrack-single-stim	79	226085	0.0-7.36-0.36	beast_fmri_test	337	225584,/	t	<div class = centerbox2><div class = fixation>+</div></div>	none	500.0	test	n/a	n/a	n/a	n/a	n/a	n/a	n/a	n/a	n/a	n/a	n/a	n/a	n/a	n/a	n/a	n/a	n/a	n/a	fixation
159654.57435107403	2750	n/a	953	89	2750	1255.42564893	stim	stop-signal	80	228836	0.0-7.36-1.36	beast_fmri_test	337	226262,/,226942,/,227621,/,228300,/,228987,/,229660,/	t,t,t,t,t,t	<img class = center src='/static/experiments/beast_fmri_test/images/V.png'></img>	89,71	2750.0	test	<img class = center src='/static/experiments/beast_fmri_test/images/redV.png'></img>	go	2200.0	2.0	36.0	go	non-target	V	89,Middle Finger	71,Index Finger	450.0	550.0	2350.0	2200.0	0.0	n/a	550.0	0.0	go_stim
162404.57435107403	1255.4256489259774	n/a	953	89	2750	1255.42564893	stim	stop-signal	80	228836	0.0-7.36-1.36	beast_fmri_test	337	226262,/,226942,/,227621,/,228300,/,228987,/,229660,/	t,t,t,t,t,t	<img class = center src='/static/experiments/beast_fmri_test/images/V.png'></img>	89,71	2750.0	test	<img class = center src='/static/experiments/beast_fmri_test/images/redV.png'></img>	go	2200.0	2.0	36.0	go	non-target	V	89,Middle Finger	71,Index Finger	450.0	550.0	2350.0	2200.0	0.0	n/a	550.0	0.0	ITI
165429	500	n/a	-1	-1	500	0.0	fixation	poldrack-single-stim	81	230605	0.0-7.37-0.37	beast_fmri_test	337	230340,/	t	<div class = centerbox2><div class = fixation>+</div></div>	none	500.0	test	n/a	n/a	n/a	n/a	n/a	n/a	n/a	n/a	n/a	n/a	n/a	n/a	n/a	n/a	n/a	n/a	n/a	n/a	fixation
165362.69776959842	550.0	n/a	-1	-1	2750	68.3022304016	stim	stop-signal	82	233357	0.0-7.37-1.37	beast_fmri_test	337	231018,/,231700,/,232378,/,233058,/	t,t,t,t	<img class = center src='/static/experiments/beast_fmri_test/images/P.png'></img>	89,71	2750.0	test	<img class = center src='/static/experiments/beast_fmri_test/images/redP.png'></img>	stop	2200.0	2.0	37.0	stop	non-target	P	89,Middle Finger	71,Index Finger	450.0	550.0	2350.0	2200.0	0.0	1.0	550.0	n/a	go_stim
167562.69776959842	2200.0	n/a	-1	-1	2750	68.3022304016	stim	stop-signal	82	233357	0.0-7.37-1.37	beast_fmri_test	337	231018,/,231700,/,232378,/,233058,/	t,t,t,t	<img class = center src='/static/experiments/beast_fmri_test/images/P.png'></img>	89,71	2750.0	test	<img class = center src='/static/experiments/beast_fmri_test/images/redP.png'></img>	stop	2200.0	2.0	37.0	stop	non-target	P	89,Middle Finger	71,Index Finger	450.0	550.0	2350.0	2200.0	0.0	1.0	550.0	n/a	stop_stim
168112.69776959842	68.302230401567684	n/a	-1	-1	2750	68.3022304016	stim	stop-signal	82	233357	0.0-7.37-1.37	beast_fmri_test	337	231018,/,231700,/,232378,/,233058,/	t,t,t,t	<img class = center src='/static/experiments/beast_fmri_test/images/P.png'></img>	89,71	2750.0	test	<img class = center src='/static/experiments/beast_fmri_test/images/redP.png'></img>	stop	2200.0	2.0	37.0	stop	non-target	P	89,Middle Finger	71,Index Finger	450.0	550.0	2350.0	2200.0	0.0	1.0	550.0	n/a	ITI
168767	500	n/a	-1	-1	500	0.0	fixation	poldrack-single-stim	83	233943	0.0-7.38-0.38	beast_fmri_test	337	233739,/	t	<div class = centerbox2><div class = fixation>+</div></div>	none	500.0	test	n/a	n/a	n/a	n/a	n/a	n/a	n/a	n/a	n/a	n/a	n/a	n/a	n/a	n/a	n/a	n/a	n/a	n/a	fixation
166484.62003501225	2750	n/a	1279	71	2750	2285.37996499	stim	stop-signal	84	236696	0.0-7.38-1.38	beast_fmri_test	337	234417,/,235096,/,235776,/,236456,/,237135,/,237817,/,238497,/	t,t,t,t,t,t,t	<img class = center src='/static/experiments/beast_fmri_test/images/P.png'></img>	89,71	2750.0	test	<img class = center src='/static/experiments/beast_fmri_test/images/redP.png'></img>	go	2150.0	2.0	38.0	go	non-target	P	89,Middle Finger	71,Index Finger	450.0	600.0	2350.0	2150.0	1.0	n/a	600.0	1.0	go_stim
169234.62003501225	2285.3799649877601	n/a	1279	71	2750	2285.37996499	stim	stop-signal	84	236696	0.0-7.38-1.38	beast_fmri_test	337	234417,/,235096,/,235776,/,236456,/,237135,/,237817,/,238497,/	t,t,t,t,t,t,t	<img class = center src='/static/experiments/beast_fmri_test/images/P.png'></img>	89,71	2750.0	test	<img class = center src='/static/experiments/beast_fmri_test/images/redP.png'></img>	go	2150.0	2.0	38.0	go	non-target	P	89,Middle Finger	71,Index Finger	450.0	600.0	2350.0	2150.0	1.0	n/a	600.0	1.0	ITI
174317	500	n/a	-1	-1	500	0.0	fixation	poldrack-single-stim	85	239493	0.0-7.39-0.39	beast_fmri_test	337	239176,/	t	<div class = centerbox2><div class = fixation>+</div></div>	none	500.0	test	n/a	n/a	n/a	n/a	n/a	n/a	n/a	n/a	n/a	n/a	n/a	n/a	n/a	n/a	n/a	n/a	n/a	n/a	fixation
173358.84489221196	600.0	n/a	824	71	2750	959.155107788	stim	stop-signal	86	242244	0.0-7.39-1.39	beast_fmri_test	337	239855,/,240535,/,241215,/,241896,/,242574,/	t,t,t,t,t	<img class = center src='/static/experiments/beast_fmri_test/images/D.png'></img>	89,71	2750.0	test	<img class = center src='/static/experiments/beast_fmri_test/images/redD.png'></img>	stop	2150.0	2.0	39.0	stop	non-target	D	89,Middle Finger	71,Index Finger	450.0	600.0	2350.0	2150.0	0.0	0.0	600.0	n/a	go_stim
175508.84489221196	2150.0	n/a	824	71	2750	959.155107788	stim	stop-signal	86	242244	0.0-7.39-1.39	beast_fmri_test	337	239855,/,240535,/,241215,/,241896,/,242574,/	t,t,t,t,t	<img class = center src='/static/experiments/beast_fmri_test/images/D.png'></img>	89,71	2750.0	test	<img class = center src='/static/experiments/beast_fmri_test/images/redD.png'></img>	stop	2150.0	2.0	39.0	stop	non-target	D	89,Middle Finger	71,Index Finger	450.0	600.0	2350.0	2150.0	0.0	0.0	600.0	n/a	stop_stim
176108.84489221196	959.15510778803957	n/a	824	71	2750	959.155107788	stim	stop-signal	86	242244	0.0-7.39-1.39	beast_fmri_test	337	239855,/,240535,/,241215,/,241896,/,242574,/	t,t,t,t,t	<img class = center src='/static/experiments/beast_fmri_test/images/D.png'></img>	89,71	2750.0	test	<img class = center src='/static/experiments/beast_fmri_test/images/redD.png'></img>	stop	2150.0	2.0	39.0	stop	non-target	D	89,Middle Finger	71,Index Finger	450.0	600.0	2350.0	2150.0	0.0	0.0	600.0	n/a	ITI
178540	500	n/a	-1	-1	500	0.0	fixation	poldrack-single-stim	87	243716	0.0-7.40-0.40	beast_fmri_test	337	243256,/	t	<div class = centerbox2><div class = fixation>+</div></div>	none	500.0	test	n/a	n/a	n/a	n/a	n/a	n/a	n/a	n/a	n/a	n/a	n/a	n/a	n/a	n/a	n/a	n/a	n/a	n/a	fixation
177565.45222239135	2750	n/a	1454	71	2750	976.547777609	stim	stop-signal	88	246468	0.0-7.40-1.40	beast_fmri_test	337	243933,/,244613,/,245292,/,245973,/,246653,/,247332,/	t,t,t,t,t,t	<img class = center src='/static/experiments/beast_fmri_test/images/P.png'></img>	89,71	2750.0	test	<img class = center src='/static/experiments/beast_fmri_test/images/redP.png'></img>	go	2300.0	2.0	40.0	go	target	P	89,Middle Finger	71,Index Finger	450.0	550.0	2300.0	2150.0	0.0	n/a	450.0	0.0	go_stim
180315.45222239135	976.54777760864192	n/a	1454	71	2750	976.547777609	stim	stop-signal	88	246468	0.0-7.40-1.40	beast_fmri_test	337	243933,/,244613,/,245292,/,245973,/,246653,/,247332,/	t,t,t,t,t,t	<img class = center src='/static/experiments/beast_fmri_test/images/P.png'></img>	89,71	2750.0	test	<img class = center src='/static/experiments/beast_fmri_test/images/redP.png'></img>	go	2300.0	2.0	40.0	go	target	P	89,Middle Finger	71,Index Finger	450.0	550.0	2300.0	2150.0	0.0	n/a	450.0	0.0	ITI
182781	500	n/a	-1	-1	500	0.0	fixation	poldrack-single-stim	89	247957	0.0-7.41-0.41	beast_fmri_test	337	n/a	n/a	<div class = centerbox2><div class = fixation>+</div></div>	none	500.0	test	n/a	n/a	n/a	n/a	n/a	n/a	n/a	n/a	n/a	n/a	n/a	n/a	n/a	n/a	n/a	n/a	n/a	n/a	fixation
181366.69381617015	2750	n/a	2107	89	2750	1416.30618383	stim	stop-signal	90	250709	0.0-7.41-1.41	beast_fmri_test	337	248012,/,248690,/,249371,/,250051,/,250731,/,251410,/,252090,/	t,t,t,t,t,t,t	<img class = center src='/static/experiments/beast_fmri_test/images/D.png'></img>	89,71	2750.0	test	<img class = center src='/static/experiments/beast_fmri_test/images/redD.png'></img>	go	2300.0	2.0	41.0	go	target	D	89,Middle Finger	71,Index Finger	450.0	550.0	2300.0	2150.0	1.0	n/a	450.0	1.0	go_stim
184116.69381617015	1416.3061838298481	n/a	2107	89	2750	1416.30618383	stim	stop-signal	90	250709	0.0-7.41-1.41	beast_fmri_test	337	248012,/,248690,/,249371,/,250051,/,250731,/,251410,/,252090,/	t,t,t,t,t,t,t	<img class = center src='/static/experiments/beast_fmri_test/images/D.png'></img>	89,71	2750.0	test	<img class = center src='/static/experiments/beast_fmri_test/images/redD.png'></img>	go	2300.0	2.0	41.0	go	target	D	89,Middle Finger	71,Index Finger	450.0	550.0	2300.0	2150.0	1.0	n/a	450.0	1.0	ITI
187464	500	n/a	-1	-1	500	0.0	fixation	poldrack-single-stim	91	252640	0.0-7.42-0.42	beast_fmri_test	337	n/a	n/a	<div class = centerbox2><div class = fixation>+</div></div>	none	500.0	test	n/a	n/a	n/a	n/a	n/a	n/a	n/a	n/a	n/a	n/a	n/a	n/a	n/a	n/a	n/a	n/a	n/a	n/a	fixation
187212.30273953467	2750	n/a	1323	71	2750	252.697260465	stim	stop-signal	92	255391	0.0-7.42-1.42	beast_fmri_test	337	252770,/,253450,/,254128,/,254808,/,255487,/	t,t,t,t,t	<img class = center src='/static/experiments/beast_fmri_test/images/T.png'></img>	89,71	2750.0	test	<img class = center src='/static/experiments/beast_fmri_test/images/redT.png'></img>	go	2200.0	2.0	42.0	go	non-target	T	89,Middle Finger	71,Index Finger	450.0	550.0	2300.0	2200.0	1.0	n/a	550.0	1.0	go_stim
189962.30273953467	252.69726046533287	n/a	1323	71	2750	252.697260465	stim	stop-signal	92	255391	0.0-7.42-1.42	beast_fmri_test	337	252770,/,253450,/,254128,/,254808,/,255487,/	t,t,t,t,t	<img class = center src='/static/experiments/beast_fmri_test/images/T.png'></img>	89,71	2750.0	test	<img class = center src='/static/experiments/beast_fmri_test/images/redT.png'></img>	go	2200.0	2.0	42.0	go	non-target	T	89,Middle Finger	71,Index Finger	450.0	550.0	2300.0	2200.0	1.0	n/a	550.0	1.0	ITI
190980	500	n/a	-1	-1	500	0.0	fixation	poldrack-single-stim	93	256156	0.0-7.43-0.43	beast_fmri_test	337	n/a	n/a	<div class = centerbox2><div class = fixation>+</div></div>	none	500.0	test	n/a	n/a	n/a	n/a	n/a	n/a	n/a	n/a	n/a	n/a	n/a	n/a	n/a	n/a	n/a	n/a	n/a	n/a	fixation
190367.31648133809	550.0	n/a	-1	-1	2750	613.683518662	stim	stop-signal	94	258907	0.0-7.43-1.43	beast_fmri_test	337	256169,/,256847,/,257527,/,258207,/,258886,/	t,t,t,t,t	<img class = center src='/static/experiments/beast_fmri_test/images/T.png'></img>	89,71	2750.0	test	<img class = center src='/static/experiments/beast_fmri_test/images/redT.png'></img>	stop	2200.0	2.0	43.0	stop	non-target	T	89,Middle Finger	71,Index Finger	450.0	550.0	2300.0	2200.0	0.0	1.0	550.0	n/a	go_stim
192567.31648133809	2200.0	n/a	-1	-1	2750	613.683518662	stim	stop-signal	94	258907	0.0-7.43-1.43	beast_fmri_test	337	256169,/,256847,/,257527,/,258207,/,258886,/	t,t,t,t,t	<img class = center src='/static/experiments/beast_fmri_test/images/T.png'></img>	89,71	2750.0	test	<img class = center src='/static/experiments/beast_fmri_test/images/redT.png'></img>	stop	2200.0	2.0	43.0	stop	non-target	T	89,Middle Finger	71,Index Finger	450.0	550.0	2300.0	2200.0	0.0	1.0	550.0	n/a	stop_stim
193117.31648133809	613.68351866191279	n/a	-1	-1	2750	613.683518662	stim	stop-signal	94	258907	0.0-7.43-1.43	beast_fmri_test	337	256169,/,256847,/,257527,/,258207,/,258886,/	t,t,t,t,t	<img class = center src='/static/experiments/beast_fmri_test/images/T.png'></img>	89,71	2750.0	test	<img class = center src='/static/experiments/beast_fmri_test/images/redT.png'></img>	stop	2200.0	2.0	43.0	stop	non-target	T	89,Middle Finger	71,Index Finger	450.0	550.0	2300.0	2200.0	0.0	1.0	550.0	n/a	ITI
194860	500	n/a	-1	-1	500	0.0	fixation	poldrack-single-stim	95	260036	0.0-7.44-0.44	beast_fmri_test	337	259565,/	t	<div class = centerbox2><div class = fixation>+</div></div>	none	500.0	test	n/a	n/a	n/a	n/a	n/a	n/a	n/a	n/a	n/a	n/a	n/a	n/a	n/a	n/a	n/a	n/a	n/a	n/a	fixation
194332.11310628254	2750	n/a	1244	71	2750	530.886893717	stim	stop-signal	96	262789	0.0-7.44-1.44	beast_fmri_test	337	260247,/,260926,/,261606,/,262285,/,262965,/	t,t,t,t,t	<img class = center src='/static/experiments/beast_fmri_test/images/P.png'></img>	89,71	2750.0	test	<img class = center src='/static/experiments/beast_fmri_test/images/redP.png'></img>	go	2150.0	2.0	44.0	go	non-target	P	89,Middle Finger	71,Index Finger	450.0	600.0	2300.0	2150.0	1.0	n/a	600.0	1.0	go_stim
197082.11310628254	530.88689371743931	n/a	1244	71	2750	530.886893717	stim	stop-signal	96	262789	0.0-7.44-1.44	beast_fmri_test	337	260247,/,260926,/,261606,/,262285,/,262965,/	t,t,t,t,t	<img class = center src='/static/experiments/beast_fmri_test/images/P.png'></img>	89,71	2750.0	test	<img class = center src='/static/experiments/beast_fmri_test/images/redP.png'></img>	go	2150.0	2.0	44.0	go	non-target	P	89,Middle Finger	71,Index Finger	450.0	600.0	2300.0	2150.0	1.0	n/a	600.0	1.0	ITI
198661	500	n/a	-1	-1	500	0.0	fixation	poldrack-single-stim	97	263837	0.0-7.45-0.45	beast_fmri_test	337	263645,/	t	<div class = centerbox2><div class = fixation>+</div></div>	none	500.0	test	n/a	n/a	n/a	n/a	n/a	n/a	n/a	n/a	n/a	n/a	n/a	n/a	n/a	n/a	n/a	n/a	n/a	n/a	fixation
196579.6128305734	2750	n/a	1238	89	2750	2082.38716943	stim	stop-signal	98	266588	0.0-7.45-1.45	beast_fmri_test	337	264324,/,265003,/,265684,/,266364,/,267043,/,267723,/,268403,/	t,t,t,t,t,t,t	<img class = center src='/static/experiments/beast_fmri_test/images/T.png'></img>	89,71	2750.0	test	<img class = center src='/static/experiments/beast_fmri_test/images/redT.png'></img>	go	2300.0	2.0	45.0	go	target	T	89,Middle Finger	71,Index Finger	450.0	600.0	2300.0	2150.0	1.0	n/a	450.0	1.0	go_stim
199329.6128305734	2082.3871694265745	n/a	1238	89	2750	2082.38716943	stim	stop-signal	98	266588	0.0-7.45-1.45	beast_fmri_test	337	264324,/,265003,/,265684,/,266364,/,267043,/,267723,/,268403,/	t,t,t,t,t,t,t	<img class = center src='/static/experiments/beast_fmri_test/images/T.png'></img>	89,71	2750.0	test	<img class = center src='/static/experiments/beast_fmri_test/images/redT.png'></img>	go	2300.0	2.0	45.0	go	target	T	89,Middle Finger	71,Index Finger	450.0	600.0	2300.0	2150.0	1.0	n/a	450.0	1.0	ITI
204009	500	n/a	-1	-1	500	0.0	fixation	poldrack-single-stim	99	269185	0.0-7.46-0.46	beast_fmri_test	337	269082,/	t	<div class = centerbox2><div class = fixation>+</div></div>	none	500.0	test	n/a	n/a	n/a	n/a	n/a	n/a	n/a	n/a	n/a	n/a	n/a	n/a	n/a	n/a	n/a	n/a	n/a	n/a	fixation
201306.80310791067	2750	n/a	1178	89	2750	2705.19689209	stim	stop-signal	100	271938	0.0-7.46-1.46	beast_fmri_test	337	269763,/,270443,/,271122,/,271801,/,272481,/,273161,/,273841,/,274519,/	t,t,t,t,t,t,t,t	<img class = center src='/static/experiments/beast_fmri_test/images/T.png'></img>	89,71	2750.0	test	<img class = center src='/static/experiments/beast_fmri_test/images/redT.png'></img>	go	2150.0	2.0	46.0	go	non-target	T	89,Middle Finger	71,Index Finger	450.0	600.0	2300.0	2150.0	0.0	n/a	600.0	0.0	go_stim
204056.80310791067	2705.1968920893491	n/a	1178	89	2750	2705.19689209	stim	stop-signal	100	271938	0.0-7.46-1.46	beast_fmri_test	337	269763,/,270443,/,271122,/,271801,/,272481,/,273161,/,273841,/,274519,/	t,t,t,t,t,t,t,t	<img class = center src='/static/experiments/beast_fmri_test/images/T.png'></img>	89,71	2750.0	test	<img class = center src='/static/experiments/beast_fmri_test/images/redT.png'></img>	go	2150.0	2.0	46.0	go	non-target	T	89,Middle Finger	71,Index Finger	450.0	600.0	2300.0	2150.0	0.0	n/a	600.0	0.0	ITI
224473	15000	n/a	-1	-1	15000	0.0	practice-no-stop-feedback	poldrack-single-stim	101	289649	0.0-8.0	beast_fmri_test	337	275199,/,275880,/,276558,/,277239,/,277919,/,278599,/,279277,/,279957,/,280638,/,281315,/,281996,/,282676,/,283356,/,284036,/,284715,/,285395,/,286074,/,286753,/,287434,/,288114,/,288792,/,289473,/	t,t,t,t,t,t,t,t,t,t,t,t,t,t,t,t,t,t,t,t,t,t	"<div class = ""centerbox""><p class = ""block-text"">Your delay is 1 trials.</p><p class = block-text>Please wait for the scanner to start the block</p></div>"	77	15000.0	n/a	n/a	n/a	n/a	n/a	n/a	n/a	n/a	n/a	n/a	n/a	n/a	n/a	n/a	n/a	n/a	n/a	n/a	n/a	practice-no-stop-feedback
224976	500	n/a	-1	-1	500	0.0	fixation	poldrack-single-stim	102	290152	0.0-9.0-0.0	beast_fmri_test	337	n/a	n/a	<div class = centerbox2><div class = fixation>+</div></div>	none	500.0	test	n/a	n/a	n/a	n/a	n/a	n/a	n/a	n/a	n/a	n/a	n/a	n/a	n/a	n/a	n/a	n/a	n/a	n/a	fixation
224842.03473796614	2750	n/a	1616	71	2750	134.965262034	stim	stop-signal	103	292903	0.0-9.0-1.0	beast_fmri_test	337	290154,/,290832,/,291511,/,292193,/,292870,/	t,t,t,t,t	<img class = center src='/static/experiments/beast_fmri_test/images/B.png'></img>	89,71	2750.0	test	<img class = center src='/static/experiments/beast_fmri_test/images/redB.png'></img>	go	-1.0	1.0	0.0	go	temp-non-target	B	89,Middle Finger	71,Index Finger	450.0	600.0	2300.0	2150.0	0.0	n/a	n/a	n/a	go_stim
227592.03473796614	134.96526203388868	n/a	1616	71	2750	134.965262034	stim	stop-signal	103	292903	0.0-9.0-1.0	beast_fmri_test	337	290154,/,290832,/,291511,/,292193,/,292870,/	t,t,t,t,t	<img class = center src='/static/experiments/beast_fmri_test/images/B.png'></img>	89,71	2750.0	test	<img class = center src='/static/experiments/beast_fmri_test/images/redB.png'></img>	go	-1.0	1.0	0.0	go	temp-non-target	B	89,Middle Finger	71,Index Finger	450.0	600.0	2300.0	2150.0	0.0	n/a	n/a	n/a	ITI
228379	500	n/a	-1	-1	500	0.0	fixation	poldrack-single-stim	104	293555	0.0-9.1-0.1	beast_fmri_test	337	293551,/	t	<div class = centerbox2><div class = fixation>+</div></div>	none	500.0	test	n/a	n/a	n/a	n/a	n/a	n/a	n/a	n/a	n/a	n/a	n/a	n/a	n/a	n/a	n/a	n/a	n/a	n/a	fixation
228053.14864459162	600.0	n/a	582	71	2750	328.851355408	stim	stop-signal	105	296308	0.0-9.1-1.1	beast_fmri_test	337	294231,/,294910,/,295590,/,296270,/	t,t,t,t	<img class = center src='/static/experiments/beast_fmri_test/images/P.png'></img>	89,71	2750.0	test	<img class = center src='/static/experiments/beast_fmri_test/images/redP.png'></img>	stop	2150.0	1.0	1.0	stop	non-target	P	89,Middle Finger	71,Index Finger	450.0	600.0	2300.0	2150.0	0.0	0.0	600.0	n/a	go_stim
230203.14864459162	2150.0	n/a	582	71	2750	328.851355408	stim	stop-signal	105	296308	0.0-9.1-1.1	beast_fmri_test	337	294231,/,294910,/,295590,/,296270,/	t,t,t,t	<img class = center src='/static/experiments/beast_fmri_test/images/P.png'></img>	89,71	2750.0	test	<img class = center src='/static/experiments/beast_fmri_test/images/redP.png'></img>	stop	2150.0	1.0	1.0	stop	non-target	P	89,Middle Finger	71,Index Finger	450.0	600.0	2300.0	2150.0	0.0	0.0	600.0	n/a	stop_stim
230803.14864459162	328.85135540839224	n/a	582	71	2750	328.851355408	stim	stop-signal	105	296308	0.0-9.1-1.1	beast_fmri_test	337	294231,/,294910,/,295590,/,296270,/	t,t,t,t	<img class = center src='/static/experiments/beast_fmri_test/images/P.png'></img>	89,71	2750.0	test	<img class = center src='/static/experiments/beast_fmri_test/images/redP.png'></img>	stop	2150.0	1.0	1.0	stop	non-target	P	89,Middle Finger	71,Index Finger	450.0	600.0	2300.0	2150.0	0.0	0.0	600.0	n/a	ITI
231975	500	n/a	-1	-1	500	0.0	fixation	poldrack-single-stim	106	297151	0.0-9.2-0.2	beast_fmri_test	337	296951,/	t	<div class = centerbox2><div class = fixation>+</div></div>	none	500.0	test	n/a	n/a	n/a	n/a	n/a	n/a	n/a	n/a	n/a	n/a	n/a	n/a	n/a	n/a	n/a	n/a	n/a	n/a	fixation
231085.60875696439	550.0	n/a	805	71	2750	891.391243036	stim	stop-signal	107	299903	0.0-9.2-1.2	beast_fmri_test	337	297629,/,298309,/,298989,/,299668,/,300347,/	t,t,t,t,t	<img class = center src='/static/experiments/beast_fmri_test/images/T.png'></img>	89,71	2750.0	test	<img class = center src='/static/experiments/beast_fmri_test/images/redT.png'></img>	stop	2200.0	1.0	2.0	stop	non-target	T	89,Middle Finger	71,Index Finger	450.0	550.0	2300.0	2200.0	0.0	0.0	550.0	n/a	go_stim
233285.60875696439	2200.0	n/a	805	71	2750	891.391243036	stim	stop-signal	107	299903	0.0-9.2-1.2	beast_fmri_test	337	297629,/,298309,/,298989,/,299668,/,300347,/	t,t,t,t,t	<img class = center src='/static/experiments/beast_fmri_test/images/T.png'></img>	89,71	2750.0	test	<img class = center src='/static/experiments/beast_fmri_test/images/redT.png'></img>	stop	2200.0	1.0	2.0	stop	non-target	T	89,Middle Finger	71,Index Finger	450.0	550.0	2300.0	2200.0	0.0	0.0	550.0	n/a	stop_stim
233835.60875696439	891.39124303559925	n/a	805	71	2750	891.391243036	stim	stop-signal	107	299903	0.0-9.2-1.2	beast_fmri_test	337	297629,/,298309,/,298989,/,299668,/,300347,/	t,t,t,t,t	<img class = center src='/static/experiments/beast_fmri_test/images/T.png'></img>	89,71	2750.0	test	<img class = center src='/static/experiments/beast_fmri_test/images/redT.png'></img>	stop	2200.0	1.0	2.0	stop	non-target	T	89,Middle Finger	71,Index Finger	450.0	550.0	2300.0	2200.0	0.0	0.0	550.0	n/a	ITI
236137	500	n/a	-1	-1	500	0.0	fixation	poldrack-single-stim	108	301313	0.0-9.3-0.3	beast_fmri_test	337	301028,/	t	<div class = centerbox2><div class = fixation>+</div></div>	none	500.0	test	n/a	n/a	n/a	n/a	n/a	n/a	n/a	n/a	n/a	n/a	n/a	n/a	n/a	n/a	n/a	n/a	n/a	n/a	fixation
236077.7080719542	500.0	n/a	-1	-1	2750	61.2919280458	stim	stop-signal	109	304065	0.0-9.3-1.3	beast_fmri_test	337	301707,/,302386,/,303067,/,303747,/	t,t,t,t	<img class = center src='/static/experiments/beast_fmri_test/images/V.png'></img>	89,71	2750.0	test	<img class = center src='/static/experiments/beast_fmri_test/images/redV.png'></img>	stop	2250.0	1.0	3.0	stop	non-target	V	89,Middle Finger	71,Index Finger	450.0	500.0	2300.0	2250.0	0.0	1.0	500.0	n/a	go_stim
238327.7080719542	2250.0	n/a	-1	-1	2750	61.2919280458	stim	stop-signal	109	304065	0.0-9.3-1.3	beast_fmri_test	337	301707,/,302386,/,303067,/,303747,/	t,t,t,t	<img class = center src='/static/experiments/beast_fmri_test/images/V.png'></img>	89,71	2750.0	test	<img class = center src='/static/experiments/beast_fmri_test/images/redV.png'></img>	stop	2250.0	1.0	3.0	stop	non-target	V	89,Middle Finger	71,Index Finger	450.0	500.0	2300.0	2250.0	0.0	1.0	500.0	n/a	stop_stim
238827.7080719542	61.2919280458255	n/a	-1	-1	2750	61.2919280458	stim	stop-signal	109	304065	0.0-9.3-1.3	beast_fmri_test	337	301707,/,302386,/,303067,/,303747,/	t,t,t,t	<img class = center src='/static/experiments/beast_fmri_test/images/V.png'></img>	89,71	2750.0	test	<img class = center src='/static/experiments/beast_fmri_test/images/redV.png'></img>	stop	2250.0	1.0	3.0	stop	non-target	V	89,Middle Finger	71,Index Finger	450.0	500.0	2300.0	2250.0	0.0	1.0	500.0	n/a	ITI
239467	500	n/a	-1	-1	500	0.0	fixation	poldrack-single-stim	110	304643	0.0-9.4-0.4	beast_fmri_test	337	304427,/	t	<div class = centerbox2><div class = fixation>+</div></div>	none	500.0	test	n/a	n/a	n/a	n/a	n/a	n/a	n/a	n/a	n/a	n/a	n/a	n/a	n/a	n/a	n/a	n/a	n/a	n/a	fixation
238878.83769584924	2750	n/a	1017	71	2750	590.162304151	stim	stop-signal	111	307395	0.0-9.4-1.4	beast_fmri_test	337	305105,/,305787,/,306464,/,307145,/,307824,/	t,t,t,t,t	<img class = center src='/static/experiments/beast_fmri_test/images/T.png'></img>	89,71	2750.0	test	<img class = center src='/static/experiments/beast_fmri_test/images/redT.png'></img>	go	2200.0	1.0	4.0	go	non-target	T	89,Middle Finger	71,Index Finger	450.0	550.0	2300.0	2200.0	1.0	n/a	550.0	1.0	go_stim
241628.83769584924	590.16230415073278	n/a	1017	71	2750	590.162304151	stim	stop-signal	111	307395	0.0-9.4-1.4	beast_fmri_test	337	305105,/,305787,/,306464,/,307145,/,307824,/	t,t,t,t,t	<img class = center src='/static/experiments/beast_fmri_test/images/T.png'></img>	89,71	2750.0	test	<img class = center src='/static/experiments/beast_fmri_test/images/redT.png'></img>	go	2200.0	1.0	4.0	go	non-target	T	89,Middle Finger	71,Index Finger	450.0	550.0	2300.0	2200.0	1.0	n/a	550.0	1.0	ITI
243328	500	n/a	-1	-1	500	0.0	fixation	poldrack-single-stim	112	308504	0.0-9.5-0.5	beast_fmri_test	337	n/a	n/a	<div class = centerbox2><div class = fixation>+</div></div>	none	500.0	test	n/a	n/a	n/a	n/a	n/a	n/a	n/a	n/a	n/a	n/a	n/a	n/a	n/a	n/a	n/a	n/a	n/a	n/a	fixation
243164.33918402821	550.0	n/a	1698	71	2750	165.660815972	stim	stop-signal	113	311256	0.0-9.5-1.5	beast_fmri_test	337	308506,/,309184,/,309863,/,310543,/,311223,/	t,t,t,t,t	<img class = center src='/static/experiments/beast_fmri_test/images/V.png'></img>	89,71	2750.0	test	<img class = center src='/static/experiments/beast_fmri_test/images/redV.png'></img>	stop	2200.0	1.0	5.0	stop	non-target	V	89,Middle Finger	71,Index Finger	450.0	550.0	2300.0	2200.0	0.0	0.0	550.0	n/a	go_stim
245364.33918402821	2200.0	n/a	1698	71	2750	165.660815972	stim	stop-signal	113	311256	0.0-9.5-1.5	beast_fmri_test	337	308506,/,309184,/,309863,/,310543,/,311223,/	t,t,t,t,t	<img class = center src='/static/experiments/beast_fmri_test/images/V.png'></img>	89,71	2750.0	test	<img class = center src='/static/experiments/beast_fmri_test/images/redV.png'></img>	stop	2200.0	1.0	5.0	stop	non-target	V	89,Middle Finger	71,Index Finger	450.0	550.0	2300.0	2200.0	0.0	0.0	550.0	n/a	stop_stim
245914.33918402821	165.66081597179118	n/a	1698	71	2750	165.660815972	stim	stop-signal	113	311256	0.0-9.5-1.5	beast_fmri_test	337	308506,/,309184,/,309863,/,310543,/,311223,/	t,t,t,t,t	<img class = center src='/static/experiments/beast_fmri_test/images/V.png'></img>	89,71	2750.0	test	<img class = center src='/static/experiments/beast_fmri_test/images/redV.png'></img>	stop	2200.0	1.0	5.0	stop	non-target	V	89,Middle Finger	71,Index Finger	450.0	550.0	2300.0	2200.0	0.0	0.0	550.0	n/a	ITI
246761	500	n/a	-1	-1	500	0.0	fixation	poldrack-single-stim	114	311937	0.0-9.6-0.6	beast_fmri_test	337	311903,/	t	<div class = centerbox2><div class = fixation>+</div></div>	none	500.0	test	n/a	n/a	n/a	n/a	n/a	n/a	n/a	n/a	n/a	n/a	n/a	n/a	n/a	n/a	n/a	n/a	n/a	n/a	fixation
245859.95299324492	2750	n/a	1399	71	2750	902.047006755	stim	stop-signal	115	314688	0.0-9.6-1.6	beast_fmri_test	337	312582,/,313262,/,313942,/,314621,/,315300,/	t,t,t,t,t	<img class = center src='/static/experiments/beast_fmri_test/images/V.png'></img>	89,71	2750.0	test	<img class = center src='/static/experiments/beast_fmri_test/images/redV.png'></img>	go	2300.0	1.0	6.0	go	target	V	89,Middle Finger	71,Index Finger	450.0	500.0	2300.0	2200.0	0.0	n/a	450.0	0.0	go_stim
248609.95299324492	902.04700675506001	n/a	1399	71	2750	902.047006755	stim	stop-signal	115	314688	0.0-9.6-1.6	beast_fmri_test	337	312582,/,313262,/,313942,/,314621,/,315300,/	t,t,t,t,t	<img class = center src='/static/experiments/beast_fmri_test/images/V.png'></img>	89,71	2750.0	test	<img class = center src='/static/experiments/beast_fmri_test/images/redV.png'></img>	go	2300.0	1.0	6.0	go	target	V	89,Middle Finger	71,Index Finger	450.0	500.0	2300.0	2200.0	0.0	n/a	450.0	0.0	ITI
250934	500	n/a	-1	-1	500	0.0	fixation	poldrack-single-stim	116	316110	0.0-9.7-0.7	beast_fmri_test	337	315980,/	t	<div class = centerbox2><div class = fixation>+</div></div>	none	500.0	test	n/a	n/a	n/a	n/a	n/a	n/a	n/a	n/a	n/a	n/a	n/a	n/a	n/a	n/a	n/a	n/a	n/a	n/a	fixation
248562.91973536572	2750	n/a	1160	71	2750	2372.08026463	stim	stop-signal	117	318861	0.0-9.7-1.7	beast_fmri_test	337	316661,/,317339,/,318019,/,318699,/,319378,/,320057,/,320739,/	t,t,t,t,t,t,t	<img class = center src='/static/experiments/beast_fmri_test/images/B.png'></img>	89,71	2750.0	test	<img class = center src='/static/experiments/beast_fmri_test/images/redB.png'></img>	go	2250.0	1.0	7.0	go	non-target	B	89,Middle Finger	71,Index Finger	450.0	500.0	2300.0	2250.0	1.0	n/a	500.0	1.0	go_stim
251312.91973536572	2372.0802646342763	n/a	1160	71	2750	2372.08026463	stim	stop-signal	117	318861	0.0-9.7-1.7	beast_fmri_test	337	316661,/,317339,/,318019,/,318699,/,319378,/,320057,/,320739,/	t,t,t,t,t,t,t	<img class = center src='/static/experiments/beast_fmri_test/images/B.png'></img>	89,71	2750.0	test	<img class = center src='/static/experiments/beast_fmri_test/images/redB.png'></img>	go	2250.0	1.0	7.0	go	non-target	B	89,Middle Finger	71,Index Finger	450.0	500.0	2300.0	2250.0	1.0	n/a	500.0	1.0	ITI
256573	500	n/a	-1	-1	500	0.0	fixation	poldrack-single-stim	118	321749	0.0-9.8-0.8	beast_fmri_test	337	321417,/	t	<div class = centerbox2><div class = fixation>+</div></div>	none	500.0	test	n/a	n/a	n/a	n/a	n/a	n/a	n/a	n/a	n/a	n/a	n/a	n/a	n/a	n/a	n/a	n/a	n/a	n/a	fixation
256207.50868960452	2750	n/a	791	71	2750	366.491310395	stim	stop-signal	119	324500	0.0-9.8-1.8	beast_fmri_test	337	322099,/,322778,/,323457,/,324137,/,324818,/	t,t,t,t,t	<img class = center src='/static/experiments/beast_fmri_test/images/V.png'></img>	89,71	2750.0	test	<img class = center src='/static/experiments/beast_fmri_test/images/redV.png'></img>	go	2250.0	1.0	8.0	go	non-target	V	89,Middle Finger	71,Index Finger	450.0	500.0	2300.0	2250.0	1.0	n/a	500.0	1.0	go_stim
258957.50868960452	366.49131039549081	n/a	791	71	2750	366.491310395	stim	stop-signal	119	324500	0.0-9.8-1.8	beast_fmri_test	337	322099,/,322778,/,323457,/,324137,/,324818,/	t,t,t,t,t	<img class = center src='/static/experiments/beast_fmri_test/images/V.png'></img>	89,71	2750.0	test	<img class = center src='/static/experiments/beast_fmri_test/images/redV.png'></img>	go	2250.0	1.0	8.0	go	non-target	V	89,Middle Finger	71,Index Finger	450.0	500.0	2300.0	2250.0	1.0	n/a	500.0	1.0	ITI
260209	500	n/a	-1	-1	500	0.0	fixation	poldrack-single-stim	120	325385	0.0-9.9-0.9	beast_fmri_test	337	n/a	n/a	<div class = centerbox2><div class = fixation>+</div></div>	none	500.0	test	n/a	n/a	n/a	n/a	n/a	n/a	n/a	n/a	n/a	n/a	n/a	n/a	n/a	n/a	n/a	n/a	n/a	n/a	fixation
260182.23377597996	2750	n/a	1305	71	2750	27.76622402	stim	stop-signal	121	328136	0.0-9.9-1.9	beast_fmri_test	337	325498,/,326177,/,326856,/,327536,/	t,t,t,t	<img class = center src='/static/experiments/beast_fmri_test/images/P.png'></img>	89,71	2750.0	test	<img class = center src='/static/experiments/beast_fmri_test/images/redP.png'></img>	go	2250.0	1.0	9.0	go	non-target	P	89,Middle Finger	71,Index Finger	450.0	500.0	2300.0	2250.0	1.0	n/a	500.0	1.0	go_stim
262932.23377597996	27.766224020037498	n/a	1305	71	2750	27.76622402	stim	stop-signal	121	328136	0.0-9.9-1.9	beast_fmri_test	337	325498,/,326177,/,326856,/,327536,/	t,t,t,t	<img class = center src='/static/experiments/beast_fmri_test/images/P.png'></img>	89,71	2750.0	test	<img class = center src='/static/experiments/beast_fmri_test/images/redP.png'></img>	go	2250.0	1.0	9.0	go	non-target	P	89,Middle Finger	71,Index Finger	450.0	500.0	2300.0	2250.0	1.0	n/a	500.0	1.0	ITI
263502	500	n/a	-1	-1	500	0.0	fixation	poldrack-single-stim	122	328678	0.0-9.10-0.10	beast_fmri_test	337	328215,/	t	<div class = centerbox2><div class = fixation>+</div></div>	none	500.0	test	n/a	n/a	n/a	n/a	n/a	n/a	n/a	n/a	n/a	n/a	n/a	n/a	n/a	n/a	n/a	n/a	n/a	n/a	fixation
262213.37347537989	2750	n/a	1418	71	2750	1290.62652462	stim	stop-signal	123	331430	0.0-9.10-1.10	beast_fmri_test	337	328895,/,329575,/,330255,/,330935,/,331614,/,332293,/	t,t,t,t,t,t	<img class = center src='/static/experiments/beast_fmri_test/images/D.png'></img>	89,71	2750.0	test	<img class = center src='/static/experiments/beast_fmri_test/images/redD.png'></img>	go	2250.0	1.0	10.0	go	non-target	D	89,Middle Finger	71,Index Finger	450.0	500.0	2300.0	2250.0	1.0	n/a	500.0	1.0	go_stim
264963.37347537989	1290.6265246201006	n/a	1418	71	2750	1290.62652462	stim	stop-signal	123	331430	0.0-9.10-1.10	beast_fmri_test	337	328895,/,329575,/,330255,/,330935,/,331614,/,332293,/	t,t,t,t,t,t	<img class = center src='/static/experiments/beast_fmri_test/images/D.png'></img>	89,71	2750.0	test	<img class = center src='/static/experiments/beast_fmri_test/images/redD.png'></img>	go	2250.0	1.0	10.0	go	non-target	D	89,Middle Finger	71,Index Finger	450.0	500.0	2300.0	2250.0	1.0	n/a	500.0	1.0	ITI
268062	500	n/a	-1	-1	500	0.0	fixation	poldrack-single-stim	124	333238	0.0-9.11-0.11	beast_fmri_test	337	332973,/	t	<div class = centerbox2><div class = fixation>+</div></div>	none	500.0	test	n/a	n/a	n/a	n/a	n/a	n/a	n/a	n/a	n/a	n/a	n/a	n/a	n/a	n/a	n/a	n/a	n/a	n/a	fixation
267519.65597521723	500.0	n/a	-1	-1	2750	543.344024783	stim	stop-signal	125	335989	0.0-9.11-1.11	beast_fmri_test	337	333653,/,334332,/,335012,/,335693,/,336372,/	t,t,t,t,t	<img class = center src='/static/experiments/beast_fmri_test/images/V.png'></img>	89,71	2750.0	test	<img class = center src='/static/experiments/beast_fmri_test/images/redV.png'></img>	stop	2250.0	1.0	11.0	stop	non-target	V	89,Middle Finger	71,Index Finger	450.0	500.0	2300.0	2250.0	0.0	1.0	500.0	n/a	go_stim
269769.65597521723	2250.0	n/a	-1	-1	2750	543.344024783	stim	stop-signal	125	335989	0.0-9.11-1.11	beast_fmri_test	337	333653,/,334332,/,335012,/,335693,/,336372,/	t,t,t,t,t	<img class = center src='/static/experiments/beast_fmri_test/images/V.png'></img>	89,71	2750.0	test	<img class = center src='/static/experiments/beast_fmri_test/images/redV.png'></img>	stop	2250.0	1.0	11.0	stop	non-target	V	89,Middle Finger	71,Index Finger	450.0	500.0	2300.0	2250.0	0.0	1.0	500.0	n/a	stop_stim
270269.65597521723	543.34402478279287	n/a	-1	-1	2750	543.344024783	stim	stop-signal	125	335989	0.0-9.11-1.11	beast_fmri_test	337	333653,/,334332,/,335012,/,335693,/,336372,/	t,t,t,t,t	<img class = center src='/static/experiments/beast_fmri_test/images/V.png'></img>	89,71	2750.0	test	<img class = center src='/static/experiments/beast_fmri_test/images/redV.png'></img>	stop	2250.0	1.0	11.0	stop	non-target	V	89,Middle Finger	71,Index Finger	450.0	500.0	2300.0	2250.0	0.0	1.0	500.0	n/a	ITI
271874	500	n/a	-1	-1	500	0.0	fixation	poldrack-single-stim	126	337050	0.0-9.12-0.12	beast_fmri_test	337	n/a	n/a	<div class = centerbox2><div class = fixation>+</div></div>	none	500.0	test	n/a	n/a	n/a	n/a	n/a	n/a	n/a	n/a	n/a	n/a	n/a	n/a	n/a	n/a	n/a	n/a	n/a	n/a	fixation
271864.94656281458	2750	n/a	1405	89	2750	11.0534371854	stim	stop-signal	127	339802	0.0-9.12-1.12	beast_fmri_test	337	337051,/,337732,/,338411,/,339089,/,339769,/	t,t,t,t,t	<img class = center src='/static/experiments/beast_fmri_test/images/V.png'></img>	89,71	2750.0	test	<img class = center src='/static/experiments/beast_fmri_test/images/redV.png'></img>	go	2300.0	1.0	12.0	go	target	V	89,Middle Finger	71,Index Finger	450.0	550.0	2300.0	2250.0	1.0	n/a	450.0	1.0	go_stim
274614.94656281458	11.053437185434406	n/a	1405	89	2750	11.0534371854	stim	stop-signal	127	339802	0.0-9.12-1.12	beast_fmri_test	337	337051,/,337732,/,338411,/,339089,/,339769,/	t,t,t,t,t	<img class = center src='/static/experiments/beast_fmri_test/images/V.png'></img>	89,71	2750.0	test	<img class = center src='/static/experiments/beast_fmri_test/images/redV.png'></img>	go	2300.0	1.0	12.0	go	target	V	89,Middle Finger	71,Index Finger	450.0	550.0	2300.0	2250.0	1.0	n/a	450.0	1.0	ITI
275155	500	n/a	-1	-1	500	0.0	fixation	poldrack-single-stim	128	340331	0.0-9.13-0.13	beast_fmri_test	337	n/a	n/a	<div class = centerbox2><div class = fixation>+</div></div>	none	500.0	test	n/a	n/a	n/a	n/a	n/a	n/a	n/a	n/a	n/a	n/a	n/a	n/a	n/a	n/a	n/a	n/a	n/a	n/a	fixation
273712.76319755282	2750	n/a	1277	71	2750	1444.23680245	stim	stop-signal	129	343083	0.0-9.13-1.13	beast_fmri_test	337	340449,/,341130,/,341808,/,342488,/,343167,/,343846,/,344529,/	t,t,t,t,t,t,t	<img class = center src='/static/experiments/beast_fmri_test/images/P.png'></img>	89,71	2750.0	test	<img class = center src='/static/experiments/beast_fmri_test/images/redP.png'></img>	go	2200.0	1.0	13.0	go	non-target	P	89,Middle Finger	71,Index Finger	450.0	550.0	2300.0	2200.0	1.0	n/a	550.0	1.0	go_stim
276462.76319755282	1444.2368024471655	n/a	1277	71	2750	1444.23680245	stim	stop-signal	129	343083	0.0-9.13-1.13	beast_fmri_test	337	340449,/,341130,/,341808,/,342488,/,343167,/,343846,/,344529,/	t,t,t,t,t,t,t	<img class = center src='/static/experiments/beast_fmri_test/images/P.png'></img>	89,71	2750.0	test	<img class = center src='/static/experiments/beast_fmri_test/images/redP.png'></img>	go	2200.0	1.0	13.0	go	non-target	P	89,Middle Finger	71,Index Finger	450.0	550.0	2300.0	2200.0	1.0	n/a	550.0	1.0	ITI
279869	500	n/a	-1	-1	500	0.0	fixation	poldrack-single-stim	130	345045	0.0-9.14-0.14	beast_fmri_test	337	n/a	n/a	<div class = centerbox2><div class = fixation>+</div></div>	none	500.0	test	n/a	n/a	n/a	n/a	n/a	n/a	n/a	n/a	n/a	n/a	n/a	n/a	n/a	n/a	n/a	n/a	n/a	n/a	fixation
279634.23505848186	2750	n/a	611	89	2750	237.764941518	stim	stop-signal	131	347798	0.0-9.14-1.14	beast_fmri_test	337	345208,/,345888,/,346567,/,347246,/,347925,/	t,t,t,t,t	<img class = center src='/static/experiments/beast_fmri_test/images/P.png'></img>	89,71	2750.0	test	<img class = center src='/static/experiments/beast_fmri_test/images/redP.png'></img>	go	2300.0	1.0	14.0	go	target	P	89,Middle Finger	71,Index Finger	450.0	550.0	2300.0	2200.0	1.0	n/a	450.0	1.0	go_stim
282384.23505848186	237.764941518124	n/a	611	89	2750	237.764941518	stim	stop-signal	131	347798	0.0-9.14-1.14	beast_fmri_test	337	345208,/,345888,/,346567,/,347246,/,347925,/	t,t,t,t,t	<img class = center src='/static/experiments/beast_fmri_test/images/P.png'></img>	89,71	2750.0	test	<img class = center src='/static/experiments/beast_fmri_test/images/redP.png'></img>	go	2300.0	1.0	14.0	go	target	P	89,Middle Finger	71,Index Finger	450.0	550.0	2300.0	2200.0	1.0	n/a	450.0	1.0	ITI
283383	500	n/a	-1	-1	500	0.0	fixation	poldrack-single-stim	132	348559	0.0-9.15-0.15	beast_fmri_test	337	n/a	n/a	<div class = centerbox2><div class = fixation>+</div></div>	none	500.0	test	n/a	n/a	n/a	n/a	n/a	n/a	n/a	n/a	n/a	n/a	n/a	n/a	n/a	n/a	n/a	n/a	n/a	n/a	fixation
282877.99330997257	2750	n/a	1169	71	2750	508.006690027	stim	stop-signal	133	351312	0.0-9.15-1.15	beast_fmri_test	337	348606,/,349286,/,349964,/,350645,/,351324,/	t,t,t,t,t	<img class = center src='/static/experiments/beast_fmri_test/images/D.png'></img>	89,71	2750.0	test	<img class = center src='/static/experiments/beast_fmri_test/images/redD.png'></img>	go	2200.0	1.0	15.0	go	non-target	D	89,Middle Finger	71,Index Finger	450.0	550.0	2300.0	2200.0	1.0	n/a	550.0	1.0	go_stim
285627.99330997257	508.00669002739608	n/a	1169	71	2750	508.006690027	stim	stop-signal	133	351312	0.0-9.15-1.15	beast_fmri_test	337	348606,/,349286,/,349964,/,350645,/,351324,/	t,t,t,t,t	<img class = center src='/static/experiments/beast_fmri_test/images/D.png'></img>	89,71	2750.0	test	<img class = center src='/static/experiments/beast_fmri_test/images/redD.png'></img>	go	2200.0	1.0	15.0	go	non-target	D	89,Middle Finger	71,Index Finger	450.0	550.0	2300.0	2200.0	1.0	n/a	550.0	1.0	ITI
287163	500	n/a	-1	-1	500	0.0	fixation	poldrack-single-stim	134	352339	0.0-9.16-0.16	beast_fmri_test	337	352003,/	t	<div class = centerbox2><div class = fixation>+</div></div>	none	500.0	test	n/a	n/a	n/a	n/a	n/a	n/a	n/a	n/a	n/a	n/a	n/a	n/a	n/a	n/a	n/a	n/a	n/a	n/a	fixation
286130.19965400797	2750	n/a	792	71	2750	1033.80034599	stim	stop-signal	135	355090	0.0-9.16-1.16	beast_fmri_test	337	352684,/,353365,/,354043,/,354724,/,355403,/,356083,/	t,t,t,t,t,t	<img class = center src='/static/experiments/beast_fmri_test/images/P.png'></img>	89,71	2750.0	test	<img class = center src='/static/experiments/beast_fmri_test/images/redP.png'></img>	go	2200.0	1.0	16.0	go	non-target	P	89,Middle Finger	71,Index Finger	450.0	550.0	2300.0	2200.0	1.0	n/a	550.0	1.0	go_stim
288880.19965400797	1033.800345992031	n/a	792	71	2750	1033.80034599	stim	stop-signal	135	355090	0.0-9.16-1.16	beast_fmri_test	337	352684,/,353365,/,354043,/,354724,/,355403,/,356083,/	t,t,t,t,t,t	<img class = center src='/static/experiments/beast_fmri_test/images/P.png'></img>	89,71	2750.0	test	<img class = center src='/static/experiments/beast_fmri_test/images/redP.png'></img>	go	2200.0	1.0	16.0	go	non-target	P	89,Middle Finger	71,Index Finger	450.0	550.0	2300.0	2200.0	1.0	n/a	550.0	1.0	ITI
291468	500	n/a	-1	-1	500	0.0	fixation	poldrack-single-stim	136	356644	0.0-9.17-0.17	beast_fmri_test	337	n/a	n/a	<div class = centerbox2><div class = fixation>+</div></div>	none	500.0	test	n/a	n/a	n/a	n/a	n/a	n/a	n/a	n/a	n/a	n/a	n/a	n/a	n/a	n/a	n/a	n/a	n/a	n/a	fixation
290856.4542210123	2750	n/a	699	89	2750	612.545778988	stim	stop-signal	137	359395	0.0-9.17-1.17	beast_fmri_test	337	356762,/,357442,/,358122,/,358801,/,359481,/	t,t,t,t,t	<img class = center src='/static/experiments/beast_fmri_test/images/P.png'></img>	89,71	2750.0	test	<img class = center src='/static/experiments/beast_fmri_test/images/redP.png'></img>	go	2300.0	1.0	17.0	go	target	P	89,Middle Finger	71,Index Finger	450.0	550.0	2300.0	2200.0	1.0	n/a	450.0	1.0	go_stim
293606.4542210123	612.54577898766877	n/a	699	89	2750	612.545778988	stim	stop-signal	137	359395	0.0-9.17-1.17	beast_fmri_test	337	356762,/,357442,/,358122,/,358801,/,359481,/	t,t,t,t,t	<img class = center src='/static/experiments/beast_fmri_test/images/P.png'></img>	89,71	2750.0	test	<img class = center src='/static/experiments/beast_fmri_test/images/redP.png'></img>	go	2300.0	1.0	17.0	go	target	P	89,Middle Finger	71,Index Finger	450.0	550.0	2300.0	2200.0	1.0	n/a	450.0	1.0	ITI
295354	500	n/a	-1	-1	500	0.0	fixation	poldrack-single-stim	138	360530	0.0-9.18-0.18	beast_fmri_test	337	360160,/	t	<div class = centerbox2><div class = fixation>+</div></div>	none	500.0	test	n/a	n/a	n/a	n/a	n/a	n/a	n/a	n/a	n/a	n/a	n/a	n/a	n/a	n/a	n/a	n/a	n/a	n/a	fixation
294949.6785698582	2750	n/a	583	89	2750	405.321430142	stim	stop-signal	139	363281	0.0-9.18-1.18	beast_fmri_test	337	360841,/,361520,/,362199,/,362880,/,363558,/	t,t,t,t,t	<img class = center src='/static/experiments/beast_fmri_test/images/P.png'></img>	89,71	2750.0	test	<img class = center src='/static/experiments/beast_fmri_test/images/redP.png'></img>	go	2300.0	1.0	18.0	go	target	P	89,Middle Finger	71,Index Finger	450.0	550.0	2300.0	2200.0	1.0	n/a	450.0	1.0	go_stim
297699.6785698582	405.32143014182037	n/a	583	89	2750	405.321430142	stim	stop-signal	139	363281	0.0-9.18-1.18	beast_fmri_test	337	360841,/,361520,/,362199,/,362880,/,363558,/	t,t,t,t,t	<img class = center src='/static/experiments/beast_fmri_test/images/P.png'></img>	89,71	2750.0	test	<img class = center src='/static/experiments/beast_fmri_test/images/redP.png'></img>	go	2300.0	1.0	18.0	go	target	P	89,Middle Finger	71,Index Finger	450.0	550.0	2300.0	2200.0	1.0	n/a	450.0	1.0	ITI
299032	500	n/a	-1	-1	500	0.0	fixation	poldrack-single-stim	140	364208	0.0-9.19-0.19	beast_fmri_test	337	n/a	n/a	<div class = centerbox2><div class = fixation>+</div></div>	none	500.0	test	n/a	n/a	n/a	n/a	n/a	n/a	n/a	n/a	n/a	n/a	n/a	n/a	n/a	n/a	n/a	n/a	n/a	n/a	fixation
298324.59076385188	2750	n/a	1027	71	2750	707.409236148	stim	stop-signal	141	366958	0.0-9.19-1.19	beast_fmri_test	337	364239,/,364918,/,365599,/,366278,/,366958,/,367637,/	t,t,t,t,t,t	<img class = center src='/static/experiments/beast_fmri_test/images/B.png'></img>	89,71	2750.0	test	<img class = center src='/static/experiments/beast_fmri_test/images/redB.png'></img>	go	2200.0	1.0	19.0	go	non-target	B	89,Middle Finger	71,Index Finger	450.0	550.0	2300.0	2200.0	1.0	n/a	550.0	1.0	go_stim
301074.59076385188	707.40923614810208	n/a	1027	71	2750	707.409236148	stim	stop-signal	141	366958	0.0-9.19-1.19	beast_fmri_test	337	364239,/,364918,/,365599,/,366278,/,366958,/,367637,/	t,t,t,t,t,t	<img class = center src='/static/experiments/beast_fmri_test/images/B.png'></img>	89,71	2750.0	test	<img class = center src='/static/experiments/beast_fmri_test/images/redB.png'></img>	go	2200.0	1.0	19.0	go	non-target	B	89,Middle Finger	71,Index Finger	450.0	550.0	2300.0	2200.0	1.0	n/a	550.0	1.0	ITI
303009	500	n/a	-1	-1	500	0.0	fixation	poldrack-single-stim	142	368185	0.0-9.20-0.20	beast_fmri_test	337	n/a	n/a	<div class = centerbox2><div class = fixation>+</div></div>	none	500.0	test	n/a	n/a	n/a	n/a	n/a	n/a	n/a	n/a	n/a	n/a	n/a	n/a	n/a	n/a	n/a	n/a	n/a	n/a	fixation
302999.47472290561	550.0	n/a	-1	-1	2750	10.5252770944	stim	stop-signal	143	370936	0.0-9.20-1.20	beast_fmri_test	337	368318,/,368997,/,369677,/,370356,/	t,t,t,t	<img class = center src='/static/experiments/beast_fmri_test/images/T.png'></img>	89,71	2750.0	test	<img class = center src='/static/experiments/beast_fmri_test/images/redT.png'></img>	stop	2200.0	1.0	20.0	stop	non-target	T	89,Middle Finger	71,Index Finger	450.0	550.0	2300.0	2200.0	0.0	1.0	550.0	n/a	go_stim
305199.47472290561	2200.0	n/a	-1	-1	2750	10.5252770944	stim	stop-signal	143	370936	0.0-9.20-1.20	beast_fmri_test	337	368318,/,368997,/,369677,/,370356,/	t,t,t,t	<img class = center src='/static/experiments/beast_fmri_test/images/T.png'></img>	89,71	2750.0	test	<img class = center src='/static/experiments/beast_fmri_test/images/redT.png'></img>	stop	2200.0	1.0	20.0	stop	non-target	T	89,Middle Finger	71,Index Finger	450.0	550.0	2300.0	2200.0	0.0	1.0	550.0	n/a	stop_stim
305749.47472290561	10.525277094387713	n/a	-1	-1	2750	10.5252770944	stim	stop-signal	143	370936	0.0-9.20-1.20	beast_fmri_test	337	368318,/,368997,/,369677,/,370356,/	t,t,t,t	<img class = center src='/static/experiments/beast_fmri_test/images/T.png'></img>	89,71	2750.0	test	<img class = center src='/static/experiments/beast_fmri_test/images/redT.png'></img>	stop	2200.0	1.0	20.0	stop	non-target	T	89,Middle Finger	71,Index Finger	450.0	550.0	2300.0	2200.0	0.0	1.0	550.0	n/a	ITI
306289	500	n/a	-1	-1	500	0.0	fixation	poldrack-single-stim	144	371465	0.0-9.21-0.21	beast_fmri_test	337	371036,/	t	<div class = centerbox2><div class = fixation>+</div></div>	none	500.0	test	n/a	n/a	n/a	n/a	n/a	n/a	n/a	n/a	n/a	n/a	n/a	n/a	n/a	n/a	n/a	n/a	n/a	n/a	fixation
305674.47359364259	600.0	n/a	-1	-1	2750	616.526406357	stim	stop-signal	145	374217	0.0-9.21-1.21	beast_fmri_test	337	371715,/,372395,/,373075,/,373754,/,374434,/	t,t,t,t,t	<img class = center src='/static/experiments/beast_fmri_test/images/D.png'></img>	89,71	2750.0	test	<img class = center src='/static/experiments/beast_fmri_test/images/redD.png'></img>	stop	2150.0	1.0	21.0	stop	non-target	D	89,Middle Finger	71,Index Finger	450.0	600.0	2300.0	2150.0	0.0	1.0	600.0	n/a	go_stim
307824.47359364259	2150.0	n/a	-1	-1	2750	616.526406357	stim	stop-signal	145	374217	0.0-9.21-1.21	beast_fmri_test	337	371715,/,372395,/,373075,/,373754,/,374434,/	t,t,t,t,t	<img class = center src='/static/experiments/beast_fmri_test/images/D.png'></img>	89,71	2750.0	test	<img class = center src='/static/experiments/beast_fmri_test/images/redD.png'></img>	stop	2150.0	1.0	21.0	stop	non-target	D	89,Middle Finger	71,Index Finger	450.0	600.0	2300.0	2150.0	0.0	1.0	600.0	n/a	stop_stim
308424.47359364259	616.52640635738965	n/a	-1	-1	2750	616.526406357	stim	stop-signal	145	374217	0.0-9.21-1.21	beast_fmri_test	337	371715,/,372395,/,373075,/,373754,/,374434,/	t,t,t,t,t	<img class = center src='/static/experiments/beast_fmri_test/images/D.png'></img>	89,71	2750.0	test	<img class = center src='/static/experiments/beast_fmri_test/images/redD.png'></img>	stop	2150.0	1.0	21.0	stop	non-target	D	89,Middle Finger	71,Index Finger	450.0	600.0	2300.0	2150.0	0.0	1.0	600.0	n/a	ITI
310179	500	n/a	-1	-1	500	0.0	fixation	poldrack-single-stim	146	375355	0.0-9.22-0.22	beast_fmri_test	337	375113,/	t	<div class = centerbox2><div class = fixation>+</div></div>	none	500.0	test	n/a	n/a	n/a	n/a	n/a	n/a	n/a	n/a	n/a	n/a	n/a	n/a	n/a	n/a	n/a	n/a	n/a	n/a	fixation
309949.93386459694	2750	n/a	760	89	2750	230.066135403	stim	stop-signal	147	378106	0.0-9.22-1.22	beast_fmri_test	337	375792,/,376473,/,377151,/,377831,/	t,t,t,t	<img class = center src='/static/experiments/beast_fmri_test/images/D.png'></img>	89,71	2750.0	test	<img class = center src='/static/experiments/beast_fmri_test/images/redD.png'></img>	go	2300.0	1.0	22.0	go	target	D	89,Middle Finger	71,Index Finger	450.0	650.0	2300.0	2150.0	1.0	n/a	450.0	1.0	go_stim
312699.93386459694	230.0661354030465	n/a	760	89	2750	230.066135403	stim	stop-signal	147	378106	0.0-9.22-1.22	beast_fmri_test	337	375792,/,376473,/,377151,/,377831,/	t,t,t,t	<img class = center src='/static/experiments/beast_fmri_test/images/D.png'></img>	89,71	2750.0	test	<img class = center src='/static/experiments/beast_fmri_test/images/redD.png'></img>	go	2300.0	1.0	22.0	go	target	D	89,Middle Finger	71,Index Finger	450.0	650.0	2300.0	2150.0	1.0	n/a	450.0	1.0	ITI
313681	500	n/a	-1	-1	500	0.0	fixation	poldrack-single-stim	148	378857	0.0-9.23-0.23	beast_fmri_test	337	378512,/	t	<div class = centerbox2><div class = fixation>+</div></div>	none	500.0	test	n/a	n/a	n/a	n/a	n/a	n/a	n/a	n/a	n/a	n/a	n/a	n/a	n/a	n/a	n/a	n/a	n/a	n/a	fixation
313192.23478700127	450.0	n/a	-1	-1	2750	491.765212999	stim	stop-signal	149	381610	0.0-9.23-1.23	beast_fmri_test	337	379192,/,379872,/,380552,/,381232,/,381912,/	t,t,t,t,t	<img class = center src='/static/experiments/beast_fmri_test/images/D.png'></img>	89,71	2750.0	test	<img class = center src='/static/experiments/beast_fmri_test/images/redD.png'></img>	stop	2300.0	1.0	23.0	stop	target	D	89,Middle Finger	71,Index Finger	450.0	650.0	2300.0	2150.0	0.0	1.0	450.0	n/a	go_stim
