onset	duration	text	rt	key_press	block_duration	timing_post_trial	trial_id	trial_type	trial_index	time_elapsed	internal_node_id	exp_id	subject_id	trigger_times	triggers	stimulus	possible_responses	stim_duration	exp_stage	SS_stimulus	SS_trial_type	SS_duration	load	trial_num	stop_trial_type	adaptive_trial_type	stim	yes_response_key	no_response_key	SSD_target	SSD_non_target	SSTarget	SSNonTarget	go_acc	stop_acc	SS_delay	adaptive_acc	new_trial_type
test	10880	n/a	-1	-1	10880	0.0	practice-no-stop-feedback	poldrack-single-stim	6	127804	0.0-6.0	beast_fmri_test	317	116926,/,117605,/,118283,/,118963,/,119642,/,120323,/,121002,/,121682,/,122361,/,123041,/,123720,/,124400,/,125081,/,125759,/,126440,/,127119,/,127799,/	t,t,t,t,t,t,t,t,t,t,t,t,t,t,t,t,t	"<div class = ""centerbox""><p class = ""block-text"">Your delay is 2 trials.</p><p class = block-text>Please wait for the scanner to start the block</p></div>"	77	10880.0	n/a	n/a	n/a	n/a	n/a	n/a	n/a	n/a	n/a	n/a	n/a	n/a	n/a	n/a	n/a	n/a	n/a	n/a	n/a	start_functional_block
11381	500	n/a	-1	-1	500	0.0	fixation	poldrack-single-stim	7	128307	0.0-7.0-0.0	beast_fmri_test	317	n/a	n/a	<div class = centerbox2><div class = fixation>+</div></div>	none	500.0	test	n/a	n/a	n/a	n/a	n/a	n/a	n/a	n/a	n/a	n/a	n/a	n/a	n/a	n/a	n/a	n/a	n/a	n/a	fixation
10798.587754013235	temp_go_duration	n/a	684	71	2750	585.412245987	stim	stop-signal	8	131060	0.0-7.0-1.0	beast_fmri_test	317	128479,/,129158,/,129837,/,130518,/,131197,/	t,t,t,t,t	<img class = center src='/static/experiments/beast_fmri_test/images/D.png'></img>	89,71	2750.0	test	<img class = center src='/static/experiments/beast_fmri_test/images/redD.png'></img>	stop	-1.0	2.0	0.0	stop	temp-non-target	D	89,Middle Finger	71,Index Finger	500.0	500.0	0.0	0.0	0.0	0.0	n/a	n/a	go_stim
temp-non-target	temp_stop_duration	n/a	684	71	2750	585.412245987	stim	stop-signal	8	131060	0.0-7.0-1.0	beast_fmri_test	317	128479,/,129158,/,129837,/,130518,/,131197,/	t,t,t,t,t	<img class = center src='/static/experiments/beast_fmri_test/images/D.png'></img>	89,71	2750.0	test	<img class = center src='/static/experiments/beast_fmri_test/images/redD.png'></img>	stop	-1.0	2.0	0.0	stop	temp-non-target	D	89,Middle Finger	71,Index Finger	500.0	500.0	0.0	0.0	0.0	0.0	n/a	n/a	stop_stim
13548.587754013235	585.41224598675933	n/a	684	71	2750	585.412245987	stim	stop-signal	8	131060	0.0-7.0-1.0	beast_fmri_test	317	128479,/,129158,/,129837,/,130518,/,131197,/	t,t,t,t,t	<img class = center src='/static/experiments/beast_fmri_test/images/D.png'></img>	89,71	2750.0	test	<img class = center src='/static/experiments/beast_fmri_test/images/redD.png'></img>	stop	-1.0	2.0	0.0	stop	temp-non-target	D	89,Middle Finger	71,Index Finger	500.0	500.0	0.0	0.0	0.0	0.0	n/a	n/a	ITI
15230	500	n/a	-1	-1	500	0.0	fixation	poldrack-single-stim	9	132156	0.0-7.1-0.1	beast_fmri_test	317	131878,/	t	<div class = centerbox2><div class = fixation>+</div></div>	none	500.0	test	n/a	n/a	n/a	n/a	n/a	n/a	n/a	n/a	n/a	n/a	n/a	n/a	n/a	n/a	n/a	n/a	n/a	n/a	fixation
13537.846966668789	2750	n/a	740	71	2750	1694.15303333	stim	stop-signal	10	134908	0.0-7.1-1.1	beast_fmri_test	317	132557,/,133236,/,133915,/,134595,/,135275,/,135955,/	t,t,t,t,t,t	<img class = center src='/static/experiments/beast_fmri_test/images/B.png'></img>	89,71	2750.0	test	<img class = center src='/static/experiments/beast_fmri_test/images/redB.png'></img>	go	-1.0	2.0	1.0	go	temp-non-target	B	89,Middle Finger	71,Index Finger	500.0	500.0	0.0	0.0	0.0	n/a	n/a	n/a	go_stim
16287.846966668789	1694.1530333312162	n/a	740	71	2750	1694.15303333	stim	stop-signal	10	134908	0.0-7.1-1.1	beast_fmri_test	317	132557,/,133236,/,133915,/,134595,/,135275,/,135955,/	t,t,t,t,t,t	<img class = center src='/static/experiments/beast_fmri_test/images/B.png'></img>	89,71	2750.0	test	<img class = center src='/static/experiments/beast_fmri_test/images/redB.png'></img>	go	-1.0	2.0	1.0	go	temp-non-target	B	89,Middle Finger	71,Index Finger	500.0	500.0	0.0	0.0	0.0	n/a	n/a	n/a	ITI
20186	500	n/a	-1	-1	500	0.0	fixation	poldrack-single-stim	11	137112	0.0-7.2-0.2	beast_fmri_test	317	136634,/	t	<div class = centerbox2><div class = fixation>+</div></div>	none	500.0	test	n/a	n/a	n/a	n/a	n/a	n/a	n/a	n/a	n/a	n/a	n/a	n/a	n/a	n/a	n/a	n/a	n/a	n/a	fixation
19043.612435366696	500.0	n/a	892	71	2750	1145.38756463	stim	stop-signal	12	139865	0.0-7.2-1.2	beast_fmri_test	317	137316,/,137996,/,138675,/,139355,/,140034,/,140713,/	t,t,t,t,t,t	<img class = center src='/static/experiments/beast_fmri_test/images/B.png'></img>	89,71	2750.0	test	<img class = center src='/static/experiments/beast_fmri_test/images/redB.png'></img>	stop	2250.0	2.0	2.0	stop	non-target	B	89,Middle Finger	71,Index Finger	500.0	500.0	0.0	2250.0	0.0	0.0	500.0	n/a	go_stim
21293.612435366696	2250.0	n/a	892	71	2750	1145.38756463	stim	stop-signal	12	139865	0.0-7.2-1.2	beast_fmri_test	317	137316,/,137996,/,138675,/,139355,/,140034,/,140713,/	t,t,t,t,t,t	<img class = center src='/static/experiments/beast_fmri_test/images/B.png'></img>	89,71	2750.0	test	<img class = center src='/static/experiments/beast_fmri_test/images/redB.png'></img>	stop	2250.0	2.0	2.0	stop	non-target	B	89,Middle Finger	71,Index Finger	500.0	500.0	0.0	2250.0	0.0	0.0	500.0	n/a	stop_stim
21793.612435366696	1145.3875646333074	n/a	892	71	2750	1145.38756463	stim	stop-signal	12	139865	0.0-7.2-1.2	beast_fmri_test	317	137316,/,137996,/,138675,/,139355,/,140034,/,140713,/	t,t,t,t,t,t	<img class = center src='/static/experiments/beast_fmri_test/images/B.png'></img>	89,71	2750.0	test	<img class = center src='/static/experiments/beast_fmri_test/images/redB.png'></img>	stop	2250.0	2.0	2.0	stop	non-target	B	89,Middle Finger	71,Index Finger	500.0	500.0	0.0	2250.0	0.0	0.0	500.0	n/a	ITI
24593	500	n/a	-1	-1	500	0.0	fixation	poldrack-single-stim	13	141519	0.0-7.3-0.3	beast_fmri_test	317	141393,/	t	<div class = centerbox2><div class = fixation>+</div></div>	none	500.0	test	n/a	n/a	n/a	n/a	n/a	n/a	n/a	n/a	n/a	n/a	n/a	n/a	n/a	n/a	n/a	n/a	n/a	n/a	fixation
24038.765874068602	2750	n/a	1085	71	2750	555.234125931	stim	stop-signal	14	144270	0.0-7.3-1.3	beast_fmri_test	317	142073,/,142752,/,143433,/,144111,/,144792,/	t,t,t,t,t	<img class = center src='/static/experiments/beast_fmri_test/images/T.png'></img>	89,71	2750.0	test	<img class = center src='/static/experiments/beast_fmri_test/images/redT.png'></img>	go	2300.0	2.0	3.0	go	non-target	T	89,Middle Finger	71,Index Finger	500.0	450.0	0.0	2300.0	1.0	n/a	450.0	1.0	go_stim
26788.765874068602	555.23412593141131	n/a	1085	71	2750	555.234125931	stim	stop-signal	14	144270	0.0-7.3-1.3	beast_fmri_test	317	142073,/,142752,/,143433,/,144111,/,144792,/	t,t,t,t,t	<img class = center src='/static/experiments/beast_fmri_test/images/T.png'></img>	89,71	2750.0	test	<img class = center src='/static/experiments/beast_fmri_test/images/redT.png'></img>	go	2300.0	2.0	3.0	go	non-target	T	89,Middle Finger	71,Index Finger	500.0	450.0	0.0	2300.0	1.0	n/a	450.0	1.0	ITI
28405	500	n/a	-1	-1	500	0.0	fixation	poldrack-single-stim	15	145331	0.0-7.4-0.4	beast_fmri_test	317	n/a	n/a	<div class = centerbox2><div class = fixation>+</div></div>	none	500.0	test	n/a	n/a	n/a	n/a	n/a	n/a	n/a	n/a	n/a	n/a	n/a	n/a	n/a	n/a	n/a	n/a	n/a	n/a	fixation
25053.901459248067	2750	n/a	969	89	2750	3352.09854075	stim	stop-signal	16	148082	0.0-7.4-1.4	beast_fmri_test	317	145472,/,146151,/,146830,/,147509,/,148191,/,148868,/,149548,/,150229,/,150909,/	t,t,t,t,t,t,t,t,t	<img class = center src='/static/experiments/beast_fmri_test/images/B.png'></img>	89,71	2750.0	test	<img class = center src='/static/experiments/beast_fmri_test/images/redB.png'></img>	go	2250.0	2.0	4.0	go	target	B	89,Middle Finger	71,Index Finger	500.0	450.0	2250.0	2300.0	1.0	n/a	500.0	1.0	go_stim
27803.901459248067	3352.0985407519397	n/a	969	89	2750	3352.09854075	stim	stop-signal	16	148082	0.0-7.4-1.4	beast_fmri_test	317	145472,/,146151,/,146830,/,147509,/,148191,/,148868,/,149548,/,150229,/,150909,/	t,t,t,t,t,t,t,t,t	<img class = center src='/static/experiments/beast_fmri_test/images/B.png'></img>	89,71	2750.0	test	<img class = center src='/static/experiments/beast_fmri_test/images/redB.png'></img>	go	2250.0	2.0	4.0	go	target	B	89,Middle Finger	71,Index Finger	500.0	450.0	2250.0	2300.0	1.0	n/a	500.0	1.0	ITI
35014	500	n/a	-1	-1	500	0.0	fixation	poldrack-single-stim	17	151940	0.0-7.5-0.5	beast_fmri_test	317	151587,/	t	<div class = centerbox2><div class = fixation>+</div></div>	none	500.0	test	n/a	n/a	n/a	n/a	n/a	n/a	n/a	n/a	n/a	n/a	n/a	n/a	n/a	n/a	n/a	n/a	n/a	n/a	fixation
34900.123340419814	2750	n/a	1711	71	2750	114.87665958	stim	stop-signal	18	154691	0.0-7.5-1.5	beast_fmri_test	317	152269,/,152947,/,153627,/,154307,/	t,t,t,t	<img class = center src='/static/experiments/beast_fmri_test/images/B.png'></img>	89,71	2750.0	test	<img class = center src='/static/experiments/beast_fmri_test/images/redB.png'></img>	go	2300.0	2.0	5.0	go	non-target	B	89,Middle Finger	71,Index Finger	500.0	450.0	2250.0	2300.0	1.0	n/a	450.0	1.0	go_stim
37650.123340419814	114.87665958019794	n/a	1711	71	2750	114.87665958	stim	stop-signal	18	154691	0.0-7.5-1.5	beast_fmri_test	317	152269,/,152947,/,153627,/,154307,/	t,t,t,t	<img class = center src='/static/experiments/beast_fmri_test/images/B.png'></img>	89,71	2750.0	test	<img class = center src='/static/experiments/beast_fmri_test/images/redB.png'></img>	go	2300.0	2.0	5.0	go	non-target	B	89,Middle Finger	71,Index Finger	500.0	450.0	2250.0	2300.0	1.0	n/a	450.0	1.0	ITI
38384	500	n/a	-1	-1	500	0.0	fixation	poldrack-single-stim	19	155310	0.0-7.6-0.6	beast_fmri_test	317	154986,/	t	<div class = centerbox2><div class = fixation>+</div></div>	none	500.0	test	n/a	n/a	n/a	n/a	n/a	n/a	n/a	n/a	n/a	n/a	n/a	n/a	n/a	n/a	n/a	n/a	n/a	n/a	fixation
35847.114973775402	2750	n/a	1693	71	2750	2539.88502622	stim	stop-signal	20	158063	0.0-7.6-1.6	beast_fmri_test	317	155666,/,156345,/,157026,/,157706,/,158385,/,159065,/,159744,/,160423,/	t,t,t,t,t,t,t,t	<img class = center src='/static/experiments/beast_fmri_test/images/D.png'></img>	89,71	2750.0	test	<img class = center src='/static/experiments/beast_fmri_test/images/redD.png'></img>	go	2300.0	2.0	6.0	go	non-target	D	89,Middle Finger	71,Index Finger	500.0	450.0	2250.0	2300.0	1.0	n/a	450.0	1.0	go_stim
38597.114973775402	2539.8850262245955	n/a	1693	71	2750	2539.88502622	stim	stop-signal	20	158063	0.0-7.6-1.6	beast_fmri_test	317	155666,/,156345,/,157026,/,157706,/,158385,/,159065,/,159744,/,160423,/	t,t,t,t,t,t,t,t	<img class = center src='/static/experiments/beast_fmri_test/images/D.png'></img>	89,71	2750.0	test	<img class = center src='/static/experiments/beast_fmri_test/images/redD.png'></img>	go	2300.0	2.0	6.0	go	non-target	D	89,Middle Finger	71,Index Finger	500.0	450.0	2250.0	2300.0	1.0	n/a	450.0	1.0	ITI
44179	500	n/a	-1	-1	500	0.0	fixation	poldrack-single-stim	21	161105	0.0-7.7-0.7	beast_fmri_test	317	161104,/	t	<div class = centerbox2><div class = fixation>+</div></div>	none	500.0	test	n/a	n/a	n/a	n/a	n/a	n/a	n/a	n/a	n/a	n/a	n/a	n/a	n/a	n/a	n/a	n/a	n/a	n/a	fixation
42082.129976858327	2750	n/a	1018	89	2750	2097.87002314	stim	stop-signal	22	163856	0.0-7.7-1.7	beast_fmri_test	317	161782,/,162462,/,163143,/,163821,/,164502,/,165182,/,165861,/	t,t,t,t,t,t,t	<img class = center src='/static/experiments/beast_fmri_test/images/B.png'></img>	89,71	2750.0	test	<img class = center src='/static/experiments/beast_fmri_test/images/redB.png'></img>	go	2250.0	2.0	7.0	go	target	B	89,Middle Finger	71,Index Finger	500.0	450.0	2250.0	2300.0	1.0	n/a	500.0	1.0	go_stim
44832.129976858327	2097.8700231416674	n/a	1018	89	2750	2097.87002314	stim	stop-signal	22	163856	0.0-7.7-1.7	beast_fmri_test	317	161782,/,162462,/,163143,/,163821,/,164502,/,165182,/,165861,/	t,t,t,t,t,t,t	<img class = center src='/static/experiments/beast_fmri_test/images/B.png'></img>	89,71	2750.0	test	<img class = center src='/static/experiments/beast_fmri_test/images/redB.png'></img>	go	2250.0	2.0	7.0	go	target	B	89,Middle Finger	71,Index Finger	500.0	450.0	2250.0	2300.0	1.0	n/a	500.0	1.0	ITI
49536	500	n/a	-1	-1	500	0.0	fixation	poldrack-single-stim	23	166462	0.0-7.8-0.8	beast_fmri_test	317	n/a	n/a	<div class = centerbox2><div class = fixation>+</div></div>	none	500.0	test	n/a	n/a	n/a	n/a	n/a	n/a	n/a	n/a	n/a	n/a	n/a	n/a	n/a	n/a	n/a	n/a	n/a	n/a	fixation
49054.250300148386	2750	n/a	1515	71	2750	483.749699852	stim	stop-signal	24	169214	0.0-7.8-1.8	beast_fmri_test	317	166541,/,167221,/,167901,/,168581,/,169261,/	t,t,t,t,t	<img class = center src='/static/experiments/beast_fmri_test/images/V.png'></img>	89,71	2750.0	test	<img class = center src='/static/experiments/beast_fmri_test/images/redV.png'></img>	go	2300.0	2.0	8.0	go	non-target	V	89,Middle Finger	71,Index Finger	500.0	450.0	2250.0	2300.0	1.0	n/a	450.0	1.0	go_stim
51804.250300148386	483.74969985162369	n/a	1515	71	2750	483.749699852	stim	stop-signal	24	169214	0.0-7.8-1.8	beast_fmri_test	317	166541,/,167221,/,167901,/,168581,/,169261,/	t,t,t,t,t	<img class = center src='/static/experiments/beast_fmri_test/images/V.png'></img>	89,71	2750.0	test	<img class = center src='/static/experiments/beast_fmri_test/images/redV.png'></img>	go	2300.0	2.0	8.0	go	non-target	V	89,Middle Finger	71,Index Finger	500.0	450.0	2250.0	2300.0	1.0	n/a	450.0	1.0	ITI
53278	500	n/a	-1	-1	500	0.0	fixation	poldrack-single-stim	25	170204	0.0-7.9-0.9	beast_fmri_test	317	169939,/	t	<div class = centerbox2><div class = fixation>+</div></div>	none	500.0	test	n/a	n/a	n/a	n/a	n/a	n/a	n/a	n/a	n/a	n/a	n/a	n/a	n/a	n/a	n/a	n/a	n/a	n/a	fixation
51241.883074616577	450.0	n/a	-1	-1	2750	2037.11692538	stim	stop-signal	26	172955	0.0-7.9-1.9	beast_fmri_test	317	170620,/,171299,/,171980,/,172660,/,173338,/,174017,/,174697,/	t,t,t,t,t,t,t	<img class = center src='/static/experiments/beast_fmri_test/images/P.png'></img>	89,71	2750.0	test	<img class = center src='/static/experiments/beast_fmri_test/images/redP.png'></img>	stop	2300.0	2.0	9.0	stop	non-target	P	89,Middle Finger	71,Index Finger	500.0	450.0	2250.0	2300.0	0.0	1.0	450.0	n/a	go_stim
53541.883074616577	2300.0	n/a	-1	-1	2750	2037.11692538	stim	stop-signal	26	172955	0.0-7.9-1.9	beast_fmri_test	317	170620,/,171299,/,171980,/,172660,/,173338,/,174017,/,174697,/	t,t,t,t,t,t,t	<img class = center src='/static/experiments/beast_fmri_test/images/P.png'></img>	89,71	2750.0	test	<img class = center src='/static/experiments/beast_fmri_test/images/redP.png'></img>	stop	2300.0	2.0	9.0	stop	non-target	P	89,Middle Finger	71,Index Finger	500.0	450.0	2250.0	2300.0	0.0	1.0	450.0	n/a	stop_stim
53991.883074616577	2037.1169253834253	n/a	-1	-1	2750	2037.11692538	stim	stop-signal	26	172955	0.0-7.9-1.9	beast_fmri_test	317	170620,/,171299,/,171980,/,172660,/,173338,/,174017,/,174697,/	t,t,t,t,t,t,t	<img class = center src='/static/experiments/beast_fmri_test/images/P.png'></img>	89,71	2750.0	test	<img class = center src='/static/experiments/beast_fmri_test/images/redP.png'></img>	stop	2300.0	2.0	9.0	stop	non-target	P	89,Middle Finger	71,Index Finger	500.0	450.0	2250.0	2300.0	0.0	1.0	450.0	n/a	ITI
58574	500	n/a	-1	-1	500	0.0	fixation	poldrack-single-stim	27	175500	0.0-7.10-0.10	beast_fmri_test	317	175377,/	t	<div class = centerbox2><div class = fixation>+</div></div>	none	500.0	test	n/a	n/a	n/a	n/a	n/a	n/a	n/a	n/a	n/a	n/a	n/a	n/a	n/a	n/a	n/a	n/a	n/a	n/a	fixation
57893.449286985298	2750	n/a	989	71	2750	682.550713015	stim	stop-signal	28	178252	0.0-7.10-1.10	beast_fmri_test	317	176057,/,176737,/,177416,/,178096,/,178776,/	t,t,t,t,t	<img class = center src='/static/experiments/beast_fmri_test/images/B.png'></img>	89,71	2750.0	test	<img class = center src='/static/experiments/beast_fmri_test/images/redB.png'></img>	go	2250.0	2.0	10.0	go	non-target	B	89,Middle Finger	71,Index Finger	500.0	500.0	2250.0	2250.0	1.0	n/a	500.0	1.0	go_stim
60643.449286985298	682.55071301471446	n/a	989	71	2750	682.550713015	stim	stop-signal	28	178252	0.0-7.10-1.10	beast_fmri_test	317	176057,/,176737,/,177416,/,178096,/,178776,/	t,t,t,t,t	<img class = center src='/static/experiments/beast_fmri_test/images/B.png'></img>	89,71	2750.0	test	<img class = center src='/static/experiments/beast_fmri_test/images/redB.png'></img>	go	2250.0	2.0	10.0	go	non-target	B	89,Middle Finger	71,Index Finger	500.0	500.0	2250.0	2250.0	1.0	n/a	500.0	1.0	ITI
62515	500	n/a	-1	-1	500	0.0	fixation	poldrack-single-stim	29	179441	0.0-7.11-0.11	beast_fmri_test	317	n/a	n/a	<div class = centerbox2><div class = fixation>+</div></div>	none	500.0	test	n/a	n/a	n/a	n/a	n/a	n/a	n/a	n/a	n/a	n/a	n/a	n/a	n/a	n/a	n/a	n/a	n/a	n/a	fixation
62354.903021633247	2750	n/a	956	71	2750	162.096978367	stim	stop-signal	30	182193	0.0-7.11-1.11	beast_fmri_test	317	179455,/,180134,/,180814,/,181493,/,182175,/	t,t,t,t,t	<img class = center src='/static/experiments/beast_fmri_test/images/D.png'></img>	89,71	2750.0	test	<img class = center src='/static/experiments/beast_fmri_test/images/redD.png'></img>	go	2250.0	2.0	11.0	go	non-target	D	89,Middle Finger	71,Index Finger	500.0	500.0	2250.0	2250.0	1.0	n/a	500.0	1.0	go_stim
65104.903021633247	162.09697836676668	n/a	956	71	2750	162.096978367	stim	stop-signal	30	182193	0.0-7.11-1.11	beast_fmri_test	317	179455,/,180134,/,180814,/,181493,/,182175,/	t,t,t,t,t	<img class = center src='/static/experiments/beast_fmri_test/images/D.png'></img>	89,71	2750.0	test	<img class = center src='/static/experiments/beast_fmri_test/images/redD.png'></img>	go	2250.0	2.0	11.0	go	non-target	D	89,Middle Finger	71,Index Finger	500.0	500.0	2250.0	2250.0	1.0	n/a	500.0	1.0	ITI
65938	500	n/a	-1	-1	500	0.0	fixation	poldrack-single-stim	31	182864	0.0-7.12-0.12	beast_fmri_test	317	182854,/	t	<div class = centerbox2><div class = fixation>+</div></div>	none	500.0	test	n/a	n/a	n/a	n/a	n/a	n/a	n/a	n/a	n/a	n/a	n/a	n/a	n/a	n/a	n/a	n/a	n/a	n/a	fixation
65254.480646226293	2750	n/a	1064	71	2750	684.519353774	stim	stop-signal	32	185615	0.0-7.12-1.12	beast_fmri_test	317	183533,/,184212,/,184891,/,185573,/,186253,/	t,t,t,t,t	<img class = center src='/static/experiments/beast_fmri_test/images/P.png'></img>	89,71	2750.0	test	<img class = center src='/static/experiments/beast_fmri_test/images/redP.png'></img>	go	2250.0	2.0	12.0	go	non-target	P	89,Middle Finger	71,Index Finger	500.0	500.0	2250.0	2250.0	1.0	n/a	500.0	1.0	go_stim
68004.480646226293	684.51935377371854	n/a	1064	71	2750	684.519353774	stim	stop-signal	32	185615	0.0-7.12-1.12	beast_fmri_test	317	183533,/,184212,/,184891,/,185573,/,186253,/	t,t,t,t,t	<img class = center src='/static/experiments/beast_fmri_test/images/P.png'></img>	89,71	2750.0	test	<img class = center src='/static/experiments/beast_fmri_test/images/redP.png'></img>	go	2250.0	2.0	12.0	go	non-target	P	89,Middle Finger	71,Index Finger	500.0	500.0	2250.0	2250.0	1.0	n/a	500.0	1.0	ITI
69884	500	n/a	-1	-1	500	0.0	fixation	poldrack-single-stim	33	186810	0.0-7.13-0.13	beast_fmri_test	317	n/a	n/a	<div class = centerbox2><div class = fixation>+</div></div>	none	500.0	test	n/a	n/a	n/a	n/a	n/a	n/a	n/a	n/a	n/a	n/a	n/a	n/a	n/a	n/a	n/a	n/a	n/a	n/a	fixation
65361.518315133289	2750	n/a	934	89	2750	4522.48168487	stim	stop-signal	34	189560	0.0-7.13-1.13	beast_fmri_test	317	186932,/,187612,/,188291,/,188971,/,189650,/,190329,/,191010,/,191690,/,192369,/,193048,/,193728,/	t,t,t,t,t,t,t,t,t,t,t	<img class = center src='/static/experiments/beast_fmri_test/images/B.png'></img>	89,71	2750.0	test	<img class = center src='/static/experiments/beast_fmri_test/images/redB.png'></img>	go	2250.0	2.0	13.0	go	non-target	B	89,Middle Finger	71,Index Finger	500.0	500.0	2250.0	2250.0	0.0	n/a	500.0	0.0	go_stim
68111.518315133289	4522.4816848667124	n/a	934	89	2750	4522.48168487	stim	stop-signal	34	189560	0.0-7.13-1.13	beast_fmri_test	317	186932,/,187612,/,188291,/,188971,/,189650,/,190329,/,191010,/,191690,/,192369,/,193048,/,193728,/	t,t,t,t,t,t,t,t,t,t,t	<img class = center src='/static/experiments/beast_fmri_test/images/B.png'></img>	89,71	2750.0	test	<img class = center src='/static/experiments/beast_fmri_test/images/redB.png'></img>	go	2250.0	2.0	13.0	go	non-target	B	89,Middle Finger	71,Index Finger	500.0	500.0	2250.0	2250.0	0.0	n/a	500.0	0.0	ITI
77665	500	n/a	-1	-1	500	0.0	fixation	poldrack-single-stim	35	194591	0.0-7.14-0.14	beast_fmri_test	317	194408,/	t	<div class = centerbox2><div class = fixation>+</div></div>	none	500.0	test	n/a	n/a	n/a	n/a	n/a	n/a	n/a	n/a	n/a	n/a	n/a	n/a	n/a	n/a	n/a	n/a	n/a	n/a	fixation
77223.437224224152	2750	n/a	1244	89	2750	443.562775776	stim	stop-signal	36	197343	0.0-7.14-1.14	beast_fmri_test	317	195088,/,195768,/,196448,/,197128,/	t,t,t,t	<img class = center src='/static/experiments/beast_fmri_test/images/P.png'></img>	89,71	2750.0	test	<img class = center src='/static/experiments/beast_fmri_test/images/redP.png'></img>	go	2250.0	2.0	14.0	go	target	P	89,Middle Finger	71,Index Finger	500.0	500.0	2250.0	2250.0	1.0	n/a	500.0	1.0	go_stim
79973.437224224152	443.56277577586161	n/a	1244	89	2750	443.562775776	stim	stop-signal	36	197343	0.0-7.14-1.14	beast_fmri_test	317	195088,/,195768,/,196448,/,197128,/	t,t,t,t	<img class = center src='/static/experiments/beast_fmri_test/images/P.png'></img>	89,71	2750.0	test	<img class = center src='/static/experiments/beast_fmri_test/images/redP.png'></img>	go	2250.0	2.0	14.0	go	target	P	89,Middle Finger	71,Index Finger	500.0	500.0	2250.0	2250.0	1.0	n/a	500.0	1.0	ITI
81369	500	n/a	-1	-1	500	0.0	fixation	poldrack-single-stim	37	198295	0.0-7.15-0.15	beast_fmri_test	317	197810,/	t	<div class = centerbox2><div class = fixation>+</div></div>	none	500.0	test	n/a	n/a	n/a	n/a	n/a	n/a	n/a	n/a	n/a	n/a	n/a	n/a	n/a	n/a	n/a	n/a	n/a	n/a	fixation
80064.40455686691	500.0	n/a	-1	-1	2750	1305.59544313	stim	stop-signal	38	201046	0.0-7.15-1.15	beast_fmri_test	317	198486,/,199166,/,199847,/,200526,/,201205,/,201884,/	t,t,t,t,t,t	<img class = center src='/static/experiments/beast_fmri_test/images/V.png'></img>	89,71	2750.0	test	<img class = center src='/static/experiments/beast_fmri_test/images/redV.png'></img>	stop	2250.0	2.0	15.0	stop	non-target	V	89,Middle Finger	71,Index Finger	500.0	500.0	2250.0	2250.0	0.0	1.0	500.0	n/a	go_stim
82314.40455686691	2250.0	n/a	-1	-1	2750	1305.59544313	stim	stop-signal	38	201046	0.0-7.15-1.15	beast_fmri_test	317	198486,/,199166,/,199847,/,200526,/,201205,/,201884,/	t,t,t,t,t,t	<img class = center src='/static/experiments/beast_fmri_test/images/V.png'></img>	89,71	2750.0	test	<img class = center src='/static/experiments/beast_fmri_test/images/redV.png'></img>	stop	2250.0	2.0	15.0	stop	non-target	V	89,Middle Finger	71,Index Finger	500.0	500.0	2250.0	2250.0	0.0	1.0	500.0	n/a	stop_stim
82814.40455686691	1305.5954431330942	n/a	-1	-1	2750	1305.59544313	stim	stop-signal	38	201046	0.0-7.15-1.15	beast_fmri_test	317	198486,/,199166,/,199847,/,200526,/,201205,/,201884,/	t,t,t,t,t,t	<img class = center src='/static/experiments/beast_fmri_test/images/V.png'></img>	89,71	2750.0	test	<img class = center src='/static/experiments/beast_fmri_test/images/redV.png'></img>	stop	2250.0	2.0	15.0	stop	non-target	V	89,Middle Finger	71,Index Finger	500.0	500.0	2250.0	2250.0	0.0	1.0	500.0	n/a	ITI
85933	500	n/a	-1	-1	500	0.0	fixation	poldrack-single-stim	39	202859	0.0-7.16-0.16	beast_fmri_test	317	202565,/	t	<div class = centerbox2><div class = fixation>+</div></div>	none	500.0	test	n/a	n/a	n/a	n/a	n/a	n/a	n/a	n/a	n/a	n/a	n/a	n/a	n/a	n/a	n/a	n/a	n/a	n/a	fixation
82666.993845164834	2750	n/a	1374	71	2750	3267.00615484	stim	stop-signal	40	205610	0.0-7.16-1.16	beast_fmri_test	317	203243,/,203925,/,204603,/,205283,/,205963,/,206643,/,207323,/,208001,/,208681,/	t,t,t,t,t,t,t,t,t	<img class = center src='/static/experiments/beast_fmri_test/images/D.png'></img>	89,71	2750.0	test	<img class = center src='/static/experiments/beast_fmri_test/images/redD.png'></img>	go	2200.0	2.0	16.0	go	non-target	D	89,Middle Finger	71,Index Finger	500.0	550.0	2250.0	2200.0	1.0	n/a	550.0	1.0	go_stim
85416.993845164834	3267.0061548351678	n/a	1374	71	2750	3267.00615484	stim	stop-signal	40	205610	0.0-7.16-1.16	beast_fmri_test	317	203243,/,203925,/,204603,/,205283,/,205963,/,206643,/,207323,/,208001,/,208681,/	t,t,t,t,t,t,t,t,t	<img class = center src='/static/experiments/beast_fmri_test/images/D.png'></img>	89,71	2750.0	test	<img class = center src='/static/experiments/beast_fmri_test/images/redD.png'></img>	go	2200.0	2.0	16.0	go	non-target	D	89,Middle Finger	71,Index Finger	500.0	550.0	2250.0	2200.0	1.0	n/a	550.0	1.0	ITI
92456	500	n/a	-1	-1	500	0.0	fixation	poldrack-single-stim	41	209382	0.0-7.17-0.17	beast_fmri_test	317	209362,/	t	<div class = centerbox2><div class = fixation>+</div></div>	none	500.0	test	n/a	n/a	n/a	n/a	n/a	n/a	n/a	n/a	n/a	n/a	n/a	n/a	n/a	n/a	n/a	n/a	n/a	n/a	fixation
92065.460835630103	2750	n/a	1081	71	2750	391.53916437	stim	stop-signal	42	212133	0.0-7.17-1.17	beast_fmri_test	317	210041,/,210720,/,211400,/,212081,/	t,t,t,t	<img class = center src='/static/experiments/beast_fmri_test/images/B.png'></img>	89,71	2750.0	test	<img class = center src='/static/experiments/beast_fmri_test/images/redB.png'></img>	go	2200.0	2.0	17.0	go	non-target	B	89,Middle Finger	71,Index Finger	500.0	550.0	2250.0	2200.0	1.0	n/a	550.0	1.0	go_stim
94815.460835630103	391.53916436989886	n/a	1081	71	2750	391.53916437	stim	stop-signal	42	212133	0.0-7.17-1.17	beast_fmri_test	317	210041,/,210720,/,211400,/,212081,/	t,t,t,t	<img class = center src='/static/experiments/beast_fmri_test/images/B.png'></img>	89,71	2750.0	test	<img class = center src='/static/experiments/beast_fmri_test/images/redB.png'></img>	go	2200.0	2.0	17.0	go	non-target	B	89,Middle Finger	71,Index Finger	500.0	550.0	2250.0	2200.0	1.0	n/a	550.0	1.0	ITI
96110	500	n/a	-1	-1	500	0.0	fixation	poldrack-single-stim	43	213036	0.0-7.18-0.18	beast_fmri_test	317	212760,/	t	<div class = centerbox2><div class = fixation>+</div></div>	none	500.0	test	n/a	n/a	n/a	n/a	n/a	n/a	n/a	n/a	n/a	n/a	n/a	n/a	n/a	n/a	n/a	n/a	n/a	n/a	fixation
95792.149033358786	2750	n/a	1701	71	2750	320.850966641	stim	stop-signal	44	215789	0.0-7.18-1.18	beast_fmri_test	317	213439,/,214120,/,214798,/,215478,/	t,t,t,t	<img class = center src='/static/experiments/beast_fmri_test/images/V.png'></img>	89,71	2750.0	test	<img class = center src='/static/experiments/beast_fmri_test/images/redV.png'></img>	go	2200.0	2.0	18.0	go	non-target	V	89,Middle Finger	71,Index Finger	500.0	550.0	2250.0	2200.0	1.0	n/a	550.0	1.0	go_stim
98542.149033358786	320.85096664120232	n/a	1701	71	2750	320.850966641	stim	stop-signal	44	215789	0.0-7.18-1.18	beast_fmri_test	317	213439,/,214120,/,214798,/,215478,/	t,t,t,t	<img class = center src='/static/experiments/beast_fmri_test/images/V.png'></img>	89,71	2750.0	test	<img class = center src='/static/experiments/beast_fmri_test/images/redV.png'></img>	go	2200.0	2.0	18.0	go	non-target	V	89,Middle Finger	71,Index Finger	500.0	550.0	2250.0	2200.0	1.0	n/a	550.0	1.0	ITI
99692	500	n/a	-1	-1	500	0.0	fixation	poldrack-single-stim	45	216618	0.0-7.19-0.19	beast_fmri_test	317	216158,/	t	<div class = centerbox2><div class = fixation>+</div></div>	none	500.0	test	n/a	n/a	n/a	n/a	n/a	n/a	n/a	n/a	n/a	n/a	n/a	n/a	n/a	n/a	n/a	n/a	n/a	n/a	fixation
98681.941023747931	2750	n/a	2001	89	2750	1011.05897625	stim	stop-signal	46	219369	0.0-7.19-1.19	beast_fmri_test	317	216839,/,217516,/,218197,/,218877,/,219556,/,220236,/	t,t,t,t,t,t	<img class = center src='/static/experiments/beast_fmri_test/images/B.png'></img>	89,71	2750.0	test	<img class = center src='/static/experiments/beast_fmri_test/images/redB.png'></img>	go	2250.0	2.0	19.0	go	target	B	89,Middle Finger	71,Index Finger	500.0	550.0	2250.0	2200.0	1.0	n/a	500.0	1.0	go_stim
101431.94102374793	1011.05897625207	n/a	2001	89	2750	1011.05897625	stim	stop-signal	46	219369	0.0-7.19-1.19	beast_fmri_test	317	216839,/,217516,/,218197,/,218877,/,219556,/,220236,/	t,t,t,t,t,t	<img class = center src='/static/experiments/beast_fmri_test/images/B.png'></img>	89,71	2750.0	test	<img class = center src='/static/experiments/beast_fmri_test/images/redB.png'></img>	go	2250.0	2.0	19.0	go	target	B	89,Middle Finger	71,Index Finger	500.0	550.0	2250.0	2200.0	1.0	n/a	500.0	1.0	ITI
103966	500	n/a	-1	-1	500	0.0	fixation	poldrack-single-stim	47	220892	0.0-7.20-0.20	beast_fmri_test	317	n/a	n/a	<div class = centerbox2><div class = fixation>+</div></div>	none	500.0	test	n/a	n/a	n/a	n/a	n/a	n/a	n/a	n/a	n/a	n/a	n/a	n/a	n/a	n/a	n/a	n/a	n/a	n/a	fixation
101229.23053010408	2750	n/a	1437	89	2750	2737.7694699	stim	stop-signal	48	223643	0.0-7.20-1.20	beast_fmri_test	317	220918,/,221596,/,222276,/,222955,/,223634,/,224314,/,224995,/,225675,/,226353,/	t,t,t,t,t,t,t,t,t	<img class = center src='/static/experiments/beast_fmri_test/images/V.png'></img>	89,71	2750.0	test	<img class = center src='/static/experiments/beast_fmri_test/images/redV.png'></img>	go	2250.0	2.0	20.0	go	target	V	89,Middle Finger	71,Index Finger	500.0	550.0	2250.0	2200.0	1.0	n/a	500.0	1.0	go_stim
103979.23053010408	2737.7694698959322	n/a	1437	89	2750	2737.7694699	stim	stop-signal	48	223643	0.0-7.20-1.20	beast_fmri_test	317	220918,/,221596,/,222276,/,222955,/,223634,/,224314,/,224995,/,225675,/,226353,/	t,t,t,t,t,t,t,t,t	<img class = center src='/static/experiments/beast_fmri_test/images/V.png'></img>	89,71	2750.0	test	<img class = center src='/static/experiments/beast_fmri_test/images/redV.png'></img>	go	2250.0	2.0	20.0	go	target	V	89,Middle Finger	71,Index Finger	500.0	550.0	2250.0	2200.0	1.0	n/a	500.0	1.0	ITI
109962	500	n/a	-1	-1	500	0.0	fixation	poldrack-single-stim	49	226888	0.0-7.21-0.21	beast_fmri_test	317	n/a	n/a	<div class = centerbox2><div class = fixation>+</div></div>	none	500.0	test	n/a	n/a	n/a	n/a	n/a	n/a	n/a	n/a	n/a	n/a	n/a	n/a	n/a	n/a	n/a	n/a	n/a	n/a	fixation
109821.18861415042	500.0	n/a	-1	-1	2750	142.81138585	stim	stop-signal	50	229640	0.0-7.21-1.21	beast_fmri_test	317	227033,/,227713,/,228392,/,229073,/,229754,/	t,t,t,t,t	<img class = center src='/static/experiments/beast_fmri_test/images/B.png'></img>	89,71	2750.0	test	<img class = center src='/static/experiments/beast_fmri_test/images/redB.png'></img>	stop	2250.0	2.0	21.0	stop	target	B	89,Middle Finger	71,Index Finger	500.0	550.0	2250.0	2200.0	0.0	1.0	500.0	n/a	go_stim
112071.18861415042	2250.0	n/a	-1	-1	2750	142.81138585	stim	stop-signal	50	229640	0.0-7.21-1.21	beast_fmri_test	317	227033,/,227713,/,228392,/,229073,/,229754,/	t,t,t,t,t	<img class = center src='/static/experiments/beast_fmri_test/images/B.png'></img>	89,71	2750.0	test	<img class = center src='/static/experiments/beast_fmri_test/images/redB.png'></img>	stop	2250.0	2.0	21.0	stop	target	B	89,Middle Finger	71,Index Finger	500.0	550.0	2250.0	2200.0	0.0	1.0	500.0	n/a	stop_stim
112571.18861415042	142.81138584958825	n/a	-1	-1	2750	142.81138585	stim	stop-signal	50	229640	0.0-7.21-1.21	beast_fmri_test	317	227033,/,227713,/,228392,/,229073,/,229754,/	t,t,t,t,t	<img class = center src='/static/experiments/beast_fmri_test/images/B.png'></img>	89,71	2750.0	test	<img class = center src='/static/experiments/beast_fmri_test/images/redB.png'></img>	stop	2250.0	2.0	21.0	stop	target	B	89,Middle Finger	71,Index Finger	500.0	550.0	2250.0	2200.0	0.0	1.0	500.0	n/a	ITI
113365	500	n/a	-1	-1	500	0.0	fixation	poldrack-single-stim	51	230291	0.0-7.22-0.22	beast_fmri_test	317	n/a	n/a	<div class = centerbox2><div class = fixation>+</div></div>	none	500.0	test	n/a	n/a	n/a	n/a	n/a	n/a	n/a	n/a	n/a	n/a	n/a	n/a	n/a	n/a	n/a	n/a	n/a	n/a	fixation
113210.22063204553	2750	n/a	914	71	2750	154.779367954	stim	stop-signal	52	233041	0.0-7.22-1.22	beast_fmri_test	317	230431,/,231112,/,231790,/,232469,/,233150,/	t,t,t,t,t	<img class = center src='/static/experiments/beast_fmri_test/images/B.png'></img>	89,71	2750.0	test	<img class = center src='/static/experiments/beast_fmri_test/images/redB.png'></img>	go	2200.0	2.0	22.0	go	non-target	B	89,Middle Finger	71,Index Finger	550.0	550.0	2250.0	2200.0	1.0	n/a	550.0	1.0	go_stim
115960.22063204553	154.77936795446547	n/a	914	71	2750	154.779367954	stim	stop-signal	52	233041	0.0-7.22-1.22	beast_fmri_test	317	230431,/,231112,/,231790,/,232469,/,233150,/	t,t,t,t,t	<img class = center src='/static/experiments/beast_fmri_test/images/B.png'></img>	89,71	2750.0	test	<img class = center src='/static/experiments/beast_fmri_test/images/redB.png'></img>	go	2200.0	2.0	22.0	go	non-target	B	89,Middle Finger	71,Index Finger	550.0	550.0	2250.0	2200.0	1.0	n/a	550.0	1.0	ITI
116780	500	n/a	-1	-1	500	0.0	fixation	poldrack-single-stim	53	233706	0.0-7.23-0.23	beast_fmri_test	317	n/a	n/a	<div class = centerbox2><div class = fixation>+</div></div>	none	500.0	test	n/a	n/a	n/a	n/a	n/a	n/a	n/a	n/a	n/a	n/a	n/a	n/a	n/a	n/a	n/a	n/a	n/a	n/a	fixation
116245.02437746161	2750	n/a	1670	89	2750	534.975622538	stim	stop-signal	54	236456	0.0-7.23-1.23	beast_fmri_test	317	233831,/,234510,/,235189,/,235868,/,236547,/	t,t,t,t,t	<img class = center src='/static/experiments/beast_fmri_test/images/B.png'></img>	89,71	2750.0	test	<img class = center src='/static/experiments/beast_fmri_test/images/redB.png'></img>	go	2200.0	2.0	23.0	go	target	B	89,Middle Finger	71,Index Finger	550.0	550.0	2200.0	2200.0	1.0	n/a	550.0	1.0	go_stim
118995.02437746161	534.9756225383926	n/a	1670	89	2750	534.975622538	stim	stop-signal	54	236456	0.0-7.23-1.23	beast_fmri_test	317	233831,/,234510,/,235189,/,235868,/,236547,/	t,t,t,t,t	<img class = center src='/static/experiments/beast_fmri_test/images/B.png'></img>	89,71	2750.0	test	<img class = center src='/static/experiments/beast_fmri_test/images/redB.png'></img>	go	2200.0	2.0	23.0	go	target	B	89,Middle Finger	71,Index Finger	550.0	550.0	2200.0	2200.0	1.0	n/a	550.0	1.0	ITI
120577	500	n/a	-1	-1	500	0.0	fixation	poldrack-single-stim	55	237503	0.0-7.24-0.24	beast_fmri_test	317	237227,/	t	<div class = centerbox2><div class = fixation>+</div></div>	none	500.0	test	n/a	n/a	n/a	n/a	n/a	n/a	n/a	n/a	n/a	n/a	n/a	n/a	n/a	n/a	n/a	n/a	n/a	n/a	fixation
116139.66920491689	550.0	n/a	-1	-1	2750	4438.33079508	stim	stop-signal	56	240254	0.0-7.24-1.24	beast_fmri_test	317	237908,/,238587,/,239267,/,239948,/,240626,/,241306,/,241986,/,242666,/,243345,/,244025,/	t,t,t,t,t,t,t,t,t,t	<img class = center src='/static/experiments/beast_fmri_test/images/B.png'></img>	89,71	2750.0	test	<img class = center src='/static/experiments/beast_fmri_test/images/redB.png'></img>	stop	2200.0	2.0	24.0	stop	target	B	89,Middle Finger	71,Index Finger	550.0	550.0	2200.0	2200.0	0.0	1.0	550.0	n/a	go_stim
118339.66920491689	2200.0	n/a	-1	-1	2750	4438.33079508	stim	stop-signal	56	240254	0.0-7.24-1.24	beast_fmri_test	317	237908,/,238587,/,239267,/,239948,/,240626,/,241306,/,241986,/,242666,/,243345,/,244025,/	t,t,t,t,t,t,t,t,t,t	<img class = center src='/static/experiments/beast_fmri_test/images/B.png'></img>	89,71	2750.0	test	<img class = center src='/static/experiments/beast_fmri_test/images/redB.png'></img>	stop	2200.0	2.0	24.0	stop	target	B	89,Middle Finger	71,Index Finger	550.0	550.0	2200.0	2200.0	0.0	1.0	550.0	n/a	stop_stim
118889.66920491689	4438.3307950831122	n/a	-1	-1	2750	4438.33079508	stim	stop-signal	56	240254	0.0-7.24-1.24	beast_fmri_test	317	237908,/,238587,/,239267,/,239948,/,240626,/,241306,/,241986,/,242666,/,243345,/,244025,/	t,t,t,t,t,t,t,t,t,t	<img class = center src='/static/experiments/beast_fmri_test/images/B.png'></img>	89,71	2750.0	test	<img class = center src='/static/experiments/beast_fmri_test/images/redB.png'></img>	stop	2200.0	2.0	24.0	stop	target	B	89,Middle Finger	71,Index Finger	550.0	550.0	2200.0	2200.0	0.0	1.0	550.0	n/a	ITI
128274	500	n/a	-1	-1	500	0.0	fixation	poldrack-single-stim	57	245200	0.0-7.25-0.25	beast_fmri_test	317	244706,/	t	<div class = centerbox2><div class = fixation>+</div></div>	none	500.0	test	n/a	n/a	n/a	n/a	n/a	n/a	n/a	n/a	n/a	n/a	n/a	n/a	n/a	n/a	n/a	n/a	n/a	n/a	fixation
125617.18398653215	2750	n/a	861	71	2750	2658.81601347	stim	stop-signal	58	247952	0.0-7.25-1.25	beast_fmri_test	317	245384,/,246063,/,246742,/,247422,/,248103,/,248782,/,249462,/,250141,/	t,t,t,t,t,t,t,t	<img class = center src='/static/experiments/beast_fmri_test/images/D.png'></img>	89,71	2750.0	test	<img class = center src='/static/experiments/beast_fmri_test/images/redD.png'></img>	go	2200.0	2.0	25.0	go	non-target	D	89,Middle Finger	71,Index Finger	600.0	550.0	2200.0	2200.0	1.0	n/a	550.0	1.0	go_stim
128367.18398653215	2658.8160134678487	n/a	861	71	2750	2658.81601347	stim	stop-signal	58	247952	0.0-7.25-1.25	beast_fmri_test	317	245384,/,246063,/,246742,/,247422,/,248103,/,248782,/,249462,/,250141,/	t,t,t,t,t,t,t,t	<img class = center src='/static/experiments/beast_fmri_test/images/D.png'></img>	89,71	2750.0	test	<img class = center src='/static/experiments/beast_fmri_test/images/redD.png'></img>	go	2200.0	2.0	25.0	go	non-target	D	89,Middle Finger	71,Index Finger	600.0	550.0	2200.0	2200.0	1.0	n/a	550.0	1.0	ITI
134194	500	n/a	-1	-1	500	0.0	fixation	poldrack-single-stim	59	251120	0.0-7.26-0.26	beast_fmri_test	317	250824,/	t	<div class = centerbox2><div class = fixation>+</div></div>	none	500.0	test	n/a	n/a	n/a	n/a	n/a	n/a	n/a	n/a	n/a	n/a	n/a	n/a	n/a	n/a	n/a	n/a	n/a	n/a	fixation
133920.18030561699	2750	n/a	1182	71	2750	274.819694383	stim	stop-signal	60	253871	0.0-7.26-1.26	beast_fmri_test	317	251502,/,252182,/,252862,/,253542,/	t,t,t,t	<img class = center src='/static/experiments/beast_fmri_test/images/V.png'></img>	89,71	2750.0	test	<img class = center src='/static/experiments/beast_fmri_test/images/redV.png'></img>	go	2200.0	2.0	26.0	go	non-target	V	89,Middle Finger	71,Index Finger	600.0	550.0	2200.0	2200.0	1.0	n/a	550.0	1.0	go_stim
136670.18030561699	274.81969438301439	n/a	1182	71	2750	274.819694383	stim	stop-signal	60	253871	0.0-7.26-1.26	beast_fmri_test	317	251502,/,252182,/,252862,/,253542,/	t,t,t,t	<img class = center src='/static/experiments/beast_fmri_test/images/V.png'></img>	89,71	2750.0	test	<img class = center src='/static/experiments/beast_fmri_test/images/redV.png'></img>	go	2200.0	2.0	26.0	go	non-target	V	89,Middle Finger	71,Index Finger	600.0	550.0	2200.0	2200.0	1.0	n/a	550.0	1.0	ITI
137731	500	n/a	-1	-1	500	0.0	fixation	poldrack-single-stim	61	254657	0.0-7.27-0.27	beast_fmri_test	317	254220,/	t	<div class = centerbox2><div class = fixation>+</div></div>	none	500.0	test	n/a	n/a	n/a	n/a	n/a	n/a	n/a	n/a	n/a	n/a	n/a	n/a	n/a	n/a	n/a	n/a	n/a	n/a	fixation
137256.43405197706	600.0	n/a	-1	-1	2750	476.565948023	stim	stop-signal	62	257409	0.0-7.27-1.27	beast_fmri_test	317	254901,/,255582,/,256259,/,256940,/,257619,/	t,t,t,t,t	<img class = center src='/static/experiments/beast_fmri_test/images/D.png'></img>	89,71	2750.0	test	<img class = center src='/static/experiments/beast_fmri_test/images/redD.png'></img>	stop	2150.0	2.0	27.0	stop	target	D	89,Middle Finger	71,Index Finger	600.0	550.0	2150.0	2200.0	0.0	1.0	600.0	n/a	go_stim
139406.43405197706	2150.0	n/a	-1	-1	2750	476.565948023	stim	stop-signal	62	257409	0.0-7.27-1.27	beast_fmri_test	317	254901,/,255582,/,256259,/,256940,/,257619,/	t,t,t,t,t	<img class = center src='/static/experiments/beast_fmri_test/images/D.png'></img>	89,71	2750.0	test	<img class = center src='/static/experiments/beast_fmri_test/images/redD.png'></img>	stop	2150.0	2.0	27.0	stop	target	D	89,Middle Finger	71,Index Finger	600.0	550.0	2150.0	2200.0	0.0	1.0	600.0	n/a	stop_stim
140006.43405197706	476.56594802292261	n/a	-1	-1	2750	476.565948023	stim	stop-signal	62	257409	0.0-7.27-1.27	beast_fmri_test	317	254901,/,255582,/,256259,/,256940,/,257619,/	t,t,t,t,t	<img class = center src='/static/experiments/beast_fmri_test/images/D.png'></img>	89,71	2750.0	test	<img class = center src='/static/experiments/beast_fmri_test/images/redD.png'></img>	stop	2150.0	2.0	27.0	stop	target	D	89,Middle Finger	71,Index Finger	600.0	550.0	2150.0	2200.0	0.0	1.0	600.0	n/a	ITI
141470	500	n/a	-1	-1	500	0.0	fixation	poldrack-single-stim	63	258396	0.0-7.28-0.28	beast_fmri_test	317	258299,/	t	<div class = centerbox2><div class = fixation>+</div></div>	none	500.0	test	n/a	n/a	n/a	n/a	n/a	n/a	n/a	n/a	n/a	n/a	n/a	n/a	n/a	n/a	n/a	n/a	n/a	n/a	fixation
139993.24415310379	2750	n/a	989	89	2750	1478.7558469	stim	stop-signal	64	261148	0.0-7.28-1.28	beast_fmri_test	317	258978,/,259657,/,260338,/,261017,/,261697,/,262378,/	t,t,t,t,t,t	<img class = center src='/static/experiments/beast_fmri_test/images/V.png'></img>	89,71	2750.0	test	<img class = center src='/static/experiments/beast_fmri_test/images/redV.png'></img>	go	2100.0	2.0	28.0	go	target	V	89,Middle Finger	71,Index Finger	650.0	550.0	2100.0	2200.0	1.0	n/a	650.0	1.0	go_stim
142743.24415310379	1478.7558468962204	n/a	989	89	2750	1478.7558469	stim	stop-signal	64	261148	0.0-7.28-1.28	beast_fmri_test	317	258978,/,259657,/,260338,/,261017,/,261697,/,262378,/	t,t,t,t,t,t	<img class = center src='/static/experiments/beast_fmri_test/images/V.png'></img>	89,71	2750.0	test	<img class = center src='/static/experiments/beast_fmri_test/images/redV.png'></img>	go	2100.0	2.0	28.0	go	target	V	89,Middle Finger	71,Index Finger	650.0	550.0	2100.0	2200.0	1.0	n/a	650.0	1.0	ITI
146212	500	n/a	-1	-1	500	0.0	fixation	poldrack-single-stim	65	263138	0.0-7.29-0.29	beast_fmri_test	317	263057,/	t	<div class = centerbox2><div class = fixation>+</div></div>	none	500.0	test	n/a	n/a	n/a	n/a	n/a	n/a	n/a	n/a	n/a	n/a	n/a	n/a	n/a	n/a	n/a	n/a	n/a	n/a	fixation
145899.17362551304	550.0	n/a	-1	-1	2750	313.826374487	stim	stop-signal	66	265889	0.0-7.29-1.29	beast_fmri_test	317	263736,/,264415,/,265096,/,265775,/	t,t,t,t	<img class = center src='/static/experiments/beast_fmri_test/images/V.png'></img>	89,71	2750.0	test	<img class = center src='/static/experiments/beast_fmri_test/images/redV.png'></img>	stop	2200.0	2.0	29.0	stop	non-target	V	89,Middle Finger	71,Index Finger	650.0	550.0	2100.0	2200.0	0.0	1.0	550.0	n/a	go_stim
148099.17362551304	2200.0	n/a	-1	-1	2750	313.826374487	stim	stop-signal	66	265889	0.0-7.29-1.29	beast_fmri_test	317	263736,/,264415,/,265096,/,265775,/	t,t,t,t	<img class = center src='/static/experiments/beast_fmri_test/images/V.png'></img>	89,71	2750.0	test	<img class = center src='/static/experiments/beast_fmri_test/images/redV.png'></img>	stop	2200.0	2.0	29.0	stop	non-target	V	89,Middle Finger	71,Index Finger	650.0	550.0	2100.0	2200.0	0.0	1.0	550.0	n/a	stop_stim
148649.17362551304	313.82637448695891	n/a	-1	-1	2750	313.826374487	stim	stop-signal	66	265889	0.0-7.29-1.29	beast_fmri_test	317	263736,/,264415,/,265096,/,265775,/	t,t,t,t	<img class = center src='/static/experiments/beast_fmri_test/images/V.png'></img>	89,71	2750.0	test	<img class = center src='/static/experiments/beast_fmri_test/images/redV.png'></img>	stop	2200.0	2.0	29.0	stop	non-target	V	89,Middle Finger	71,Index Finger	650.0	550.0	2100.0	2200.0	0.0	1.0	550.0	n/a	ITI
149788	500	n/a	-1	-1	500	0.0	fixation	poldrack-single-stim	67	266714	0.0-7.30-0.30	beast_fmri_test	317	266456,/	t	<div class = centerbox2><div class = fixation>+</div></div>	none	500.0	test	n/a	n/a	n/a	n/a	n/a	n/a	n/a	n/a	n/a	n/a	n/a	n/a	n/a	n/a	n/a	n/a	n/a	n/a	fixation
149168.98527993419	2750	n/a	1364	89	2750	622.014720066	stim	stop-signal	68	269467	0.0-7.30-1.30	beast_fmri_test	317	267134,/,267815,/,268495,/,269173,/,269854,/	t,t,t,t,t	<img class = center src='/static/experiments/beast_fmri_test/images/V.png'></img>	89,71	2750.0	test	<img class = center src='/static/experiments/beast_fmri_test/images/redV.png'></img>	go	2100.0	2.0	30.0	go	target	V	89,Middle Finger	71,Index Finger	650.0	600.0	2100.0	2200.0	1.0	n/a	650.0	1.0	go_stim
151918.98527993419	622.01472006583026	n/a	1364	89	2750	622.014720066	stim	stop-signal	68	269467	0.0-7.30-1.30	beast_fmri_test	317	267134,/,267815,/,268495,/,269173,/,269854,/	t,t,t,t,t	<img class = center src='/static/experiments/beast_fmri_test/images/V.png'></img>	89,71	2750.0	test	<img class = center src='/static/experiments/beast_fmri_test/images/redV.png'></img>	go	2100.0	2.0	30.0	go	target	V	89,Middle Finger	71,Index Finger	650.0	600.0	2100.0	2200.0	1.0	n/a	650.0	1.0	ITI
153679	500	n/a	-1	-1	500	0.0	fixation	poldrack-single-stim	69	270605	0.0-7.31-0.31	beast_fmri_test	317	270534,/	t	<div class = centerbox2><div class = fixation>+</div></div>	none	500.0	test	n/a	n/a	n/a	n/a	n/a	n/a	n/a	n/a	n/a	n/a	n/a	n/a	n/a	n/a	n/a	n/a	n/a	n/a	fixation
153180.24529326643	2750	n/a	1087	89	2750	500.754706734	stim	stop-signal	70	273357	0.0-7.31-1.31	beast_fmri_test	317	271213,/,271893,/,272572,/,273251,/	t,t,t,t	<img class = center src='/static/experiments/beast_fmri_test/images/V.png'></img>	89,71	2750.0	test	<img class = center src='/static/experiments/beast_fmri_test/images/redV.png'></img>	go	2100.0	2.0	31.0	go	target	V	89,Middle Finger	71,Index Finger	650.0	600.0	2100.0	2200.0	1.0	n/a	650.0	1.0	go_stim
155930.24529326643	500.75470673357455	n/a	1087	89	2750	500.754706734	stim	stop-signal	70	273357	0.0-7.31-1.31	beast_fmri_test	317	271213,/,271893,/,272572,/,273251,/	t,t,t,t	<img class = center src='/static/experiments/beast_fmri_test/images/V.png'></img>	89,71	2750.0	test	<img class = center src='/static/experiments/beast_fmri_test/images/redV.png'></img>	go	2100.0	2.0	31.0	go	target	V	89,Middle Finger	71,Index Finger	650.0	600.0	2100.0	2200.0	1.0	n/a	650.0	1.0	ITI
157443	500	n/a	-1	-1	500	0.0	fixation	poldrack-single-stim	71	274369	0.0-7.32-0.32	beast_fmri_test	317	273931,/	t	<div class = centerbox2><div class = fixation>+</div></div>	none	500.0	test	n/a	n/a	n/a	n/a	n/a	n/a	n/a	n/a	n/a	n/a	n/a	n/a	n/a	n/a	n/a	n/a	n/a	n/a	fixation
156710.94161889958	600.0	n/a	-1	-1	2750	733.0583811	stim	stop-signal	72	277120	0.0-7.32-1.32	beast_fmri_test	317	274611,/,275290,/,275970,/,276651,/,277330,/	t,t,t,t,t	<img class = center src='/static/experiments/beast_fmri_test/images/B.png'></img>	89,71	2750.0	test	<img class = center src='/static/experiments/beast_fmri_test/images/redB.png'></img>	stop	2150.0	2.0	32.0	stop	non-target	B	89,Middle Finger	71,Index Finger	650.0	600.0	2100.0	2150.0	0.0	1.0	600.0	n/a	go_stim
158860.94161889958	2150.0	n/a	-1	-1	2750	733.0583811	stim	stop-signal	72	277120	0.0-7.32-1.32	beast_fmri_test	317	274611,/,275290,/,275970,/,276651,/,277330,/	t,t,t,t,t	<img class = center src='/static/experiments/beast_fmri_test/images/B.png'></img>	89,71	2750.0	test	<img class = center src='/static/experiments/beast_fmri_test/images/redB.png'></img>	stop	2150.0	2.0	32.0	stop	non-target	B	89,Middle Finger	71,Index Finger	650.0	600.0	2100.0	2150.0	0.0	1.0	600.0	n/a	stop_stim
159460.94161889958	733.0583811004085	n/a	-1	-1	2750	733.0583811	stim	stop-signal	72	277120	0.0-7.32-1.32	beast_fmri_test	317	274611,/,275290,/,275970,/,276651,/,277330,/	t,t,t,t,t	<img class = center src='/static/experiments/beast_fmri_test/images/B.png'></img>	89,71	2750.0	test	<img class = center src='/static/experiments/beast_fmri_test/images/redB.png'></img>	stop	2150.0	2.0	32.0	stop	non-target	B	89,Middle Finger	71,Index Finger	650.0	600.0	2100.0	2150.0	0.0	1.0	600.0	n/a	ITI
161440	500	n/a	-1	-1	500	0.0	fixation	poldrack-single-stim	73	278366	0.0-7.33-0.33	beast_fmri_test	317	278010,/	t	<div class = centerbox2><div class = fixation>+</div></div>	none	500.0	test	n/a	n/a	n/a	n/a	n/a	n/a	n/a	n/a	n/a	n/a	n/a	n/a	n/a	n/a	n/a	n/a	n/a	n/a	fixation
160901.47115194838	2750	n/a	999	71	2750	540.528848052	stim	stop-signal	74	281118	0.0-7.33-1.33	beast_fmri_test	317	278689,/,279368,/,280050,/,280729,/,281408,/	t,t,t,t,t	<img class = center src='/static/experiments/beast_fmri_test/images/D.png'></img>	89,71	2750.0	test	<img class = center src='/static/experiments/beast_fmri_test/images/redD.png'></img>	go	2100.0	2.0	33.0	go	non-target	D	89,Middle Finger	71,Index Finger	650.0	650.0	2100.0	2100.0	1.0	n/a	650.0	1.0	go_stim
163651.47115194838	540.52884805161341	n/a	999	71	2750	540.528848052	stim	stop-signal	74	281118	0.0-7.33-1.33	beast_fmri_test	317	278689,/,279368,/,280050,/,280729,/,281408,/	t,t,t,t,t	<img class = center src='/static/experiments/beast_fmri_test/images/D.png'></img>	89,71	2750.0	test	<img class = center src='/static/experiments/beast_fmri_test/images/redD.png'></img>	go	2100.0	2.0	33.0	go	non-target	D	89,Middle Finger	71,Index Finger	650.0	650.0	2100.0	2100.0	1.0	n/a	650.0	1.0	ITI
165248	500	n/a	-1	-1	500	0.0	fixation	poldrack-single-stim	75	282174	0.0-7.34-0.34	beast_fmri_test	317	282088,/	t	<div class = centerbox2><div class = fixation>+</div></div>	none	500.0	test	n/a	n/a	n/a	n/a	n/a	n/a	n/a	n/a	n/a	n/a	n/a	n/a	n/a	n/a	n/a	n/a	n/a	n/a	fixation
163733.46130869107	650.0	n/a	-1	-1	2750	1514.53869131	stim	stop-signal	76	284924	0.0-7.34-1.34	beast_fmri_test	317	282767,/,283448,/,284127,/,284807,/,285487,/,286166,/	t,t,t,t,t,t	<img class = center src='/static/experiments/beast_fmri_test/images/B.png'></img>	89,71	2750.0	test	<img class = center src='/static/experiments/beast_fmri_test/images/redB.png'></img>	stop	2100.0	2.0	34.0	stop	target	B	89,Middle Finger	71,Index Finger	650.0	650.0	2100.0	2100.0	0.0	1.0	650.0	n/a	go_stim
165833.46130869107	2100.0	n/a	-1	-1	2750	1514.53869131	stim	stop-signal	76	284924	0.0-7.34-1.34	beast_fmri_test	317	282767,/,283448,/,284127,/,284807,/,285487,/,286166,/	t,t,t,t,t,t	<img class = center src='/static/experiments/beast_fmri_test/images/B.png'></img>	89,71	2750.0	test	<img class = center src='/static/experiments/beast_fmri_test/images/redB.png'></img>	stop	2100.0	2.0	34.0	stop	target	B	89,Middle Finger	71,Index Finger	650.0	650.0	2100.0	2100.0	0.0	1.0	650.0	n/a	stop_stim
166483.46130869107	1514.5386913089394	n/a	-1	-1	2750	1514.53869131	stim	stop-signal	76	284924	0.0-7.34-1.34	beast_fmri_test	317	282767,/,283448,/,284127,/,284807,/,285487,/,286166,/	t,t,t,t,t,t	<img class = center src='/static/experiments/beast_fmri_test/images/B.png'></img>	89,71	2750.0	test	<img class = center src='/static/experiments/beast_fmri_test/images/redB.png'></img>	stop	2100.0	2.0	34.0	stop	target	B	89,Middle Finger	71,Index Finger	650.0	650.0	2100.0	2100.0	0.0	1.0	650.0	n/a	ITI
170024	500	n/a	-1	-1	500	0.0	fixation	poldrack-single-stim	77	286950	0.0-7.35-0.35	beast_fmri_test	317	286845,/	t	<div class = centerbox2><div class = fixation>+</div></div>	none	500.0	test	n/a	n/a	n/a	n/a	n/a	n/a	n/a	n/a	n/a	n/a	n/a	n/a	n/a	n/a	n/a	n/a	n/a	n/a	fixation
169871.02356046916	2750	n/a	1440	89	2750	154.976439531	stim	stop-signal	78	289702	0.0-7.35-1.35	beast_fmri_test	317	287525,/,288205,/,288884,/,289565,/	t,t,t,t	<img class = center src='/static/experiments/beast_fmri_test/images/D.png'></img>	89,71	2750.0	test	<img class = center src='/static/experiments/beast_fmri_test/images/redD.png'></img>	go	2050.0	2.0	35.0	go	target	D	89,Middle Finger	71,Index Finger	700.0	650.0	2050.0	2100.0	1.0	n/a	700.0	1.0	go_stim
172621.02356046916	154.97643953083457	n/a	1440	89	2750	154.976439531	stim	stop-signal	78	289702	0.0-7.35-1.35	beast_fmri_test	317	287525,/,288205,/,288884,/,289565,/	t,t,t,t	<img class = center src='/static/experiments/beast_fmri_test/images/D.png'></img>	89,71	2750.0	test	<img class = center src='/static/experiments/beast_fmri_test/images/redD.png'></img>	go	2050.0	2.0	35.0	go	target	D	89,Middle Finger	71,Index Finger	700.0	650.0	2050.0	2100.0	1.0	n/a	700.0	1.0	ITI
173441	500	n/a	-1	-1	500	0.0	fixation	poldrack-single-stim	79	290367	0.0-7.36-0.36	beast_fmri_test	317	290244,/	t	<div class = centerbox2><div class = fixation>+</div></div>	none	500.0	test	n/a	n/a	n/a	n/a	n/a	n/a	n/a	n/a	n/a	n/a	n/a	n/a	n/a	n/a	n/a	n/a	n/a	n/a	fixation
172628.17663122172	650.0	n/a	1059	71	2750	814.823368778	stim	stop-signal	80	293119	0.0-7.36-1.36	beast_fmri_test	317	290923,/,291603,/,292283,/,292962,/,293643,/	t,t,t,t,t	<img class = center src='/static/experiments/beast_fmri_test/images/T.png'></img>	89,71	2750.0	test	<img class = center src='/static/experiments/beast_fmri_test/images/redT.png'></img>	stop	2100.0	2.0	36.0	stop	non-target	T	89,Middle Finger	71,Index Finger	700.0	650.0	2050.0	2100.0	0.0	0.0	650.0	n/a	go_stim
174728.17663122172	2100.0	n/a	1059	71	2750	814.823368778	stim	stop-signal	80	293119	0.0-7.36-1.36	beast_fmri_test	317	290923,/,291603,/,292283,/,292962,/,293643,/	t,t,t,t,t	<img class = center src='/static/experiments/beast_fmri_test/images/T.png'></img>	89,71	2750.0	test	<img class = center src='/static/experiments/beast_fmri_test/images/redT.png'></img>	stop	2100.0	2.0	36.0	stop	non-target	T	89,Middle Finger	71,Index Finger	700.0	650.0	2050.0	2100.0	0.0	0.0	650.0	n/a	stop_stim
175378.17663122172	814.82336877829653	n/a	1059	71	2750	814.823368778	stim	stop-signal	80	293119	0.0-7.36-1.36	beast_fmri_test	317	290923,/,291603,/,292283,/,292962,/,293643,/	t,t,t,t,t	<img class = center src='/static/experiments/beast_fmri_test/images/T.png'></img>	89,71	2750.0	test	<img class = center src='/static/experiments/beast_fmri_test/images/redT.png'></img>	stop	2100.0	2.0	36.0	stop	non-target	T	89,Middle Finger	71,Index Finger	700.0	650.0	2050.0	2100.0	0.0	0.0	650.0	n/a	ITI
177521	500	n/a	-1	-1	500	0.0	fixation	poldrack-single-stim	81	294447	0.0-7.37-0.37	beast_fmri_test	317	294322,/	t	<div class = centerbox2><div class = fixation>+</div></div>	none	500.0	test	n/a	n/a	n/a	n/a	n/a	n/a	n/a	n/a	n/a	n/a	n/a	n/a	n/a	n/a	n/a	n/a	n/a	n/a	fixation
176013.17303109664	600.0	n/a	-1	-1	2750	1509.8269689	stim	stop-signal	82	297199	0.0-7.37-1.37	beast_fmri_test	317	295002,/,295681,/,296362,/,297041,/,297720,/,298400,/	t,t,t,t,t,t	<img class = center src='/static/experiments/beast_fmri_test/images/B.png'></img>	89,71	2750.0	test	<img class = center src='/static/experiments/beast_fmri_test/images/redB.png'></img>	stop	2150.0	2.0	37.0	stop	non-target	B	89,Middle Finger	71,Index Finger	700.0	600.0	2050.0	2150.0	0.0	1.0	600.0	n/a	go_stim
178163.17303109664	2150.0	n/a	-1	-1	2750	1509.8269689	stim	stop-signal	82	297199	0.0-7.37-1.37	beast_fmri_test	317	295002,/,295681,/,296362,/,297041,/,297720,/,298400,/	t,t,t,t,t,t	<img class = center src='/static/experiments/beast_fmri_test/images/B.png'></img>	89,71	2750.0	test	<img class = center src='/static/experiments/beast_fmri_test/images/redB.png'></img>	stop	2150.0	2.0	37.0	stop	non-target	B	89,Middle Finger	71,Index Finger	700.0	600.0	2050.0	2150.0	0.0	1.0	600.0	n/a	stop_stim
178763.17303109664	1509.8269689033664	n/a	-1	-1	2750	1509.8269689	stim	stop-signal	82	297199	0.0-7.37-1.37	beast_fmri_test	317	295002,/,295681,/,296362,/,297041,/,297720,/,298400,/	t,t,t,t,t,t	<img class = center src='/static/experiments/beast_fmri_test/images/B.png'></img>	89,71	2750.0	test	<img class = center src='/static/experiments/beast_fmri_test/images/redB.png'></img>	stop	2150.0	2.0	37.0	stop	non-target	B	89,Middle Finger	71,Index Finger	700.0	600.0	2050.0	2150.0	0.0	1.0	600.0	n/a	ITI
182295	500	n/a	-1	-1	500	0.0	fixation	poldrack-single-stim	83	299221	0.0-7.38-0.38	beast_fmri_test	317	299080,/	t	<div class = centerbox2><div class = fixation>+</div></div>	none	500.0	test	n/a	n/a	n/a	n/a	n/a	n/a	n/a	n/a	n/a	n/a	n/a	n/a	n/a	n/a	n/a	n/a	n/a	n/a	fixation
181984.16251936858	650.0	n/a	-1	-1	2750	313.837480631	stim	stop-signal	84	301974	0.0-7.38-1.38	beast_fmri_test	317	299759,/,300439,/,301119,/,301798,/	t,t,t,t	<img class = center src='/static/experiments/beast_fmri_test/images/V.png'></img>	89,71	2750.0	test	<img class = center src='/static/experiments/beast_fmri_test/images/redV.png'></img>	stop	2100.0	2.0	38.0	stop	non-target	V	89,Middle Finger	71,Index Finger	700.0	650.0	2050.0	2100.0	0.0	1.0	650.0	n/a	go_stim
184084.16251936858	2100.0	n/a	-1	-1	2750	313.837480631	stim	stop-signal	84	301974	0.0-7.38-1.38	beast_fmri_test	317	299759,/,300439,/,301119,/,301798,/	t,t,t,t	<img class = center src='/static/experiments/beast_fmri_test/images/V.png'></img>	89,71	2750.0	test	<img class = center src='/static/experiments/beast_fmri_test/images/redV.png'></img>	stop	2100.0	2.0	38.0	stop	non-target	V	89,Middle Finger	71,Index Finger	700.0	650.0	2050.0	2100.0	0.0	1.0	650.0	n/a	stop_stim
184734.16251936858	313.83748063142826	n/a	-1	-1	2750	313.837480631	stim	stop-signal	84	301974	0.0-7.38-1.38	beast_fmri_test	317	299759,/,300439,/,301119,/,301798,/	t,t,t,t	<img class = center src='/static/experiments/beast_fmri_test/images/V.png'></img>	89,71	2750.0	test	<img class = center src='/static/experiments/beast_fmri_test/images/redV.png'></img>	stop	2100.0	2.0	38.0	stop	non-target	V	89,Middle Finger	71,Index Finger	700.0	650.0	2050.0	2100.0	0.0	1.0	650.0	n/a	ITI
185874	500	n/a	-1	-1	500	0.0	fixation	poldrack-single-stim	85	302800	0.0-7.39-0.39	beast_fmri_test	317	302477,/	t	<div class = centerbox2><div class = fixation>+</div></div>	none	500.0	test	n/a	n/a	n/a	n/a	n/a	n/a	n/a	n/a	n/a	n/a	n/a	n/a	n/a	n/a	n/a	n/a	n/a	n/a	fixation
185340.70342993492	2750	n/a	1295	89	2750	534.296570065	stim	stop-signal	86	305551	0.0-7.39-1.39	beast_fmri_test	317	303159,/,303838,/,304517,/,305196,/,305877,/	t,t,t,t,t	<img class = center src='/static/experiments/beast_fmri_test/images/V.png'></img>	89,71	2750.0	test	<img class = center src='/static/experiments/beast_fmri_test/images/redV.png'></img>	go	2050.0	2.0	39.0	go	non-target	V	89,Middle Finger	71,Index Finger	700.0	700.0	2050.0	2050.0	0.0	n/a	700.0	0.0	go_stim
188090.70342993492	534.2965700650816	n/a	1295	89	2750	534.296570065	stim	stop-signal	86	305551	0.0-7.39-1.39	beast_fmri_test	317	303159,/,303838,/,304517,/,305196,/,305877,/	t,t,t,t,t	<img class = center src='/static/experiments/beast_fmri_test/images/V.png'></img>	89,71	2750.0	test	<img class = center src='/static/experiments/beast_fmri_test/images/redV.png'></img>	go	2050.0	2.0	39.0	go	non-target	V	89,Middle Finger	71,Index Finger	700.0	700.0	2050.0	2050.0	0.0	n/a	700.0	0.0	ITI
189677	500	n/a	-1	-1	500	0.0	fixation	poldrack-single-stim	87	306603	0.0-7.40-0.40	beast_fmri_test	317	306555,/	t	<div class = centerbox2><div class = fixation>+</div></div>	none	500.0	test	n/a	n/a	n/a	n/a	n/a	n/a	n/a	n/a	n/a	n/a	n/a	n/a	n/a	n/a	n/a	n/a	n/a	n/a	fixation
188671.59889122669	2750	n/a	1524	71	2750	1006.40110877	stim	stop-signal	88	309354	0.0-7.40-1.40	beast_fmri_test	317	307237,/,307916,/,308596,/,309275,/,309955,/	t,t,t,t,t	<img class = center src='/static/experiments/beast_fmri_test/images/D.png'></img>	89,71	2750.0	test	<img class = center src='/static/experiments/beast_fmri_test/images/redD.png'></img>	go	2050.0	2.0	40.0	go	non-target	D	89,Middle Finger	71,Index Finger	700.0	700.0	2050.0	2050.0	1.0	n/a	700.0	1.0	go_stim
191421.59889122669	1006.4011087733188	n/a	1524	71	2750	1006.40110877	stim	stop-signal	88	309354	0.0-7.40-1.40	beast_fmri_test	317	307237,/,307916,/,308596,/,309275,/,309955,/	t,t,t,t,t	<img class = center src='/static/experiments/beast_fmri_test/images/D.png'></img>	89,71	2750.0	test	<img class = center src='/static/experiments/beast_fmri_test/images/redD.png'></img>	go	2050.0	2.0	40.0	go	non-target	D	89,Middle Finger	71,Index Finger	700.0	700.0	2050.0	2050.0	1.0	n/a	700.0	1.0	ITI
193947	500	n/a	-1	-1	500	0.0	fixation	poldrack-single-stim	89	310873	0.0-7.41-0.41	beast_fmri_test	317	310634,/	t	<div class = centerbox2><div class = fixation>+</div></div>	none	500.0	test	n/a	n/a	n/a	n/a	n/a	n/a	n/a	n/a	n/a	n/a	n/a	n/a	n/a	n/a	n/a	n/a	n/a	n/a	fixation
193836.09087819461	2750	n/a	1311	71	2750	112.909121805	stim	stop-signal	90	313625	0.0-7.41-1.41	beast_fmri_test	317	311314,/,311993,/,312673,/,313353,/	t,t,t,t	<img class = center src='/static/experiments/beast_fmri_test/images/B.png'></img>	89,71	2750.0	test	<img class = center src='/static/experiments/beast_fmri_test/images/redB.png'></img>	go	2050.0	2.0	41.0	go	non-target	B	89,Middle Finger	71,Index Finger	700.0	700.0	2050.0	2050.0	1.0	n/a	700.0	1.0	go_stim
196586.09087819461	112.90912180539692	n/a	1311	71	2750	112.909121805	stim	stop-signal	90	313625	0.0-7.41-1.41	beast_fmri_test	317	311314,/,311993,/,312673,/,313353,/	t,t,t,t	<img class = center src='/static/experiments/beast_fmri_test/images/B.png'></img>	89,71	2750.0	test	<img class = center src='/static/experiments/beast_fmri_test/images/redB.png'></img>	go	2050.0	2.0	41.0	go	non-target	B	89,Middle Finger	71,Index Finger	700.0	700.0	2050.0	2050.0	1.0	n/a	700.0	1.0	ITI
197326	500	n/a	-1	-1	500	0.0	fixation	poldrack-single-stim	91	314252	0.0-7.42-0.42	beast_fmri_test	317	314033,/	t	<div class = centerbox2><div class = fixation>+</div></div>	none	500.0	test	n/a	n/a	n/a	n/a	n/a	n/a	n/a	n/a	n/a	n/a	n/a	n/a	n/a	n/a	n/a	n/a	n/a	n/a	fixation
197276.79835110286	700.0	n/a	-1	-1	2750	51.2016488972	stim	stop-signal	92	317004	0.0-7.42-1.42	beast_fmri_test	317	314712,/,315392,/,316072,/,316752,/	t,t,t,t	<img class = center src='/static/experiments/beast_fmri_test/images/P.png'></img>	89,71	2750.0	test	<img class = center src='/static/experiments/beast_fmri_test/images/redP.png'></img>	stop	2050.0	2.0	42.0	stop	non-target	P	89,Middle Finger	71,Index Finger	700.0	700.0	2050.0	2050.0	0.0	1.0	700.0	n/a	go_stim
199326.79835110286	2050.0	n/a	-1	-1	2750	51.2016488972	stim	stop-signal	92	317004	0.0-7.42-1.42	beast_fmri_test	317	314712,/,315392,/,316072,/,316752,/	t,t,t,t	<img class = center src='/static/experiments/beast_fmri_test/images/P.png'></img>	89,71	2750.0	test	<img class = center src='/static/experiments/beast_fmri_test/images/redP.png'></img>	stop	2050.0	2.0	42.0	stop	non-target	P	89,Middle Finger	71,Index Finger	700.0	700.0	2050.0	2050.0	0.0	1.0	700.0	n/a	stop_stim
200026.79835110286	51.201648897170067	n/a	-1	-1	2750	51.2016488972	stim	stop-signal	92	317004	0.0-7.42-1.42	beast_fmri_test	317	314712,/,315392,/,316072,/,316752,/	t,t,t,t	<img class = center src='/static/experiments/beast_fmri_test/images/P.png'></img>	89,71	2750.0	test	<img class = center src='/static/experiments/beast_fmri_test/images/redP.png'></img>	stop	2050.0	2.0	42.0	stop	non-target	P	89,Middle Finger	71,Index Finger	700.0	700.0	2050.0	2050.0	0.0	1.0	700.0	n/a	ITI
200644	500	n/a	-1	-1	500	0.0	fixation	poldrack-single-stim	93	317570	0.0-7.43-0.43	beast_fmri_test	317	317432,/	t	<div class = centerbox2><div class = fixation>+</div></div>	none	500.0	test	n/a	n/a	n/a	n/a	n/a	n/a	n/a	n/a	n/a	n/a	n/a	n/a	n/a	n/a	n/a	n/a	n/a	n/a	fixation
200580.90859827335	2750	n/a	1369	89	2750	65.0914017266	stim	stop-signal	94	320322	0.0-7.43-1.43	beast_fmri_test	317	318111,/,318791,/,319471,/,320149,/	t,t,t,t	<img class = center src='/static/experiments/beast_fmri_test/images/D.png'></img>	89,71	2750.0	test	<img class = center src='/static/experiments/beast_fmri_test/images/redD.png'></img>	go	2000.0	2.0	43.0	go	non-target	D	89,Middle Finger	71,Index Finger	700.0	750.0	2050.0	2000.0	0.0	n/a	750.0	0.0	go_stim
203330.90859827335	65.09140172663345	n/a	1369	89	2750	65.0914017266	stim	stop-signal	94	320322	0.0-7.43-1.43	beast_fmri_test	317	318111,/,318791,/,319471,/,320149,/	t,t,t,t	<img class = center src='/static/experiments/beast_fmri_test/images/D.png'></img>	89,71	2750.0	test	<img class = center src='/static/experiments/beast_fmri_test/images/redD.png'></img>	go	2000.0	2.0	43.0	go	non-target	D	89,Middle Finger	71,Index Finger	700.0	750.0	2050.0	2000.0	0.0	n/a	750.0	0.0	ITI
203976	500	n/a	-1	-1	500	0.0	fixation	poldrack-single-stim	95	320902	0.0-7.44-0.44	beast_fmri_test	317	320829,/	t	<div class = centerbox2><div class = fixation>+</div></div>	none	500.0	test	n/a	n/a	n/a	n/a	n/a	n/a	n/a	n/a	n/a	n/a	n/a	n/a	n/a	n/a	n/a	n/a	n/a	n/a	fixation
203736.79630985728	700.0	n/a	-1	-1	2750	240.203690143	stim	stop-signal	96	323653	0.0-7.44-1.44	beast_fmri_test	317	321510,/,322190,/,322869,/,323548,/	t,t,t,t	<img class = center src='/static/experiments/beast_fmri_test/images/P.png'></img>	89,71	2750.0	test	<img class = center src='/static/experiments/beast_fmri_test/images/redP.png'></img>	stop	2050.0	2.0	44.0	stop	target	P	89,Middle Finger	71,Index Finger	700.0	750.0	2050.0	2000.0	0.0	1.0	700.0	n/a	go_stim
205786.79630985728	2050.0	n/a	-1	-1	2750	240.203690143	stim	stop-signal	96	323653	0.0-7.44-1.44	beast_fmri_test	317	321510,/,322190,/,322869,/,323548,/	t,t,t,t	<img class = center src='/static/experiments/beast_fmri_test/images/P.png'></img>	89,71	2750.0	test	<img class = center src='/static/experiments/beast_fmri_test/images/redP.png'></img>	stop	2050.0	2.0	44.0	stop	target	P	89,Middle Finger	71,Index Finger	700.0	750.0	2050.0	2000.0	0.0	1.0	700.0	n/a	stop_stim
206486.79630985728	240.2036901427426	n/a	-1	-1	2750	240.203690143	stim	stop-signal	96	323653	0.0-7.44-1.44	beast_fmri_test	317	321510,/,322190,/,322869,/,323548,/	t,t,t,t	<img class = center src='/static/experiments/beast_fmri_test/images/P.png'></img>	89,71	2750.0	test	<img class = center src='/static/experiments/beast_fmri_test/images/redP.png'></img>	stop	2050.0	2.0	44.0	stop	target	P	89,Middle Finger	71,Index Finger	700.0	750.0	2050.0	2000.0	0.0	1.0	700.0	n/a	ITI
207481	500	n/a	-1	-1	500	0.0	fixation	poldrack-single-stim	97	324407	0.0-7.45-0.45	beast_fmri_test	317	324228,/	t	<div class = centerbox2><div class = fixation>+</div></div>	none	500.0	test	n/a	n/a	n/a	n/a	n/a	n/a	n/a	n/a	n/a	n/a	n/a	n/a	n/a	n/a	n/a	n/a	n/a	n/a	fixation
205326.37196107086	750.0	n/a	-1	-1	2750	2154.62803893	stim	stop-signal	98	327157	0.0-7.45-1.45	beast_fmri_test	317	324907,/,325587,/,326266,/,326948,/,327626,/,328307,/,328985,/	t,t,t,t,t,t,t	<img class = center src='/static/experiments/beast_fmri_test/images/B.png'></img>	89,71	2750.0	test	<img class = center src='/static/experiments/beast_fmri_test/images/redB.png'></img>	stop	2000.0	2.0	45.0	stop	non-target	B	89,Middle Finger	71,Index Finger	750.0	750.0	2050.0	2000.0	0.0	1.0	750.0	n/a	go_stim
207326.37196107086	2000.0	n/a	-1	-1	2750	2154.62803893	stim	stop-signal	98	327157	0.0-7.45-1.45	beast_fmri_test	317	324907,/,325587,/,326266,/,326948,/,327626,/,328307,/,328985,/	t,t,t,t,t,t,t	<img class = center src='/static/experiments/beast_fmri_test/images/B.png'></img>	89,71	2750.0	test	<img class = center src='/static/experiments/beast_fmri_test/images/redB.png'></img>	stop	2000.0	2.0	45.0	stop	non-target	B	89,Middle Finger	71,Index Finger	750.0	750.0	2050.0	2000.0	0.0	1.0	750.0	n/a	stop_stim
208076.37196107086	2154.6280389291373	n/a	-1	-1	2750	2154.62803893	stim	stop-signal	98	327157	0.0-7.45-1.45	beast_fmri_test	317	324907,/,325587,/,326266,/,326948,/,327626,/,328307,/,328985,/	t,t,t,t,t,t,t	<img class = center src='/static/experiments/beast_fmri_test/images/B.png'></img>	89,71	2750.0	test	<img class = center src='/static/experiments/beast_fmri_test/images/redB.png'></img>	stop	2000.0	2.0	45.0	stop	non-target	B	89,Middle Finger	71,Index Finger	750.0	750.0	2050.0	2000.0	0.0	1.0	750.0	n/a	ITI
212901	500	n/a	-1	-1	500	0.0	fixation	poldrack-single-stim	99	329827	0.0-7.46-0.46	beast_fmri_test	317	329665,/	t	<div class = centerbox2><div class = fixation>+</div></div>	none	500.0	test	n/a	n/a	n/a	n/a	n/a	n/a	n/a	n/a	n/a	n/a	n/a	n/a	n/a	n/a	n/a	n/a	n/a	n/a	fixation
212606.15015747474	2750	n/a	1528	71	2750	295.849842525	stim	stop-signal	100	332578	0.0-7.46-1.46	beast_fmri_test	317	330345,/,331025,/,331704,/,332384,/	t,t,t,t	<img class = center src='/static/experiments/beast_fmri_test/images/B.png'></img>	89,71	2750.0	test	<img class = center src='/static/experiments/beast_fmri_test/images/redB.png'></img>	go	1950.0	2.0	46.0	go	non-target	B	89,Middle Finger	71,Index Finger	750.0	800.0	2050.0	1950.0	1.0	n/a	800.0	1.0	go_stim
215356.15015747474	295.8498425252875	n/a	1528	71	2750	295.849842525	stim	stop-signal	100	332578	0.0-7.46-1.46	beast_fmri_test	317	330345,/,331025,/,331704,/,332384,/	t,t,t,t	<img class = center src='/static/experiments/beast_fmri_test/images/B.png'></img>	89,71	2750.0	test	<img class = center src='/static/experiments/beast_fmri_test/images/redB.png'></img>	go	1950.0	2.0	46.0	go	non-target	B	89,Middle Finger	71,Index Finger	750.0	800.0	2050.0	1950.0	1.0	n/a	800.0	1.0	ITI
230956	15000	n/a	-1	-1	15000	0.0	practice-no-stop-feedback	poldrack-single-stim	101	347882	0.0-8.0	beast_fmri_test	317	333063,/,333743,/,334422,/,335103,/,335783,/,336463,/,337144,/,337823,/,338502,/,339182,/,339862,/,340542,/,341221,/,341902,/,342580,/,343259,/,343939,/,344618,/,345298,/,345978,/,346659,/,347338,/	t,t,t,t,t,t,t,t,t,t,t,t,t,t,t,t,t,t,t,t,t,t	"<div class = ""centerbox""><p class = ""block-text"">Your delay is 2 trials.</p><p class = block-text>Please wait for the scanner to start the block</p></div>"	77	15000.0	n/a	n/a	n/a	n/a	n/a	n/a	n/a	n/a	n/a	n/a	n/a	n/a	n/a	n/a	n/a	n/a	n/a	n/a	n/a	practice-no-stop-feedback
231458	500	n/a	-1	-1	500	0.0	fixation	poldrack-single-stim	102	348384	0.0-9.0-0.0	beast_fmri_test	317	348017,/	t	<div class = centerbox2><div class = fixation>+</div></div>	none	500.0	test	n/a	n/a	n/a	n/a	n/a	n/a	n/a	n/a	n/a	n/a	n/a	n/a	n/a	n/a	n/a	n/a	n/a	n/a	fixation
230304.54823227692	2750	n/a	1268	71	2750	1156.45176772	stim	stop-signal	103	351137	0.0-9.0-1.0	beast_fmri_test	317	348697,/,349376,/,350055,/,350736,/,351416,/,352096,/	t,t,t,t,t,t	<img class = center src='/static/experiments/beast_fmri_test/images/B.png'></img>	89,71	2750.0	test	<img class = center src='/static/experiments/beast_fmri_test/images/redB.png'></img>	go	-1.0	2.0	0.0	go	temp-non-target	B	89,Middle Finger	71,Index Finger	750.0	800.0	2050.0	1950.0	0.0	n/a	n/a	n/a	go_stim
233054.54823227692	1156.4517677230881	n/a	1268	71	2750	1156.45176772	stim	stop-signal	103	351137	0.0-9.0-1.0	beast_fmri_test	317	348697,/,349376,/,350055,/,350736,/,351416,/,352096,/	t,t,t,t,t,t	<img class = center src='/static/experiments/beast_fmri_test/images/B.png'></img>	89,71	2750.0	test	<img class = center src='/static/experiments/beast_fmri_test/images/redB.png'></img>	go	-1.0	2.0	0.0	go	temp-non-target	B	89,Middle Finger	71,Index Finger	750.0	800.0	2050.0	1950.0	0.0	n/a	n/a	n/a	ITI
235882	500	n/a	-1	-1	500	0.0	fixation	poldrack-single-stim	104	352808	0.0-9.1-0.1	beast_fmri_test	317	352776,/	t	<div class = centerbox2><div class = fixation>+</div></div>	none	500.0	test	n/a	n/a	n/a	n/a	n/a	n/a	n/a	n/a	n/a	n/a	n/a	n/a	n/a	n/a	n/a	n/a	n/a	n/a	fixation
235697.14874107635	2750	n/a	1134	71	2750	185.851258924	stim	stop-signal	105	355559	0.0-9.1-1.1	beast_fmri_test	317	353454,/,354134,/,354815,/,355493,/	t,t,t,t	<img class = center src='/static/experiments/beast_fmri_test/images/D.png'></img>	89,71	2750.0	test	<img class = center src='/static/experiments/beast_fmri_test/images/redD.png'></img>	go	-1.0	2.0	1.0	go	temp-non-target	D	89,Middle Finger	71,Index Finger	750.0	800.0	2050.0	1950.0	0.0	n/a	n/a	n/a	go_stim
238447.14874107635	185.85125892366383	n/a	1134	71	2750	185.851258924	stim	stop-signal	105	355559	0.0-9.1-1.1	beast_fmri_test	317	353454,/,354134,/,354815,/,355493,/	t,t,t,t	<img class = center src='/static/experiments/beast_fmri_test/images/D.png'></img>	89,71	2750.0	test	<img class = center src='/static/experiments/beast_fmri_test/images/redD.png'></img>	go	-1.0	2.0	1.0	go	temp-non-target	D	89,Middle Finger	71,Index Finger	750.0	800.0	2050.0	1950.0	0.0	n/a	n/a	n/a	ITI
239335	500	n/a	-1	-1	500	0.0	fixation	poldrack-single-stim	106	356261	0.0-9.2-0.2	beast_fmri_test	317	356174,/	t	<div class = centerbox2><div class = fixation>+</div></div>	none	500.0	test	n/a	n/a	n/a	n/a	n/a	n/a	n/a	n/a	n/a	n/a	n/a	n/a	n/a	n/a	n/a	n/a	n/a	n/a	fixation
239169.8148890243	2750	n/a	912	89	2750	166.185110976	stim	stop-signal	107	359012	0.0-9.2-1.2	beast_fmri_test	317	356854,/,357532,/,358211,/,358891,/	t,t,t,t	<img class = center src='/static/experiments/beast_fmri_test/images/B.png'></img>	89,71	2750.0	test	<img class = center src='/static/experiments/beast_fmri_test/images/redB.png'></img>	go	2000.0	2.0	2.0	go	target	B	89,Middle Finger	71,Index Finger	750.0	800.0	2000.0	1950.0	1.0	n/a	750.0	1.0	go_stim
241919.8148890243	166.18511097567497	n/a	912	89	2750	166.185110976	stim	stop-signal	107	359012	0.0-9.2-1.2	beast_fmri_test	317	356854,/,357532,/,358211,/,358891,/	t,t,t,t	<img class = center src='/static/experiments/beast_fmri_test/images/B.png'></img>	89,71	2750.0	test	<img class = center src='/static/experiments/beast_fmri_test/images/redB.png'></img>	go	2000.0	2.0	2.0	go	target	B	89,Middle Finger	71,Index Finger	750.0	800.0	2000.0	1950.0	1.0	n/a	750.0	1.0	ITI
242766	500	n/a	-1	-1	500	0.0	fixation	poldrack-single-stim	108	359692	0.0-9.3-0.3	beast_fmri_test	317	359572,/	t	<div class = centerbox2><div class = fixation>+</div></div>	none	500.0	test	n/a	n/a	n/a	n/a	n/a	n/a	n/a	n/a	n/a	n/a	n/a	n/a	n/a	n/a	n/a	n/a	n/a	n/a	fixation
241379.96900626342	2750	n/a	1117	71	2750	1387.03099374	stim	stop-signal	109	362443	0.0-9.3-1.3	beast_fmri_test	317	360252,/,360931,/,361610,/,362290,/,362970,/,363651,/	t,t,t,t,t,t	<img class = center src='/static/experiments/beast_fmri_test/images/T.png'></img>	89,71	2750.0	test	<img class = center src='/static/experiments/beast_fmri_test/images/redT.png'></img>	go	1950.0	2.0	3.0	go	non-target	T	89,Middle Finger	71,Index Finger	750.0	800.0	2000.0	1950.0	1.0	n/a	800.0	1.0	go_stim
244129.96900626342	1387.0309937365798	n/a	1117	71	2750	1387.03099374	stim	stop-signal	109	362443	0.0-9.3-1.3	beast_fmri_test	317	360252,/,360931,/,361610,/,362290,/,362970,/,363651,/	t,t,t,t,t,t	<img class = center src='/static/experiments/beast_fmri_test/images/T.png'></img>	89,71	2750.0	test	<img class = center src='/static/experiments/beast_fmri_test/images/redT.png'></img>	go	1950.0	2.0	3.0	go	non-target	T	89,Middle Finger	71,Index Finger	750.0	800.0	2000.0	1950.0	1.0	n/a	800.0	1.0	ITI
247418	500	n/a	-1	-1	500	0.0	fixation	poldrack-single-stim	110	364344	0.0-9.4-0.4	beast_fmri_test	317	364330,/	t	<div class = centerbox2><div class = fixation>+</div></div>	none	500.0	test	n/a	n/a	n/a	n/a	n/a	n/a	n/a	n/a	n/a	n/a	n/a	n/a	n/a	n/a	n/a	n/a	n/a	n/a	fixation
244306.05924986559	750.0	n/a	-1	-1	2750	3112.94075013	stim	stop-signal	111	367095	0.0-9.4-1.4	beast_fmri_test	317	365010,/,365689,/,366369,/,367048,/,367727,/,368407,/,369088,/,369767,/	t,t,t,t,t,t,t,t	<img class = center src='/static/experiments/beast_fmri_test/images/B.png'></img>	89,71	2750.0	test	<img class = center src='/static/experiments/beast_fmri_test/images/redB.png'></img>	stop	2000.0	2.0	4.0	stop	target	B	89,Middle Finger	71,Index Finger	750.0	800.0	2000.0	1950.0	0.0	1.0	750.0	n/a	go_stim
246306.05924986559	2000.0	n/a	-1	-1	2750	3112.94075013	stim	stop-signal	111	367095	0.0-9.4-1.4	beast_fmri_test	317	365010,/,365689,/,366369,/,367048,/,367727,/,368407,/,369088,/,369767,/	t,t,t,t,t,t,t,t	<img class = center src='/static/experiments/beast_fmri_test/images/B.png'></img>	89,71	2750.0	test	<img class = center src='/static/experiments/beast_fmri_test/images/redB.png'></img>	stop	2000.0	2.0	4.0	stop	target	B	89,Middle Finger	71,Index Finger	750.0	800.0	2000.0	1950.0	0.0	1.0	750.0	n/a	stop_stim
247056.05924986559	3112.9407501344031	n/a	-1	-1	2750	3112.94075013	stim	stop-signal	111	367095	0.0-9.4-1.4	beast_fmri_test	317	365010,/,365689,/,366369,/,367048,/,367727,/,368407,/,369088,/,369767,/	t,t,t,t,t,t,t,t	<img class = center src='/static/experiments/beast_fmri_test/images/B.png'></img>	89,71	2750.0	test	<img class = center src='/static/experiments/beast_fmri_test/images/redB.png'></img>	stop	2000.0	2.0	4.0	stop	target	B	89,Middle Finger	71,Index Finger	750.0	800.0	2000.0	1950.0	0.0	1.0	750.0	n/a	ITI
253799	500	n/a	-1	-1	500	0.0	fixation	poldrack-single-stim	112	370725	0.0-9.5-0.5	beast_fmri_test	317	370448,/	t	<div class = centerbox2><div class = fixation>+</div></div>	none	500.0	test	n/a	n/a	n/a	n/a	n/a	n/a	n/a	n/a	n/a	n/a	n/a	n/a	n/a	n/a	n/a	n/a	n/a	n/a	fixation
253029.5162128497	2750	n/a	1197	71	2750	770.48378715	stim	stop-signal	113	373476	0.0-9.5-1.5	beast_fmri_test	317	371126,/,371807,/,372485,/,373165,/,373846,/	t,t,t,t,t	<img class = center src='/static/experiments/beast_fmri_test/images/P.png'></img>	89,71	2750.0	test	<img class = center src='/static/experiments/beast_fmri_test/images/redP.png'></img>	go	1950.0	2.0	5.0	go	non-target	P	89,Middle Finger	71,Index Finger	800.0	800.0	2000.0	1950.0	1.0	n/a	800.0	1.0	go_stim
255779.5162128497	770.48378715029469	n/a	1197	71	2750	770.48378715	stim	stop-signal	113	373476	0.0-9.5-1.5	beast_fmri_test	317	371126,/,371807,/,372485,/,373165,/,373846,/	t,t,t,t,t	<img class = center src='/static/experiments/beast_fmri_test/images/P.png'></img>	89,71	2750.0	test	<img class = center src='/static/experiments/beast_fmri_test/images/redP.png'></img>	go	1950.0	2.0	5.0	go	non-target	P	89,Middle Finger	71,Index Finger	800.0	800.0	2000.0	1950.0	1.0	n/a	800.0	1.0	ITI
257837	500	n/a	-1	-1	500	0.0	fixation	poldrack-single-stim	114	374763	0.0-9.6-0.6	beast_fmri_test	317	374525,/	t	<div class = centerbox2><div class = fixation>+</div></div>	none	500.0	test	n/a	n/a	n/a	n/a	n/a	n/a	n/a	n/a	n/a	n/a	n/a	n/a	n/a	n/a	n/a	n/a	n/a	n/a	fixation
256230.20341801166	2750	n/a	1862	71	2750	1607.79658199	stim	stop-signal	115	377514	0.0-9.6-1.6	beast_fmri_test	317	375204,/,375885,/,376563,/,377242,/,377923,/,378602,/	t,t,t,t,t,t	<img class = center src='/static/experiments/beast_fmri_test/images/B.png'></img>	89,71	2750.0	test	<img class = center src='/static/experiments/beast_fmri_test/images/redB.png'></img>	go	1950.0	2.0	6.0	go	target	B	89,Middle Finger	71,Index Finger	800.0	800.0	1950.0	1950.0	0.0	n/a	800.0	0.0	go_stim
258980.20341801166	1607.7965819883584	n/a	1862	71	2750	1607.79658199	stim	stop-signal	115	377514	0.0-9.6-1.6	beast_fmri_test	317	375204,/,375885,/,376563,/,377242,/,377923,/,378602,/	t,t,t,t,t,t	<img class = center src='/static/experiments/beast_fmri_test/images/B.png'></img>	89,71	2750.0	test	<img class = center src='/static/experiments/beast_fmri_test/images/redB.png'></img>	go	1950.0	2.0	6.0	go	target	B	89,Middle Finger	71,Index Finger	800.0	800.0	1950.0	1950.0	0.0	n/a	800.0	0.0	ITI
262713	500	n/a	-1	-1	500	0.0	fixation	poldrack-single-stim	116	379639	0.0-9.7-0.7	beast_fmri_test	317	379282,/	t	<div class = centerbox2><div class = fixation>+</div></div>	none	500.0	test	n/a	n/a	n/a	n/a	n/a	n/a	n/a	n/a	n/a	n/a	n/a	n/a	n/a	n/a	n/a	n/a	n/a	n/a	fixation
262375.81628069282	800.0	n/a	1226	71	2750	338.183719307	stim	stop-signal	117	382390	0.0-9.7-1.7	beast_fmri_test	317	379962,/,380642,/,381321,/,382000,/,382680,/	t,t,t,t,t	<img class = center src='/static/experiments/beast_fmri_test/images/V.png'></img>	89,71	2750.0	test	<img class = center src='/static/experiments/beast_fmri_test/images/redV.png'></img>	stop	1950.0	2.0	7.0	stop	non-target	V	89,Middle Finger	71,Index Finger	800.0	800.0	1950.0	1950.0	0.0	0.0	800.0	n/a	go_stim
264325.81628069282	1950.0	n/a	1226	71	2750	338.183719307	stim	stop-signal	117	382390	0.0-9.7-1.7	beast_fmri_test	317	379962,/,380642,/,381321,/,382000,/,382680,/	t,t,t,t,t	<img class = center src='/static/experiments/beast_fmri_test/images/V.png'></img>	89,71	2750.0	test	<img class = center src='/static/experiments/beast_fmri_test/images/redV.png'></img>	stop	1950.0	2.0	7.0	stop	non-target	V	89,Middle Finger	71,Index Finger	800.0	800.0	1950.0	1950.0	0.0	0.0	800.0	n/a	stop_stim
265125.81628069282	338.18371930720645	n/a	1226	71	2750	338.183719307	stim	stop-signal	117	382390	0.0-9.7-1.7	beast_fmri_test	317	379962,/,380642,/,381321,/,382000,/,382680,/	t,t,t,t,t	<img class = center src='/static/experiments/beast_fmri_test/images/V.png'></img>	89,71	2750.0	test	<img class = center src='/static/experiments/beast_fmri_test/images/redV.png'></img>	stop	1950.0	2.0	7.0	stop	non-target	V	89,Middle Finger	71,Index Finger	800.0	800.0	1950.0	1950.0	0.0	0.0	800.0	n/a	ITI
266316	500	n/a	-1	-1	500	0.0	fixation	poldrack-single-stim	118	383242	0.0-9.8-0.8	beast_fmri_test	317	n/a	n/a	<div class = centerbox2><div class = fixation>+</div></div>	none	500.0	test	n/a	n/a	n/a	n/a	n/a	n/a	n/a	n/a	n/a	n/a	n/a	n/a	n/a	n/a	n/a	n/a	n/a	n/a	fixation
265958.96646011982	2750	n/a	1409	71	2750	358.03353988	stim	stop-signal	119	385993	0.0-9.8-1.8	beast_fmri_test	317	383359,/,384040,/,384720,/,385399,/,386078,/	t,t,t,t,t	<img class = center src='/static/experiments/beast_fmri_test/images/V.png'></img>	89,71	2750.0	test	<img class = center src='/static/experiments/beast_fmri_test/images/redV.png'></img>	go	2000.0	2.0	8.0	go	non-target	V	89,Middle Finger	71,Index Finger	800.0	750.0	1950.0	2000.0	1.0	n/a	750.0	1.0	go_stim
268708.96646011982	358.033539880197	n/a	1409	71	2750	358.03353988	stim	stop-signal	119	385993	0.0-9.8-1.8	beast_fmri_test	317	383359,/,384040,/,384720,/,385399,/,386078,/	t,t,t,t,t	<img class = center src='/static/experiments/beast_fmri_test/images/V.png'></img>	89,71	2750.0	test	<img class = center src='/static/experiments/beast_fmri_test/images/redV.png'></img>	go	2000.0	2.0	8.0	go	non-target	V	89,Middle Finger	71,Index Finger	800.0	750.0	1950.0	2000.0	1.0	n/a	750.0	1.0	ITI
269947	500	n/a	-1	-1	500	0.0	fixation	poldrack-single-stim	120	386873	0.0-9.9-0.9	beast_fmri_test	317	386758,/	t	<div class = centerbox2><div class = fixation>+</div></div>	none	500.0	test	n/a	n/a	n/a	n/a	n/a	n/a	n/a	n/a	n/a	n/a	n/a	n/a	n/a	n/a	n/a	n/a	n/a	n/a	fixation
269541.82409084885	750.0	n/a	-1	-1	2750	406.175909151	stim	stop-signal	121	389624	0.0-9.9-1.9	beast_fmri_test	317	387438,/,388118,/,388798,/,389477,/	t,t,t,t	<img class = center src='/static/experiments/beast_fmri_test/images/P.png'></img>	89,71	2750.0	test	<img class = center src='/static/experiments/beast_fmri_test/images/redP.png'></img>	stop	2000.0	2.0	9.0	stop	non-target	P	89,Middle Finger	71,Index Finger	800.0	750.0	1950.0	2000.0	0.0	1.0	750.0	n/a	go_stim
271541.82409084885	2000.0	n/a	-1	-1	2750	406.175909151	stim	stop-signal	121	389624	0.0-9.9-1.9	beast_fmri_test	317	387438,/,388118,/,388798,/,389477,/	t,t,t,t	<img class = center src='/static/experiments/beast_fmri_test/images/P.png'></img>	89,71	2750.0	test	<img class = center src='/static/experiments/beast_fmri_test/images/redP.png'></img>	stop	2000.0	2.0	9.0	stop	non-target	P	89,Middle Finger	71,Index Finger	800.0	750.0	1950.0	2000.0	0.0	1.0	750.0	n/a	stop_stim
272291.82409084885	406.17590915114897	n/a	-1	-1	2750	406.175909151	stim	stop-signal	121	389624	0.0-9.9-1.9	beast_fmri_test	317	387438,/,388118,/,388798,/,389477,/	t,t,t,t	<img class = center src='/static/experiments/beast_fmri_test/images/P.png'></img>	89,71	2750.0	test	<img class = center src='/static/experiments/beast_fmri_test/images/redP.png'></img>	stop	2000.0	2.0	9.0	stop	non-target	P	89,Middle Finger	71,Index Finger	800.0	750.0	1950.0	2000.0	0.0	1.0	750.0	n/a	ITI
273623	500	n/a	-1	-1	500	0.0	fixation	poldrack-single-stim	122	390549	0.0-9.10-0.10	beast_fmri_test	317	390157,/	t	<div class = centerbox2><div class = fixation>+</div></div>	none	500.0	test	n/a	n/a	n/a	n/a	n/a	n/a	n/a	n/a	n/a	n/a	n/a	n/a	n/a	n/a	n/a	n/a	n/a	n/a	fixation
272947.45945469337	2750	n/a	1379	89	2750	677.540545307	stim	stop-signal	123	393301	0.0-9.10-1.10	beast_fmri_test	317	390838,/,391517,/,392195,/,392877,/,393556,/	t,t,t,t,t	<img class = center src='/static/experiments/beast_fmri_test/images/V.png'></img>	89,71	2750.0	test	<img class = center src='/static/experiments/beast_fmri_test/images/redV.png'></img>	go	1950.0	2.0	10.0	go	target	V	89,Middle Finger	71,Index Finger	800.0	800.0	1950.0	2000.0	1.0	n/a	800.0	1.0	go_stim
275697.45945469337	677.54054530662199	n/a	1379	89	2750	677.540545307	stim	stop-signal	123	393301	0.0-9.10-1.10	beast_fmri_test	317	390838,/,391517,/,392195,/,392877,/,393556,/	t,t,t,t,t	<img class = center src='/static/experiments/beast_fmri_test/images/V.png'></img>	89,71	2750.0	test	<img class = center src='/static/experiments/beast_fmri_test/images/redV.png'></img>	go	1950.0	2.0	10.0	go	target	V	89,Middle Finger	71,Index Finger	800.0	800.0	1950.0	2000.0	1.0	n/a	800.0	1.0	ITI
277575	500	n/a	-1	-1	500	0.0	fixation	poldrack-single-stim	124	394501	0.0-9.11-0.11	beast_fmri_test	317	394237,/	t	<div class = centerbox2><div class = fixation>+</div></div>	none	500.0	test	n/a	n/a	n/a	n/a	n/a	n/a	n/a	n/a	n/a	n/a	n/a	n/a	n/a	n/a	n/a	n/a	n/a	n/a	fixation
275382.11262549349	2750	n/a	1601	71	2750	2193.88737451	stim	stop-signal	125	397252	0.0-9.11-1.11	beast_fmri_test	317	394915,/,395595,/,396274,/,396954,/,397634,/,398314,/,398994,/	t,t,t,t,t,t,t	<img class = center src='/static/experiments/beast_fmri_test/images/V.png'></img>	89,71	2750.0	test	<img class = center src='/static/experiments/beast_fmri_test/images/redV.png'></img>	go	1950.0	2.0	11.0	go	non-target	V	89,Middle Finger	71,Index Finger	800.0	800.0	1950.0	1950.0	1.0	n/a	800.0	1.0	go_stim
278132.11262549349	2193.8873745064998	n/a	1601	71	2750	2193.88737451	stim	stop-signal	125	397252	0.0-9.11-1.11	beast_fmri_test	317	394915,/,395595,/,396274,/,396954,/,397634,/,398314,/,398994,/	t,t,t,t,t,t,t	<img class = center src='/static/experiments/beast_fmri_test/images/V.png'></img>	89,71	2750.0	test	<img class = center src='/static/experiments/beast_fmri_test/images/redV.png'></img>	go	1950.0	2.0	11.0	go	non-target	V	89,Middle Finger	71,Index Finger	800.0	800.0	1950.0	1950.0	1.0	n/a	800.0	1.0	ITI
283039	500	n/a	-1	-1	500	0.0	fixation	poldrack-single-stim	126	399965	0.0-9.12-0.12	beast_fmri_test	317	399674,/	t	<div class = centerbox2><div class = fixation>+</div></div>	none	500.0	test	n/a	n/a	n/a	n/a	n/a	n/a	n/a	n/a	n/a	n/a	n/a	n/a	n/a	n/a	n/a	n/a	n/a	n/a	fixation
280447.49367940117	2750	n/a	1482	71	2750	2594.5063206	stim	stop-signal	127	402718	0.0-9.12-1.12	beast_fmri_test	317	400354,/,401032,/,401712,/,402392,/,403072,/,403751,/,404430,/,405110,/	t,t,t,t,t,t,t,t	<img class = center src='/static/experiments/beast_fmri_test/images/D.png'></img>	89,71	2750.0	test	<img class = center src='/static/experiments/beast_fmri_test/images/redD.png'></img>	go	1950.0	2.0	12.0	go	non-target	D	89,Middle Finger	71,Index Finger	800.0	800.0	1950.0	1950.0	1.0	n/a	800.0	1.0	go_stim
283197.49367940117	2594.5063205988008	n/a	1482	71	2750	2594.5063206	stim	stop-signal	127	402718	0.0-9.12-1.12	beast_fmri_test	317	400354,/,401032,/,401712,/,402392,/,403072,/,403751,/,404430,/,405110,/	t,t,t,t,t,t,t,t	<img class = center src='/static/experiments/beast_fmri_test/images/D.png'></img>	89,71	2750.0	test	<img class = center src='/static/experiments/beast_fmri_test/images/redD.png'></img>	go	1950.0	2.0	12.0	go	non-target	D	89,Middle Finger	71,Index Finger	800.0	800.0	1950.0	1950.0	1.0	n/a	800.0	1.0	ITI
288904	500	n/a	-1	-1	500	0.0	fixation	poldrack-single-stim	128	405830	0.0-9.13-0.13	beast_fmri_test	317	405790,/	t	<div class = centerbox2><div class = fixation>+</div></div>	none	500.0	test	n/a	n/a	n/a	n/a	n/a	n/a	n/a	n/a	n/a	n/a	n/a	n/a	n/a	n/a	n/a	n/a	n/a	n/a	fixation
287230.5839600662	2750	n/a	1182	71	2750	1674.41603993	stim	stop-signal	129	408581	0.0-9.13-1.13	beast_fmri_test	317	406469,/,407150,/,407830,/,408510,/,409189,/,409868,/	t,t,t,t,t,t	<img class = center src='/static/experiments/beast_fmri_test/images/B.png'></img>	89,71	2750.0	test	<img class = center src='/static/experiments/beast_fmri_test/images/redB.png'></img>	go	1950.0	2.0	13.0	go	non-target	B	89,Middle Finger	71,Index Finger	800.0	800.0	1950.0	1950.0	1.0	n/a	800.0	1.0	go_stim
289980.5839600662	1674.4160399338032	n/a	1182	71	2750	1674.41603993	stim	stop-signal	129	408581	0.0-9.13-1.13	beast_fmri_test	317	406469,/,407150,/,407830,/,408510,/,409189,/,409868,/	t,t,t,t,t,t	<img class = center src='/static/experiments/beast_fmri_test/images/B.png'></img>	89,71	2750.0	test	<img class = center src='/static/experiments/beast_fmri_test/images/redB.png'></img>	go	1950.0	2.0	13.0	go	non-target	B	89,Middle Finger	71,Index Finger	800.0	800.0	1950.0	1950.0	1.0	n/a	800.0	1.0	ITI
293848	500	n/a	-1	-1	500	0.0	fixation	poldrack-single-stim	130	410774	0.0-9.14-0.14	beast_fmri_test	317	410547,/	t	<div class = centerbox2><div class = fixation>+</div></div>	none	500.0	test	n/a	n/a	n/a	n/a	n/a	n/a	n/a	n/a	n/a	n/a	n/a	n/a	n/a	n/a	n/a	n/a	n/a	n/a	fixation
293841.02562330791	2750	n/a	1761	71	2750	9.97437669207	stim	stop-signal	131	413527	0.0-9.14-1.14	beast_fmri_test	317	411227,/,411908,/,412587,/,413266,/	t,t,t,t	<img class = center src='/static/experiments/beast_fmri_test/images/B.png'></img>	89,71	2750.0	test	<img class = center src='/static/experiments/beast_fmri_test/images/redB.png'></img>	go	1950.0	2.0	14.0	go	non-target	B	89,Middle Finger	71,Index Finger	800.0	800.0	1950.0	1950.0	1.0	n/a	800.0	1.0	go_stim
296591.02562330791	9.9743766920657073	n/a	1761	71	2750	9.97437669207	stim	stop-signal	131	413527	0.0-9.14-1.14	beast_fmri_test	317	411227,/,411908,/,412587,/,413266,/	t,t,t,t	<img class = center src='/static/experiments/beast_fmri_test/images/B.png'></img>	89,71	2750.0	test	<img class = center src='/static/experiments/beast_fmri_test/images/redB.png'></img>	go	1950.0	2.0	14.0	go	non-target	B	89,Middle Finger	71,Index Finger	800.0	800.0	1950.0	1950.0	1.0	n/a	800.0	1.0	ITI
297130	500	n/a	-1	-1	500	0.0	fixation	poldrack-single-stim	132	414056	0.0-9.15-0.15	beast_fmri_test	317	413946,/	t	<div class = centerbox2><div class = fixation>+</div></div>	none	500.0	test	n/a	n/a	n/a	n/a	n/a	n/a	n/a	n/a	n/a	n/a	n/a	n/a	n/a	n/a	n/a	n/a	n/a	n/a	fixation
297057.29910380661	2750	n/a	1340	89	2750	73.7008961934	stim	stop-signal	133	416807	0.0-9.15-1.15	beast_fmri_test	317	414625,/,415305,/,415985,/,416665,/	t,t,t,t	<img class = center src='/static/experiments/beast_fmri_test/images/B.png'></img>	89,71	2750.0	test	<img class = center src='/static/experiments/beast_fmri_test/images/redB.png'></img>	go	1950.0	2.0	15.0	go	target	B	89,Middle Finger	71,Index Finger	800.0	800.0	1950.0	1950.0	1.0	n/a	800.0	1.0	go_stim
299807.29910380661	73.700896193405271	n/a	1340	89	2750	73.7008961934	stim	stop-signal	133	416807	0.0-9.15-1.15	beast_fmri_test	317	414625,/,415305,/,415985,/,416665,/	t,t,t,t	<img class = center src='/static/experiments/beast_fmri_test/images/B.png'></img>	89,71	2750.0	test	<img class = center src='/static/experiments/beast_fmri_test/images/redB.png'></img>	go	1950.0	2.0	15.0	go	target	B	89,Middle Finger	71,Index Finger	800.0	800.0	1950.0	1950.0	1.0	n/a	800.0	1.0	ITI
300472	500	n/a	-1	-1	500	0.0	fixation	poldrack-single-stim	134	417398	0.0-9.16-0.16	beast_fmri_test	317	417344,/	t	<div class = centerbox2><div class = fixation>+</div></div>	none	500.0	test	n/a	n/a	n/a	n/a	n/a	n/a	n/a	n/a	n/a	n/a	n/a	n/a	n/a	n/a	n/a	n/a	n/a	n/a	fixation
299947.31614901638	2750	n/a	-1	-1	2750	525.683850984	stim	stop-signal	135	420149	0.0-9.16-1.16	beast_fmri_test	317	418025,/,418704,/,419386,/,420064,/	t,t,t,t	<img class = center src='/static/experiments/beast_fmri_test/images/D.png'></img>	89,71	2750.0	test	<img class = center src='/static/experiments/beast_fmri_test/images/redD.png'></img>	go	1950.0	2.0	16.0	go	non-target	D	89,Middle Finger	71,Index Finger	800.0	800.0	1950.0	1950.0	0.0	n/a	800.0	0.0	go_stim
302697.31614901638	525.68385098360545	n/a	-1	-1	2750	525.683850984	stim	stop-signal	135	420149	0.0-9.16-1.16	beast_fmri_test	317	418025,/,418704,/,419386,/,420064,/	t,t,t,t	<img class = center src='/static/experiments/beast_fmri_test/images/D.png'></img>	89,71	2750.0	test	<img class = center src='/static/experiments/beast_fmri_test/images/redD.png'></img>	go	1950.0	2.0	16.0	go	non-target	D	89,Middle Finger	71,Index Finger	800.0	800.0	1950.0	1950.0	0.0	n/a	800.0	0.0	ITI
304267	500	n/a	-1	-1	500	0.0	fixation	poldrack-single-stim	136	421193	0.0-9.17-0.17	beast_fmri_test	317	420744,/	t	<div class = centerbox2><div class = fixation>+</div></div>	none	500.0	test	n/a	n/a	n/a	n/a	n/a	n/a	n/a	n/a	n/a	n/a	n/a	n/a	n/a	n/a	n/a	n/a	n/a	n/a	fixation
303451.90820235957	800.0	n/a	1230	71	2750	817.09179764	stim	stop-signal	137	423945	0.0-9.17-1.17	beast_fmri_test	317	421423,/,422104,/,422782,/,423462,/,424142,/	t,t,t,t,t	<img class = center src='/static/experiments/beast_fmri_test/images/T.png'></img>	89,71	2750.0	test	<img class = center src='/static/experiments/beast_fmri_test/images/redT.png'></img>	stop	1950.0	2.0	17.0	stop	non-target	T	89,Middle Finger	71,Index Finger	800.0	800.0	1950.0	1950.0	0.0	0.0	800.0	n/a	go_stim
305401.90820235957	1950.0	n/a	1230	71	2750	817.09179764	stim	stop-signal	137	423945	0.0-9.17-1.17	beast_fmri_test	317	421423,/,422104,/,422782,/,423462,/,424142,/	t,t,t,t,t	<img class = center src='/static/experiments/beast_fmri_test/images/T.png'></img>	89,71	2750.0	test	<img class = center src='/static/experiments/beast_fmri_test/images/redT.png'></img>	stop	1950.0	2.0	17.0	stop	non-target	T	89,Middle Finger	71,Index Finger	800.0	800.0	1950.0	1950.0	0.0	0.0	800.0	n/a	stop_stim
306201.90820235957	817.09179764044677	n/a	1230	71	2750	817.09179764	stim	stop-signal	137	423945	0.0-9.17-1.17	beast_fmri_test	317	421423,/,422104,/,422782,/,423462,/,424142,/	t,t,t,t,t	<img class = center src='/static/experiments/beast_fmri_test/images/T.png'></img>	89,71	2750.0	test	<img class = center src='/static/experiments/beast_fmri_test/images/redT.png'></img>	stop	1950.0	2.0	17.0	stop	non-target	T	89,Middle Finger	71,Index Finger	800.0	800.0	1950.0	1950.0	0.0	0.0	800.0	n/a	ITI
308354	500	n/a	-1	-1	500	0.0	fixation	poldrack-single-stim	138	425280	0.0-9.18-0.18	beast_fmri_test	317	424821,/	t	<div class = centerbox2><div class = fixation>+</div></div>	none	500.0	test	n/a	n/a	n/a	n/a	n/a	n/a	n/a	n/a	n/a	n/a	n/a	n/a	n/a	n/a	n/a	n/a	n/a	n/a	fixation
306353.40253236692	2750	n/a	1167	71	2750	2002.59746763	stim	stop-signal	139	428032	0.0-9.18-1.18	beast_fmri_test	317	425503,/,426181,/,426861,/,427541,/,428219,/,428899,/,429579,/	t,t,t,t,t,t,t	<img class = center src='/static/experiments/beast_fmri_test/images/D.png'></img>	89,71	2750.0	test	<img class = center src='/static/experiments/beast_fmri_test/images/redD.png'></img>	go	1950.0	2.0	18.0	go	target	D	89,Middle Finger	71,Index Finger	800.0	750.0	1950.0	1950.0	0.0	n/a	800.0	0.0	go_stim
309103.40253236692	2002.5974676331045	n/a	1167	71	2750	2002.59746763	stim	stop-signal	139	428032	0.0-9.18-1.18	beast_fmri_test	317	425503,/,426181,/,426861,/,427541,/,428219,/,428899,/,429579,/	t,t,t,t,t,t,t	<img class = center src='/static/experiments/beast_fmri_test/images/D.png'></img>	89,71	2750.0	test	<img class = center src='/static/experiments/beast_fmri_test/images/redD.png'></img>	go	1950.0	2.0	18.0	go	target	D	89,Middle Finger	71,Index Finger	800.0	750.0	1950.0	1950.0	0.0	n/a	800.0	0.0	ITI
313625	500	n/a	-1	-1	500	0.0	fixation	poldrack-single-stim	140	430551	0.0-9.19-0.19	beast_fmri_test	317	430259,/	t	<div class = centerbox2><div class = fixation>+</div></div>	none	500.0	test	n/a	n/a	n/a	n/a	n/a	n/a	n/a	n/a	n/a	n/a	n/a	n/a	n/a	n/a	n/a	n/a	n/a	n/a	fixation
312926.02370055602	2750	n/a	1009	71	2750	698.976299444	stim	stop-signal	141	433301	0.0-9.19-1.19	beast_fmri_test	317	430939,/,431618,/,432299,/,432977,/,433657,/	t,t,t,t,t	<img class = center src='/static/experiments/beast_fmri_test/images/P.png'></img>	89,71	2750.0	test	<img class = center src='/static/experiments/beast_fmri_test/images/redP.png'></img>	go	2000.0	2.0	19.0	go	non-target	P	89,Middle Finger	71,Index Finger	800.0	750.0	1950.0	2000.0	1.0	n/a	750.0	1.0	go_stim
315676.02370055602	698.97629944397067	n/a	1009	71	2750	698.976299444	stim	stop-signal	141	433301	0.0-9.19-1.19	beast_fmri_test	317	430939,/,431618,/,432299,/,432977,/,433657,/	t,t,t,t,t	<img class = center src='/static/experiments/beast_fmri_test/images/P.png'></img>	89,71	2750.0	test	<img class = center src='/static/experiments/beast_fmri_test/images/redP.png'></img>	go	2000.0	2.0	19.0	go	non-target	P	89,Middle Finger	71,Index Finger	800.0	750.0	1950.0	2000.0	1.0	n/a	750.0	1.0	ITI
317591	500	n/a	-1	-1	500	0.0	fixation	poldrack-single-stim	142	434517	0.0-9.20-0.20	beast_fmri_test	317	434337,/	t	<div class = centerbox2><div class = fixation>+</div></div>	none	500.0	test	n/a	n/a	n/a	n/a	n/a	n/a	n/a	n/a	n/a	n/a	n/a	n/a	n/a	n/a	n/a	n/a	n/a	n/a	fixation
315244.95071263588	750.0	n/a	913	71	2750	2348.04928736	stim	stop-signal	143	437269	0.0-9.20-1.20	beast_fmri_test	317	435018,/,435696,/,436376,/,437056,/,437735,/,438415,/,439094,/	t,t,t,t,t,t,t	<img class = center src='/static/experiments/beast_fmri_test/images/V.png'></img>	89,71	2750.0	test	<img class = center src='/static/experiments/beast_fmri_test/images/redV.png'></img>	stop	2000.0	2.0	20.0	stop	non-target	V	89,Middle Finger	71,Index Finger	800.0	750.0	1950.0	2000.0	0.0	0.0	750.0	n/a	go_stim
317244.95071263588	2000.0	n/a	913	71	2750	2348.04928736	stim	stop-signal	143	437269	0.0-9.20-1.20	beast_fmri_test	317	435018,/,435696,/,436376,/,437056,/,437735,/,438415,/,439094,/	t,t,t,t,t,t,t	<img class = center src='/static/experiments/beast_fmri_test/images/V.png'></img>	89,71	2750.0	test	<img class = center src='/static/experiments/beast_fmri_test/images/redV.png'></img>	stop	2000.0	2.0	20.0	stop	non-target	V	89,Middle Finger	71,Index Finger	800.0	750.0	1950.0	2000.0	0.0	0.0	750.0	n/a	stop_stim
317994.95071263588	2348.0492873640906	n/a	913	71	2750	2348.04928736	stim	stop-signal	143	437269	0.0-9.20-1.20	beast_fmri_test	317	435018,/,435696,/,436376,/,437056,/,437735,/,438415,/,439094,/	t,t,t,t,t,t,t	<img class = center src='/static/experiments/beast_fmri_test/images/V.png'></img>	89,71	2750.0	test	<img class = center src='/static/experiments/beast_fmri_test/images/redV.png'></img>	stop	2000.0	2.0	20.0	stop	non-target	V	89,Middle Finger	71,Index Finger	800.0	750.0	1950.0	2000.0	0.0	0.0	750.0	n/a	ITI
323207	500	n/a	-1	-1	500	0.0	fixation	poldrack-single-stim	144	440133	0.0-9.21-0.21	beast_fmri_test	317	439775,/	t	<div class = centerbox2><div class = fixation>+</div></div>	none	500.0	test	n/a	n/a	n/a	n/a	n/a	n/a	n/a	n/a	n/a	n/a	n/a	n/a	n/a	n/a	n/a	n/a	n/a	n/a	fixation
319729.75304807245	2750	n/a	1242	71	2750	3480.24695193	stim	stop-signal	145	442886	0.0-9.21-1.21	beast_fmri_test	317	440455,/,441134,/,441813,/,442492,/,443172,/,443852,/,444531,/,445212,/,445892,/	t,t,t,t,t,t,t,t,t	<img class = center src='/static/experiments/beast_fmri_test/images/V.png'></img>	89,71	2750.0	test	<img class = center src='/static/experiments/beast_fmri_test/images/redV.png'></img>	go	2050.0	2.0	21.0	go	non-target	V	89,Middle Finger	71,Index Finger	800.0	700.0	1950.0	2050.0	1.0	n/a	700.0	1.0	go_stim
322479.75304807245	3480.2469519275373	n/a	1242	71	2750	3480.24695193	stim	stop-signal	145	442886	0.0-9.21-1.21	beast_fmri_test	317	440455,/,441134,/,441813,/,442492,/,443172,/,443852,/,444531,/,445212,/,445892,/	t,t,t,t,t,t,t,t,t	<img class = center src='/static/experiments/beast_fmri_test/images/V.png'></img>	89,71	2750.0	test	<img class = center src='/static/experiments/beast_fmri_test/images/redV.png'></img>	go	2050.0	2.0	21.0	go	non-target	V	89,Middle Finger	71,Index Finger	800.0	700.0	1950.0	2050.0	1.0	n/a	700.0	1.0	ITI
329958	500	n/a	-1	-1	500	0.0	fixation	poldrack-single-stim	146	446884	0.0-9.22-0.22	beast_fmri_test	317	446572,/	t	<div class = centerbox2><div class = fixation>+</div></div>	none	500.0	test	n/a	n/a	n/a	n/a	n/a	n/a	n/a	n/a	n/a	n/a	n/a	n/a	n/a	n/a	n/a	n/a	n/a	n/a	fixation
329022.55509667797	2750	n/a	1184	71	2750	937.444903322	stim	stop-signal	147	449636	0.0-9.22-1.22	beast_fmri_test	317	447250,/,447930,/,448612,/,449291,/,449969,/	t,t,t,t,t	<img class = center src='/static/experiments/beast_fmri_test/images/B.png'></img>	89,71	2750.0	test	<img class = center src='/static/experiments/beast_fmri_test/images/redB.png'></img>	go	2050.0	2.0	22.0	go	non-target	B	89,Middle Finger	71,Index Finger	800.0	700.0	1950.0	2050.0	1.0	n/a	700.0	1.0	go_stim
331772.55509667797	937.44490332205078	n/a	1184	71	2750	937.444903322	stim	stop-signal	147	449636	0.0-9.22-1.22	beast_fmri_test	317	447250,/,447930,/,448612,/,449291,/,449969,/	t,t,t,t,t	<img class = center src='/static/experiments/beast_fmri_test/images/B.png'></img>	89,71	2750.0	test	<img class = center src='/static/experiments/beast_fmri_test/images/redB.png'></img>	go	2050.0	2.0	22.0	go	non-target	B	89,Middle Finger	71,Index Finger	800.0	700.0	1950.0	2050.0	1.0	n/a	700.0	1.0	ITI
334167	500	n/a	-1	-1	500	0.0	fixation	poldrack-single-stim	148	451093	0.0-9.23-0.23	beast_fmri_test	317	450650,/	t	<div class = centerbox2><div class = fixation>+</div></div>	none	500.0	test	n/a	n/a	n/a	n/a	n/a	n/a	n/a	n/a	n/a	n/a	n/a	n/a	n/a	n/a	n/a	n/a	n/a	n/a	fixation
332202.7484115868	700.0	n/a	-1	-1	2750	1965.25158841	stim	stop-signal	149	453844	0.0-9.23-1.23	beast_fmri_test	317	451330,/,452010,/,452689,/,453369,/,454049,/,454728,/,455407,/	t,t,t,t,t,t,t	<img class = center src='/static/experiments/beast_fmri_test/images/P.png'></img>	89,71	2750.0	test	<img class = center src='/static/experiments/beast_fmri_test/images/redP.png'></img>	stop	2050.0	2.0	23.0	stop	non-target	P	89,Middle Finger	71,Index Finger	800.0	700.0	1950.0	2050.0	0.0	1.0	700.0	n/a	go_stim
