onset	duration	text	rt	key_press	block_duration	timing_post_trial	trial_id	trial_type	trial_index	time_elapsed	internal_node_id	exp_id	subject_id	trigger_times	triggers	stimulus	possible_responses	stim_duration	exp_stage	SS_stimulus	SS_trial_type	SS_duration	load	trial_num	stop_trial_type	adaptive_trial_type	stim	yes_response_key	no_response_key	SSD_target	SSD_non_target	SSTarget	SSNonTarget	go_acc	stop_acc	SS_delay	adaptive_acc	new_trial_type
test	10880.0	n/a	-1	-1	10880	0.0	practice-no-stop-feedback	poldrack-single-stim	198	635817	0.0-12.0	beast_fmri_test	317	624941,/,625618,/,626297,/,626977,/,627657,/,628337,/,629017,/,629695,/,630376,/,631055,/,631734,/,632414,/,633095,/,633774,/,634453,/,635133,/,635813,/	t,t,t,t,t,t,t,t,t,t,t,t,t,t,t,t,t	"<div class = ""centerbox""><p class = ""block-text"">Your delay is 1 trials.</p><p class = block-text>Please wait for the scanner to start the block</p></div>"	77	10880.0	n/a	n/a	n/a	n/a	n/a	n/a	n/a	n/a	n/a	n/a	n/a	n/a	n/a	n/a	n/a	n/a	n/a	n/a	n/a	start_functional_block
11378	500.0	n/a	-1	-1	500	0.0	fixation	poldrack-single-stim	199	636319	0.0-13.0-0.0	beast_fmri_test	317	n/a	n/a	<div class = centerbox2><div class = fixation>+</div></div>	none	500.0	test	n/a	n/a	n/a	n/a	n/a	n/a	n/a	n/a	n/a	n/a	n/a	n/a	n/a	n/a	n/a	n/a	n/a	n/a	fixation
8614.0202262995299	2750.0	n/a	982	71	2750	2764.9797737	stim	stop-signal	200	639070	0.0-13.0-1.0	beast_fmri_test	317	636493,/,637171,/,637853,/,638532,/,639212,/,639891,/,640570,/,641250,/	t,t,t,t,t,t,t,t	<img class = center src='/static/experiments/beast_fmri_test/images/B.png'></img>	89,71	2750.0	test	<img class = center src='/static/experiments/beast_fmri_test/images/redB.png'></img>	go	-1.0	1.0	0.0	go	temp-non-target	B	89,Middle Finger	71,Index Finger	1000.0	600.0	1800.0	2150.0	0.0	n/a	n/a	n/a	go_stim
11364.02022629953	2764.9797737	n/a	982	71	2750	2764.9797737	stim	stop-signal	200	639070	0.0-13.0-1.0	beast_fmri_test	317	636493,/,637171,/,637853,/,638532,/,639212,/,639891,/,640570,/,641250,/	t,t,t,t,t,t,t,t	<img class = center src='/static/experiments/beast_fmri_test/images/B.png'></img>	89,71	2750.0	test	<img class = center src='/static/experiments/beast_fmri_test/images/redB.png'></img>	go	-1.0	1.0	0.0	go	temp-non-target	B	89,Middle Finger	71,Index Finger	1000.0	600.0	1800.0	2150.0	0.0	n/a	n/a	n/a	ITI
17415	500.0	n/a	-1	-1	500	0.0	fixation	poldrack-single-stim	201	642356	0.0-13.1-0.1	beast_fmri_test	317	641929,/	t	<div class = centerbox2><div class = fixation>+</div></div>	none	500.0	test	n/a	n/a	n/a	n/a	n/a	n/a	n/a	n/a	n/a	n/a	n/a	n/a	n/a	n/a	n/a	n/a	n/a	n/a	fixation
15773.082836950663	2750.0	n/a	696	71	2750	1642.91716305	stim	stop-signal	202	645107	0.0-13.1-1.1	beast_fmri_test	317	642610,/,643288,/,643969,/,644650,/,645328,/,646008,/,646688,/	t,t,t,t,t,t,t	<img class = center src='/static/experiments/beast_fmri_test/images/T.png'></img>	89,71	2750.0	test	<img class = center src='/static/experiments/beast_fmri_test/images/redT.png'></img>	go	2150.0	1.0	1.0	go	non-target	T	89,Middle Finger	71,Index Finger	1000.0	600.0	1800.0	2150.0	1.0	n/a	600.0	1.0	go_stim
18523.082836950663	1642.91716305	n/a	696	71	2750	1642.91716305	stim	stop-signal	202	645107	0.0-13.1-1.1	beast_fmri_test	317	642610,/,643288,/,643969,/,644650,/,645328,/,646008,/,646688,/	t,t,t,t,t,t,t	<img class = center src='/static/experiments/beast_fmri_test/images/T.png'></img>	89,71	2750.0	test	<img class = center src='/static/experiments/beast_fmri_test/images/redT.png'></img>	go	2150.0	1.0	1.0	go	non-target	T	89,Middle Finger	71,Index Finger	1000.0	600.0	1800.0	2150.0	1.0	n/a	600.0	1.0	ITI
22330	500.0	n/a	-1	-1	500	0.0	fixation	poldrack-single-stim	203	647271	0.0-13.2-0.2	beast_fmri_test	317	n/a	n/a	<div class = centerbox2><div class = fixation>+</div></div>	none	500.0	test	n/a	n/a	n/a	n/a	n/a	n/a	n/a	n/a	n/a	n/a	n/a	n/a	n/a	n/a	n/a	n/a	n/a	n/a	fixation
20829.277650470613	1000.0	n/a	735	89	2750	1502.72234953	stim	stop-signal	204	650023	0.0-13.2-1.2	beast_fmri_test	317	647368,/,648047,/,648727,/,649408,/,650085,/,650766,/,651447,/	t,t,t,t,t,t,t	<img class = center src='/static/experiments/beast_fmri_test/images/T.png'></img>	89,71	2750.0	test	<img class = center src='/static/experiments/beast_fmri_test/images/redT.png'></img>	stop	1750.0	1.0	2.0	stop	target	T	89,Middle Finger	71,Index Finger	1000.0	600.0	1750.0	2150.0	0.0	0.0	1000.0	n/a	go_stim
22579.277650470613	1750.0	n/a	735	89	2750	1502.72234953	stim	stop-signal	204	650023	0.0-13.2-1.2	beast_fmri_test	317	647368,/,648047,/,648727,/,649408,/,650085,/,650766,/,651447,/	t,t,t,t,t,t,t	<img class = center src='/static/experiments/beast_fmri_test/images/T.png'></img>	89,71	2750.0	test	<img class = center src='/static/experiments/beast_fmri_test/images/redT.png'></img>	stop	1750.0	1.0	2.0	stop	target	T	89,Middle Finger	71,Index Finger	1000.0	600.0	1750.0	2150.0	0.0	0.0	1000.0	n/a	stop_stim
23579.277650470613	1502.72234953	n/a	735	89	2750	1502.72234953	stim	stop-signal	204	650023	0.0-13.2-1.2	beast_fmri_test	317	647368,/,648047,/,648727,/,649408,/,650085,/,650766,/,651447,/	t,t,t,t,t,t,t	<img class = center src='/static/experiments/beast_fmri_test/images/T.png'></img>	89,71	2750.0	test	<img class = center src='/static/experiments/beast_fmri_test/images/redT.png'></img>	stop	1750.0	1.0	2.0	stop	target	T	89,Middle Finger	71,Index Finger	1000.0	600.0	1750.0	2150.0	0.0	0.0	1000.0	n/a	ITI
27105	500.0	n/a	-1	-1	500	0.0	fixation	poldrack-single-stim	205	652046	0.0-13.3-0.3	beast_fmri_test	317	n/a	n/a	<div class = centerbox2><div class = fixation>+</div></div>	none	500.0	test	n/a	n/a	n/a	n/a	n/a	n/a	n/a	n/a	n/a	n/a	n/a	n/a	n/a	n/a	n/a	n/a	n/a	n/a	fixation
24438.596729002893	950.0	n/a	1033	89	2750	2668.403271	stim	stop-signal	206	654798	0.0-13.3-1.3	beast_fmri_test	317	652125,/,652805,/,653486,/,654165,/,654843,/,655523,/,656203,/,656883,/	t,t,t,t,t,t,t,t	<img class = center src='/static/experiments/beast_fmri_test/images/T.png'></img>	89,71	2750.0	test	<img class = center src='/static/experiments/beast_fmri_test/images/redT.png'></img>	stop	1800.0	1.0	3.0	stop	target	T	89,Middle Finger	71,Index Finger	950.0	600.0	1800.0	2150.0	0.0	0.0	950.0	n/a	go_stim
26238.596729002893	1800.0	n/a	1033	89	2750	2668.403271	stim	stop-signal	206	654798	0.0-13.3-1.3	beast_fmri_test	317	652125,/,652805,/,653486,/,654165,/,654843,/,655523,/,656203,/,656883,/	t,t,t,t,t,t,t,t	<img class = center src='/static/experiments/beast_fmri_test/images/T.png'></img>	89,71	2750.0	test	<img class = center src='/static/experiments/beast_fmri_test/images/redT.png'></img>	stop	1800.0	1.0	3.0	stop	target	T	89,Middle Finger	71,Index Finger	950.0	600.0	1800.0	2150.0	0.0	0.0	950.0	n/a	stop_stim
27188.596729002893	2668.403271	n/a	1033	89	2750	2668.403271	stim	stop-signal	206	654798	0.0-13.3-1.3	beast_fmri_test	317	652125,/,652805,/,653486,/,654165,/,654843,/,655523,/,656203,/,656883,/	t,t,t,t,t,t,t,t	<img class = center src='/static/experiments/beast_fmri_test/images/T.png'></img>	89,71	2750.0	test	<img class = center src='/static/experiments/beast_fmri_test/images/redT.png'></img>	stop	1800.0	1.0	3.0	stop	target	T	89,Middle Finger	71,Index Finger	950.0	600.0	1800.0	2150.0	0.0	0.0	950.0	n/a	ITI
33046	500.0	n/a	-1	-1	500	0.0	fixation	poldrack-single-stim	207	657987	0.0-13.4-0.4	beast_fmri_test	317	657562,/	t	<div class = centerbox2><div class = fixation>+</div></div>	none	500.0	test	n/a	n/a	n/a	n/a	n/a	n/a	n/a	n/a	n/a	n/a	n/a	n/a	n/a	n/a	n/a	n/a	n/a	n/a	fixation
32278.603114532307	2750.0	n/a	1064	89	2750	769.396885468	stim	stop-signal	208	660739	0.0-13.4-1.4	beast_fmri_test	317	658243,/,658922,/,659601,/,660281,/,660961,/	t,t,t,t,t	<img class = center src='/static/experiments/beast_fmri_test/images/T.png'></img>	89,71	2750.0	test	<img class = center src='/static/experiments/beast_fmri_test/images/redT.png'></img>	go	1850.0	1.0	4.0	go	target	T	89,Middle Finger	71,Index Finger	900.0	600.0	1850.0	2150.0	1.0	n/a	900.0	1.0	go_stim
35028.603114532307	769.396885468	n/a	1064	89	2750	769.396885468	stim	stop-signal	208	660739	0.0-13.4-1.4	beast_fmri_test	317	658243,/,658922,/,659601,/,660281,/,660961,/	t,t,t,t,t	<img class = center src='/static/experiments/beast_fmri_test/images/T.png'></img>	89,71	2750.0	test	<img class = center src='/static/experiments/beast_fmri_test/images/redT.png'></img>	go	1850.0	1.0	4.0	go	target	T	89,Middle Finger	71,Index Finger	900.0	600.0	1850.0	2150.0	1.0	n/a	900.0	1.0	ITI
37092	500.0	n/a	-1	-1	500	0.0	fixation	poldrack-single-stim	209	662033	0.0-13.5-0.5	beast_fmri_test	317	661641,/	t	<div class = centerbox2><div class = fixation>+</div></div>	none	500.0	test	n/a	n/a	n/a	n/a	n/a	n/a	n/a	n/a	n/a	n/a	n/a	n/a	n/a	n/a	n/a	n/a	n/a	n/a	fixation
34685.859044191893	900.0	n/a	-1	-1	2750	2407.14095581	stim	stop-signal	210	664784	0.0-13.5-1.5	beast_fmri_test	317	662321,/,663000,/,663680,/,664359,/,665039,/,665718,/,666399,/,667079,/	t,t,t,t,t,t,t,t	<img class = center src='/static/experiments/beast_fmri_test/images/T.png'></img>	89,71	2750.0	test	<img class = center src='/static/experiments/beast_fmri_test/images/redT.png'></img>	stop	1850.0	1.0	5.0	stop	target	T	89,Middle Finger	71,Index Finger	900.0	600.0	1850.0	2150.0	0.0	1.0	900.0	n/a	go_stim
36535.859044191893	1850.0	n/a	-1	-1	2750	2407.14095581	stim	stop-signal	210	664784	0.0-13.5-1.5	beast_fmri_test	317	662321,/,663000,/,663680,/,664359,/,665039,/,665718,/,666399,/,667079,/	t,t,t,t,t,t,t,t	<img class = center src='/static/experiments/beast_fmri_test/images/T.png'></img>	89,71	2750.0	test	<img class = center src='/static/experiments/beast_fmri_test/images/redT.png'></img>	stop	1850.0	1.0	5.0	stop	target	T	89,Middle Finger	71,Index Finger	900.0	600.0	1850.0	2150.0	0.0	1.0	900.0	n/a	stop_stim
37435.859044191893	2407.14095581	n/a	-1	-1	2750	2407.14095581	stim	stop-signal	210	664784	0.0-13.5-1.5	beast_fmri_test	317	662321,/,663000,/,663680,/,664359,/,665039,/,665718,/,666399,/,667079,/	t,t,t,t,t,t,t,t	<img class = center src='/static/experiments/beast_fmri_test/images/T.png'></img>	89,71	2750.0	test	<img class = center src='/static/experiments/beast_fmri_test/images/redT.png'></img>	stop	1850.0	1.0	5.0	stop	target	T	89,Middle Finger	71,Index Finger	900.0	600.0	1850.0	2150.0	0.0	1.0	900.0	n/a	ITI
42771	500.0	n/a	-1	-1	500	0.0	fixation	poldrack-single-stim	211	667712	0.0-13.6-0.6	beast_fmri_test	317	n/a	n/a	<div class = centerbox2><div class = fixation>+</div></div>	none	500.0	test	n/a	n/a	n/a	n/a	n/a	n/a	n/a	n/a	n/a	n/a	n/a	n/a	n/a	n/a	n/a	n/a	n/a	n/a	fixation
42720.864177360665	2750.0	n/a	830	71	2750	51.1358226394	stim	stop-signal	212	670463	0.0-13.6-1.6	beast_fmri_test	317	667757,/,668438,/,669116,/,669796,/,670475,/	t,t,t,t,t	<img class = center src='/static/experiments/beast_fmri_test/images/P.png'></img>	89,71	2750.0	test	<img class = center src='/static/experiments/beast_fmri_test/images/redP.png'></img>	go	2150.0	1.0	6.0	go	non-target	P	89,Middle Finger	71,Index Finger	950.0	600.0	1850.0	2150.0	1.0	n/a	600.0	1.0	go_stim
45470.864177360665	51.1358226394	n/a	830	71	2750	51.1358226394	stim	stop-signal	212	670463	0.0-13.6-1.6	beast_fmri_test	317	667757,/,668438,/,669116,/,669796,/,670475,/	t,t,t,t,t	<img class = center src='/static/experiments/beast_fmri_test/images/P.png'></img>	89,71	2750.0	test	<img class = center src='/static/experiments/beast_fmri_test/images/redP.png'></img>	go	2150.0	1.0	6.0	go	non-target	P	89,Middle Finger	71,Index Finger	950.0	600.0	1850.0	2150.0	1.0	n/a	600.0	1.0	ITI
46095	500.0	n/a	-1	-1	500	0.0	fixation	poldrack-single-stim	213	671036	0.0-13.7-0.7	beast_fmri_test	317	n/a	n/a	<div class = centerbox2><div class = fixation>+</div></div>	none	500.0	test	n/a	n/a	n/a	n/a	n/a	n/a	n/a	n/a	n/a	n/a	n/a	n/a	n/a	n/a	n/a	n/a	n/a	n/a	fixation
45632.450842670165	600.0	n/a	-1	-1	2750	463.54915733	stim	stop-signal	214	673787	0.0-13.7-1.7	beast_fmri_test	317	671155,/,671836,/,672517,/,673195,/,673875,/	t,t,t,t,t	<img class = center src='/static/experiments/beast_fmri_test/images/B.png'></img>	89,71	2750.0	test	<img class = center src='/static/experiments/beast_fmri_test/images/redB.png'></img>	stop	2150.0	1.0	7.0	stop	non-target	B	89,Middle Finger	71,Index Finger	950.0	600.0	1850.0	2150.0	0.0	1.0	600.0	n/a	go_stim
47782.450842670165	2150.0	n/a	-1	-1	2750	463.54915733	stim	stop-signal	214	673787	0.0-13.7-1.7	beast_fmri_test	317	671155,/,671836,/,672517,/,673195,/,673875,/	t,t,t,t,t	<img class = center src='/static/experiments/beast_fmri_test/images/B.png'></img>	89,71	2750.0	test	<img class = center src='/static/experiments/beast_fmri_test/images/redB.png'></img>	stop	2150.0	1.0	7.0	stop	non-target	B	89,Middle Finger	71,Index Finger	950.0	600.0	1850.0	2150.0	0.0	1.0	600.0	n/a	stop_stim
48382.450842670165	463.54915733	n/a	-1	-1	2750	463.54915733	stim	stop-signal	214	673787	0.0-13.7-1.7	beast_fmri_test	317	671155,/,671836,/,672517,/,673195,/,673875,/	t,t,t,t,t	<img class = center src='/static/experiments/beast_fmri_test/images/B.png'></img>	89,71	2750.0	test	<img class = center src='/static/experiments/beast_fmri_test/images/redB.png'></img>	stop	2150.0	1.0	7.0	stop	non-target	B	89,Middle Finger	71,Index Finger	950.0	600.0	1850.0	2150.0	0.0	1.0	600.0	n/a	ITI
49838	500.0	n/a	-1	-1	500	0.0	fixation	poldrack-single-stim	215	674779	0.0-13.8-0.8	beast_fmri_test	317	674555,/	t	<div class = centerbox2><div class = fixation>+</div></div>	none	500.0	test	n/a	n/a	n/a	n/a	n/a	n/a	n/a	n/a	n/a	n/a	n/a	n/a	n/a	n/a	n/a	n/a	n/a	n/a	fixation
49583.014852217399	2750.0	n/a	1060	89	2750	254.985147783	stim	stop-signal	216	677529	0.0-13.8-1.8	beast_fmri_test	317	675236,/,675915,/,676595,/,677275,/	t,t,t,t	<img class = center src='/static/experiments/beast_fmri_test/images/B.png'></img>	89,71	2750.0	test	<img class = center src='/static/experiments/beast_fmri_test/images/redB.png'></img>	go	1800.0	1.0	8.0	go	target	B	89,Middle Finger	71,Index Finger	950.0	650.0	1800.0	2150.0	1.0	n/a	950.0	1.0	go_stim
52333.014852217399	254.985147783	n/a	1060	89	2750	254.985147783	stim	stop-signal	216	677529	0.0-13.8-1.8	beast_fmri_test	317	675236,/,675915,/,676595,/,677275,/	t,t,t,t	<img class = center src='/static/experiments/beast_fmri_test/images/B.png'></img>	89,71	2750.0	test	<img class = center src='/static/experiments/beast_fmri_test/images/redB.png'></img>	go	1800.0	1.0	8.0	go	target	B	89,Middle Finger	71,Index Finger	950.0	650.0	1800.0	2150.0	1.0	n/a	950.0	1.0	ITI
53367	500.0	n/a	-1	-1	500	0.0	fixation	poldrack-single-stim	217	678308	0.0-13.9-0.9	beast_fmri_test	317	677954,/	t	<div class = centerbox2><div class = fixation>+</div></div>	none	500.0	test	n/a	n/a	n/a	n/a	n/a	n/a	n/a	n/a	n/a	n/a	n/a	n/a	n/a	n/a	n/a	n/a	n/a	n/a	fixation
53329.894092200208	2750.0	n/a	1230	71	2750	38.1059077998	stim	stop-signal	218	681059	0.0-13.9-1.9	beast_fmri_test	317	678633,/,679313,/,679992,/,680673,/	t,t,t,t	<img class = center src='/static/experiments/beast_fmri_test/images/P.png'></img>	89,71	2750.0	test	<img class = center src='/static/experiments/beast_fmri_test/images/redP.png'></img>	go	2100.0	1.0	9.0	go	non-target	P	89,Middle Finger	71,Index Finger	950.0	650.0	1800.0	2100.0	1.0	n/a	650.0	1.0	go_stim
56079.894092200208	38.1059077998	n/a	1230	71	2750	38.1059077998	stim	stop-signal	218	681059	0.0-13.9-1.9	beast_fmri_test	317	678633,/,679313,/,679992,/,680673,/	t,t,t,t	<img class = center src='/static/experiments/beast_fmri_test/images/P.png'></img>	89,71	2750.0	test	<img class = center src='/static/experiments/beast_fmri_test/images/redP.png'></img>	go	2100.0	1.0	9.0	go	non-target	P	89,Middle Finger	71,Index Finger	950.0	650.0	1800.0	2100.0	1.0	n/a	650.0	1.0	ITI
56684	500.0	n/a	-1	-1	500	0.0	fixation	poldrack-single-stim	219	681625	0.0-13.10-0.10	beast_fmri_test	317	681353,/	t	<div class = centerbox2><div class = fixation>+</div></div>	none	500.0	test	n/a	n/a	n/a	n/a	n/a	n/a	n/a	n/a	n/a	n/a	n/a	n/a	n/a	n/a	n/a	n/a	n/a	n/a	fixation
55991.028739597765	2750.0	n/a	-1	-1	2750	693.971260402	stim	stop-signal	220	684376	0.0-13.10-1.10	beast_fmri_test	317	682032,/,682711,/,683390,/,684070,/,684750,/	t,t,t,t,t	<img class = center src='/static/experiments/beast_fmri_test/images/V.png'></img>	89,71	2750.0	test	<img class = center src='/static/experiments/beast_fmri_test/images/redV.png'></img>	go	2100.0	1.0	10.0	go	non-target	V	89,Middle Finger	71,Index Finger	950.0	650.0	1800.0	2100.0	0.0	n/a	650.0	0.0	go_stim
58741.028739597765	693.971260402	n/a	-1	-1	2750	693.971260402	stim	stop-signal	220	684376	0.0-13.10-1.10	beast_fmri_test	317	682032,/,682711,/,683390,/,684070,/,684750,/	t,t,t,t,t	<img class = center src='/static/experiments/beast_fmri_test/images/V.png'></img>	89,71	2750.0	test	<img class = center src='/static/experiments/beast_fmri_test/images/redV.png'></img>	go	2100.0	1.0	10.0	go	non-target	V	89,Middle Finger	71,Index Finger	950.0	650.0	1800.0	2100.0	0.0	n/a	650.0	0.0	ITI
60656	500.0	n/a	-1	-1	500	0.0	fixation	poldrack-single-stim	221	685597	0.0-13.11-0.11	beast_fmri_test	317	685430,/	t	<div class = centerbox2><div class = fixation>+</div></div>	none	500.0	test	n/a	n/a	n/a	n/a	n/a	n/a	n/a	n/a	n/a	n/a	n/a	n/a	n/a	n/a	n/a	n/a	n/a	n/a	fixation
59998.557547594421	2750.0	n/a	1304	71	2750	659.442452406	stim	stop-signal	222	688349	0.0-13.11-1.11	beast_fmri_test	317	686111,/,686790,/,687468,/,688149,/,688828,/	t,t,t,t,t	<img class = center src='/static/experiments/beast_fmri_test/images/P.png'></img>	89,71	2750.0	test	<img class = center src='/static/experiments/beast_fmri_test/images/redP.png'></img>	go	2100.0	1.0	11.0	go	non-target	P	89,Middle Finger	71,Index Finger	950.0	650.0	1800.0	2100.0	1.0	n/a	650.0	1.0	go_stim
62748.557547594421	659.442452406	n/a	1304	71	2750	659.442452406	stim	stop-signal	222	688349	0.0-13.11-1.11	beast_fmri_test	317	686111,/,686790,/,687468,/,688149,/,688828,/	t,t,t,t,t	<img class = center src='/static/experiments/beast_fmri_test/images/P.png'></img>	89,71	2750.0	test	<img class = center src='/static/experiments/beast_fmri_test/images/redP.png'></img>	go	2100.0	1.0	11.0	go	non-target	P	89,Middle Finger	71,Index Finger	950.0	650.0	1800.0	2100.0	1.0	n/a	650.0	1.0	ITI
64591	500.0	n/a	-1	-1	500	0.0	fixation	poldrack-single-stim	223	689532	0.0-13.12-0.12	beast_fmri_test	317	689509,/	t	<div class = centerbox2><div class = fixation>+</div></div>	none	500.0	test	n/a	n/a	n/a	n/a	n/a	n/a	n/a	n/a	n/a	n/a	n/a	n/a	n/a	n/a	n/a	n/a	n/a	n/a	fixation
62222.016339646769	2750.0	n/a	1191	71	2750	2370.98366035	stim	stop-signal	224	692284	0.0-13.12-1.12	beast_fmri_test	317	690188,/,690868,/,691548,/,692228,/,692907,/,693586,/,694265,/	t,t,t,t,t,t,t	<img class = center src='/static/experiments/beast_fmri_test/images/D.png'></img>	89,71	2750.0	test	<img class = center src='/static/experiments/beast_fmri_test/images/redD.png'></img>	go	2100.0	1.0	12.0	go	non-target	D	89,Middle Finger	71,Index Finger	950.0	650.0	1800.0	2100.0	1.0	n/a	650.0	1.0	go_stim
64972.016339646769	2370.98366035	n/a	1191	71	2750	2370.98366035	stim	stop-signal	224	692284	0.0-13.12-1.12	beast_fmri_test	317	690188,/,690868,/,691548,/,692228,/,692907,/,693586,/,694265,/	t,t,t,t,t,t,t	<img class = center src='/static/experiments/beast_fmri_test/images/D.png'></img>	89,71	2750.0	test	<img class = center src='/static/experiments/beast_fmri_test/images/redD.png'></img>	go	2100.0	1.0	12.0	go	non-target	D	89,Middle Finger	71,Index Finger	950.0	650.0	1800.0	2100.0	1.0	n/a	650.0	1.0	ITI
70239	500.0	n/a	-1	-1	500	0.0	fixation	poldrack-single-stim	225	695180	0.0-13.13-0.13	beast_fmri_test	317	694945,/	t	<div class = centerbox2><div class = fixation>+</div></div>	none	500.0	test	n/a	n/a	n/a	n/a	n/a	n/a	n/a	n/a	n/a	n/a	n/a	n/a	n/a	n/a	n/a	n/a	n/a	n/a	fixation
69966.139859296614	950.0	n/a	705	71	2750	273.860140703	stim	stop-signal	226	697931	0.0-13.13-1.13	beast_fmri_test	317	695625,/,696304,/,696985,/,697664,/	t,t,t,t	<img class = center src='/static/experiments/beast_fmri_test/images/D.png'></img>	89,71	2750.0	test	<img class = center src='/static/experiments/beast_fmri_test/images/redD.png'></img>	stop	1800.0	1.0	13.0	stop	target	D	89,Middle Finger	71,Index Finger	950.0	650.0	1800.0	2100.0	0.0	0.0	950.0	n/a	go_stim
71766.139859296614	1800.0	n/a	705	71	2750	273.860140703	stim	stop-signal	226	697931	0.0-13.13-1.13	beast_fmri_test	317	695625,/,696304,/,696985,/,697664,/	t,t,t,t	<img class = center src='/static/experiments/beast_fmri_test/images/D.png'></img>	89,71	2750.0	test	<img class = center src='/static/experiments/beast_fmri_test/images/redD.png'></img>	stop	1800.0	1.0	13.0	stop	target	D	89,Middle Finger	71,Index Finger	950.0	650.0	1800.0	2100.0	0.0	0.0	950.0	n/a	stop_stim
72716.139859296614	273.860140703	n/a	705	71	2750	273.860140703	stim	stop-signal	226	697931	0.0-13.13-1.13	beast_fmri_test	317	695625,/,696304,/,696985,/,697664,/	t,t,t,t	<img class = center src='/static/experiments/beast_fmri_test/images/D.png'></img>	89,71	2750.0	test	<img class = center src='/static/experiments/beast_fmri_test/images/redD.png'></img>	stop	1800.0	1.0	13.0	stop	target	D	89,Middle Finger	71,Index Finger	950.0	650.0	1800.0	2100.0	0.0	0.0	950.0	n/a	ITI
73791	500.0	n/a	-1	-1	500	0.0	fixation	poldrack-single-stim	227	698732	0.0-13.14-0.14	beast_fmri_test	317	698343,/	t	<div class = centerbox2><div class = fixation>+</div></div>	none	500.0	test	n/a	n/a	n/a	n/a	n/a	n/a	n/a	n/a	n/a	n/a	n/a	n/a	n/a	n/a	n/a	n/a	n/a	n/a	fixation
73443.45630840573	2750.0	n/a	1472	89	2750	349.543691594	stim	stop-signal	228	701484	0.0-13.14-1.14	beast_fmri_test	317	699023,/,699703,/,700384,/,701063,/,701742,/	t,t,t,t,t	<img class = center src='/static/experiments/beast_fmri_test/images/D.png'></img>	89,71	2750.0	test	<img class = center src='/static/experiments/beast_fmri_test/images/redD.png'></img>	go	1850.0	1.0	14.0	go	target	D	89,Middle Finger	71,Index Finger	900.0	650.0	1850.0	2100.0	1.0	n/a	900.0	1.0	go_stim
76193.45630840573	349.543691594	n/a	1472	89	2750	349.543691594	stim	stop-signal	228	701484	0.0-13.14-1.14	beast_fmri_test	317	699023,/,699703,/,700384,/,701063,/,701742,/	t,t,t,t,t	<img class = center src='/static/experiments/beast_fmri_test/images/D.png'></img>	89,71	2750.0	test	<img class = center src='/static/experiments/beast_fmri_test/images/redD.png'></img>	go	1850.0	1.0	14.0	go	target	D	89,Middle Finger	71,Index Finger	900.0	650.0	1850.0	2100.0	1.0	n/a	900.0	1.0	ITI
77418	500.0	n/a	-1	-1	500	0.0	fixation	poldrack-single-stim	229	702359	0.0-13.15-0.15	beast_fmri_test	317	n/a	n/a	<div class = centerbox2><div class = fixation>+</div></div>	none	500.0	test	n/a	n/a	n/a	n/a	n/a	n/a	n/a	n/a	n/a	n/a	n/a	n/a	n/a	n/a	n/a	n/a	n/a	n/a	fixation
77164.822858054191	2750.0	n/a	1158	71	2750	255.177141946	stim	stop-signal	230	705111	0.0-13.15-1.15	beast_fmri_test	317	702422,/,703102,/,703782,/,704461,/,705140,/	t,t,t,t,t	<img class = center src='/static/experiments/beast_fmri_test/images/T.png'></img>	89,71	2750.0	test	<img class = center src='/static/experiments/beast_fmri_test/images/redT.png'></img>	go	2100.0	1.0	15.0	go	non-target	T	89,Middle Finger	71,Index Finger	900.0	650.0	1850.0	2100.0	1.0	n/a	650.0	1.0	go_stim
79914.822858054191	255.177141946	n/a	1158	71	2750	255.177141946	stim	stop-signal	230	705111	0.0-13.15-1.15	beast_fmri_test	317	702422,/,703102,/,703782,/,704461,/,705140,/	t,t,t,t,t	<img class = center src='/static/experiments/beast_fmri_test/images/T.png'></img>	89,71	2750.0	test	<img class = center src='/static/experiments/beast_fmri_test/images/redT.png'></img>	go	2100.0	1.0	15.0	go	non-target	T	89,Middle Finger	71,Index Finger	900.0	650.0	1850.0	2100.0	1.0	n/a	650.0	1.0	ITI
80952	500.0	n/a	-1	-1	500	0.0	fixation	poldrack-single-stim	231	705893	0.0-13.16-0.16	beast_fmri_test	317	705822,/	t	<div class = centerbox2><div class = fixation>+</div></div>	none	500.0	test	n/a	n/a	n/a	n/a	n/a	n/a	n/a	n/a	n/a	n/a	n/a	n/a	n/a	n/a	n/a	n/a	n/a	n/a	fixation
78844.056442815228	2750.0	n/a	993	89	2750	2110.94355718	stim	stop-signal	232	708646	0.0-13.16-1.16	beast_fmri_test	317	706500,/,707181,/,707859,/,708540,/,709219,/,709899,/,710579,/	t,t,t,t,t,t,t	<img class = center src='/static/experiments/beast_fmri_test/images/T.png'></img>	89,71	2750.0	test	<img class = center src='/static/experiments/beast_fmri_test/images/redT.png'></img>	go	1850.0	1.0	16.0	go	target	T	89,Middle Finger	71,Index Finger	900.0	650.0	1850.0	2100.0	1.0	n/a	900.0	1.0	go_stim
81594.056442815228	2110.94355718	n/a	993	89	2750	2110.94355718	stim	stop-signal	232	708646	0.0-13.16-1.16	beast_fmri_test	317	706500,/,707181,/,707859,/,708540,/,709219,/,709899,/,710579,/	t,t,t,t,t,t,t	<img class = center src='/static/experiments/beast_fmri_test/images/T.png'></img>	89,71	2750.0	test	<img class = center src='/static/experiments/beast_fmri_test/images/redT.png'></img>	go	1850.0	1.0	16.0	go	target	T	89,Middle Finger	71,Index Finger	900.0	650.0	1850.0	2100.0	1.0	n/a	900.0	1.0	ITI
86341	500.0	n/a	-1	-1	500	0.0	fixation	poldrack-single-stim	233	711282	0.0-13.17-0.17	beast_fmri_test	317	711258,/	t	<div class = centerbox2><div class = fixation>+</div></div>	none	500.0	test	n/a	n/a	n/a	n/a	n/a	n/a	n/a	n/a	n/a	n/a	n/a	n/a	n/a	n/a	n/a	n/a	n/a	n/a	fixation
86129.53629303223	2750.0	n/a	1123	89	2750	212.463706968	stim	stop-signal	234	714033	0.0-13.17-1.17	beast_fmri_test	317	711938,/,712617,/,713297,/,713977,/	t,t,t,t	<img class = center src='/static/experiments/beast_fmri_test/images/T.png'></img>	89,71	2750.0	test	<img class = center src='/static/experiments/beast_fmri_test/images/redT.png'></img>	go	1850.0	1.0	17.0	go	target	T	89,Middle Finger	71,Index Finger	900.0	650.0	1850.0	2100.0	1.0	n/a	900.0	1.0	go_stim
88879.53629303223	212.463706968	n/a	1123	89	2750	212.463706968	stim	stop-signal	234	714033	0.0-13.17-1.17	beast_fmri_test	317	711938,/,712617,/,713297,/,713977,/	t,t,t,t	<img class = center src='/static/experiments/beast_fmri_test/images/T.png'></img>	89,71	2750.0	test	<img class = center src='/static/experiments/beast_fmri_test/images/redT.png'></img>	go	1850.0	1.0	17.0	go	target	T	89,Middle Finger	71,Index Finger	900.0	650.0	1850.0	2100.0	1.0	n/a	900.0	1.0	ITI
89833	500.0	n/a	-1	-1	500	0.0	fixation	poldrack-single-stim	235	714774	0.0-13.18-0.18	beast_fmri_test	317	714658,/	t	<div class = centerbox2><div class = fixation>+</div></div>	none	500.0	test	n/a	n/a	n/a	n/a	n/a	n/a	n/a	n/a	n/a	n/a	n/a	n/a	n/a	n/a	n/a	n/a	n/a	n/a	fixation
89022.291933157248	2750.0	n/a	951	71	2750	811.708066843	stim	stop-signal	236	717525	0.0-13.18-1.18	beast_fmri_test	317	715336,/,716016,/,716695,/,717374,/,718054,/	t,t,t,t,t	<img class = center src='/static/experiments/beast_fmri_test/images/V.png'></img>	89,71	2750.0	test	<img class = center src='/static/experiments/beast_fmri_test/images/redV.png'></img>	go	2100.0	1.0	18.0	go	non-target	V	89,Middle Finger	71,Index Finger	900.0	650.0	1850.0	2100.0	1.0	n/a	650.0	1.0	go_stim
91772.291933157248	811.708066843	n/a	951	71	2750	811.708066843	stim	stop-signal	236	717525	0.0-13.18-1.18	beast_fmri_test	317	715336,/,716016,/,716695,/,717374,/,718054,/	t,t,t,t,t	<img class = center src='/static/experiments/beast_fmri_test/images/V.png'></img>	89,71	2750.0	test	<img class = center src='/static/experiments/beast_fmri_test/images/redV.png'></img>	go	2100.0	1.0	18.0	go	non-target	V	89,Middle Finger	71,Index Finger	900.0	650.0	1850.0	2100.0	1.0	n/a	650.0	1.0	ITI
93922	500.0	n/a	-1	-1	500	0.0	fixation	poldrack-single-stim	237	718863	0.0-13.19-0.19	beast_fmri_test	317	718734,/	t	<div class = centerbox2><div class = fixation>+</div></div>	none	500.0	test	n/a	n/a	n/a	n/a	n/a	n/a	n/a	n/a	n/a	n/a	n/a	n/a	n/a	n/a	n/a	n/a	n/a	n/a	fixation
93572.810814177617	650.0	n/a	-1	-1	2750	351.189185822	stim	stop-signal	238	721615	0.0-13.19-1.19	beast_fmri_test	317	719415,/,720094,/,720774,/,721454,/	t,t,t,t	<img class = center src='/static/experiments/beast_fmri_test/images/D.png'></img>	89,71	2750.0	test	<img class = center src='/static/experiments/beast_fmri_test/images/redD.png'></img>	stop	2100.0	1.0	19.0	stop	non-target	D	89,Middle Finger	71,Index Finger	900.0	650.0	1850.0	2100.0	0.0	1.0	650.0	n/a	go_stim
95672.810814177617	2100.0	n/a	-1	-1	2750	351.189185822	stim	stop-signal	238	721615	0.0-13.19-1.19	beast_fmri_test	317	719415,/,720094,/,720774,/,721454,/	t,t,t,t	<img class = center src='/static/experiments/beast_fmri_test/images/D.png'></img>	89,71	2750.0	test	<img class = center src='/static/experiments/beast_fmri_test/images/redD.png'></img>	stop	2100.0	1.0	19.0	stop	non-target	D	89,Middle Finger	71,Index Finger	900.0	650.0	1850.0	2100.0	0.0	1.0	650.0	n/a	stop_stim
96322.810814177617	351.189185822	n/a	-1	-1	2750	351.189185822	stim	stop-signal	238	721615	0.0-13.19-1.19	beast_fmri_test	317	719415,/,720094,/,720774,/,721454,/	t,t,t,t	<img class = center src='/static/experiments/beast_fmri_test/images/D.png'></img>	89,71	2750.0	test	<img class = center src='/static/experiments/beast_fmri_test/images/redD.png'></img>	stop	2100.0	1.0	19.0	stop	non-target	D	89,Middle Finger	71,Index Finger	900.0	650.0	1850.0	2100.0	0.0	1.0	650.0	n/a	ITI
97551	500.0	n/a	-1	-1	500	0.0	fixation	poldrack-single-stim	239	722492	0.0-13.20-0.20	beast_fmri_test	317	722132,/	t	<div class = centerbox2><div class = fixation>+</div></div>	none	500.0	test	n/a	n/a	n/a	n/a	n/a	n/a	n/a	n/a	n/a	n/a	n/a	n/a	n/a	n/a	n/a	n/a	n/a	n/a	fixation
96585.698227895191	2750.0	n/a	1700	71	2750	967.301772105	stim	stop-signal	240	725244	0.0-13.20-1.20	beast_fmri_test	317	722814,/,723492,/,724172,/,724852,/,725532,/,726211,/	t,t,t,t,t,t	<img class = center src='/static/experiments/beast_fmri_test/images/T.png'></img>	89,71	2750.0	test	<img class = center src='/static/experiments/beast_fmri_test/images/redT.png'></img>	go	2050.0	1.0	20.0	go	non-target	T	89,Middle Finger	71,Index Finger	900.0	700.0	1850.0	2050.0	1.0	n/a	700.0	1.0	go_stim
99335.698227895191	967.301772105	n/a	1700	71	2750	967.301772105	stim	stop-signal	240	725244	0.0-13.20-1.20	beast_fmri_test	317	722814,/,723492,/,724172,/,724852,/,725532,/,726211,/	t,t,t,t,t,t	<img class = center src='/static/experiments/beast_fmri_test/images/T.png'></img>	89,71	2750.0	test	<img class = center src='/static/experiments/beast_fmri_test/images/redT.png'></img>	go	2050.0	1.0	20.0	go	non-target	T	89,Middle Finger	71,Index Finger	900.0	700.0	1850.0	2050.0	1.0	n/a	700.0	1.0	ITI
101797	500.0	n/a	-1	-1	500	0.0	fixation	poldrack-single-stim	241	726738	0.0-13.21-0.21	beast_fmri_test	317	n/a	n/a	<div class = centerbox2><div class = fixation>+</div></div>	none	500.0	test	n/a	n/a	n/a	n/a	n/a	n/a	n/a	n/a	n/a	n/a	n/a	n/a	n/a	n/a	n/a	n/a	n/a	n/a	fixation
100314.88932556112	2750.0	n/a	1143	89	2750	1483.11067444	stim	stop-signal	242	729489	0.0-13.21-1.21	beast_fmri_test	317	726890,/,727570,/,728252,/,728930,/,729610,/,730289,/,730969,/	t,t,t,t,t,t,t	<img class = center src='/static/experiments/beast_fmri_test/images/T.png'></img>	89,71	2750.0	test	<img class = center src='/static/experiments/beast_fmri_test/images/redT.png'></img>	go	1850.0	1.0	21.0	go	target	T	89,Middle Finger	71,Index Finger	900.0	700.0	1850.0	2050.0	1.0	n/a	900.0	1.0	go_stim
103064.88932556112	1483.11067444	n/a	1143	89	2750	1483.11067444	stim	stop-signal	242	729489	0.0-13.21-1.21	beast_fmri_test	317	726890,/,727570,/,728252,/,728930,/,729610,/,730289,/,730969,/	t,t,t,t,t,t,t	<img class = center src='/static/experiments/beast_fmri_test/images/T.png'></img>	89,71	2750.0	test	<img class = center src='/static/experiments/beast_fmri_test/images/redT.png'></img>	go	1850.0	1.0	21.0	go	target	T	89,Middle Finger	71,Index Finger	900.0	700.0	1850.0	2050.0	1.0	n/a	900.0	1.0	ITI
106559	500.0	n/a	-1	-1	500	0.0	fixation	poldrack-single-stim	243	731500	0.0-13.22-0.22	beast_fmri_test	317	n/a	n/a	<div class = centerbox2><div class = fixation>+</div></div>	none	500.0	test	n/a	n/a	n/a	n/a	n/a	n/a	n/a	n/a	n/a	n/a	n/a	n/a	n/a	n/a	n/a	n/a	n/a	n/a	fixation
102625.18784370925	2750.0	n/a	888	71	2750	3934.81215629	stim	stop-signal	244	734251	0.0-13.22-1.22	beast_fmri_test	317	731649,/,732329,/,733008,/,733688,/,734367,/,735046,/,735726,/,736406,/,737086,/,737766,/	t,t,t,t,t,t,t,t,t,t	<img class = center src='/static/experiments/beast_fmri_test/images/V.png'></img>	89,71	2750.0	test	<img class = center src='/static/experiments/beast_fmri_test/images/redV.png'></img>	go	2050.0	1.0	22.0	go	non-target	V	89,Middle Finger	71,Index Finger	900.0	700.0	1850.0	2050.0	1.0	n/a	700.0	1.0	go_stim
105375.18784370925	3934.81215629	n/a	888	71	2750	3934.81215629	stim	stop-signal	244	734251	0.0-13.22-1.22	beast_fmri_test	317	731649,/,732329,/,733008,/,733688,/,734367,/,735046,/,735726,/,736406,/,737086,/,737766,/	t,t,t,t,t,t,t,t,t,t	<img class = center src='/static/experiments/beast_fmri_test/images/V.png'></img>	89,71	2750.0	test	<img class = center src='/static/experiments/beast_fmri_test/images/redV.png'></img>	go	2050.0	1.0	22.0	go	non-target	V	89,Middle Finger	71,Index Finger	900.0	700.0	1850.0	2050.0	1.0	n/a	700.0	1.0	ITI
113773	500.0	n/a	-1	-1	500	0.0	fixation	poldrack-single-stim	245	738714	0.0-13.23-0.23	beast_fmri_test	317	738446,/	t	<div class = centerbox2><div class = fixation>+</div></div>	none	500.0	test	n/a	n/a	n/a	n/a	n/a	n/a	n/a	n/a	n/a	n/a	n/a	n/a	n/a	n/a	n/a	n/a	n/a	n/a	fixation
113629.01348725986	700.0	n/a	1084	71	2750	144.98651274	stim	stop-signal	246	741465	0.0-13.23-1.23	beast_fmri_test	317	739125,/,739804,/,740486,/,741163,/	t,t,t,t	<img class = center src='/static/experiments/beast_fmri_test/images/T.png'></img>	89,71	2750.0	test	<img class = center src='/static/experiments/beast_fmri_test/images/redT.png'></img>	stop	2050.0	1.0	23.0	stop	non-target	T	89,Middle Finger	71,Index Finger	900.0	700.0	1850.0	2050.0	0.0	0.0	700.0	n/a	go_stim
115679.01348725986	2050.0	n/a	1084	71	2750	144.98651274	stim	stop-signal	246	741465	0.0-13.23-1.23	beast_fmri_test	317	739125,/,739804,/,740486,/,741163,/	t,t,t,t	<img class = center src='/static/experiments/beast_fmri_test/images/T.png'></img>	89,71	2750.0	test	<img class = center src='/static/experiments/beast_fmri_test/images/redT.png'></img>	stop	2050.0	1.0	23.0	stop	non-target	T	89,Middle Finger	71,Index Finger	900.0	700.0	1850.0	2050.0	0.0	0.0	700.0	n/a	stop_stim
116379.01348725986	144.98651274	n/a	1084	71	2750	144.98651274	stim	stop-signal	246	741465	0.0-13.23-1.23	beast_fmri_test	317	739125,/,739804,/,740486,/,741163,/	t,t,t,t	<img class = center src='/static/experiments/beast_fmri_test/images/T.png'></img>	89,71	2750.0	test	<img class = center src='/static/experiments/beast_fmri_test/images/redT.png'></img>	stop	2050.0	1.0	23.0	stop	non-target	T	89,Middle Finger	71,Index Finger	900.0	700.0	1850.0	2050.0	0.0	0.0	700.0	n/a	ITI
117196	500.0	n/a	-1	-1	500	0.0	fixation	poldrack-single-stim	247	742137	0.0-13.24-0.24	beast_fmri_test	317	741844,/	t	<div class = centerbox2><div class = fixation>+</div></div>	none	500.0	test	n/a	n/a	n/a	n/a	n/a	n/a	n/a	n/a	n/a	n/a	n/a	n/a	n/a	n/a	n/a	n/a	n/a	n/a	fixation
115702.02691724431	650.0	n/a	-1	-1	2750	1495.97308276	stim	stop-signal	248	744889	0.0-13.24-1.24	beast_fmri_test	317	742524,/,743203,/,743882,/,744563,/,745241,/,745923,/	t,t,t,t,t,t	<img class = center src='/static/experiments/beast_fmri_test/images/B.png'></img>	89,71	2750.0	test	<img class = center src='/static/experiments/beast_fmri_test/images/redB.png'></img>	stop	2100.0	1.0	24.0	stop	non-target	B	89,Middle Finger	71,Index Finger	900.0	650.0	1850.0	2100.0	0.0	1.0	650.0	n/a	go_stim
117802.02691724431	2100.0	n/a	-1	-1	2750	1495.97308276	stim	stop-signal	248	744889	0.0-13.24-1.24	beast_fmri_test	317	742524,/,743203,/,743882,/,744563,/,745241,/,745923,/	t,t,t,t,t,t	<img class = center src='/static/experiments/beast_fmri_test/images/B.png'></img>	89,71	2750.0	test	<img class = center src='/static/experiments/beast_fmri_test/images/redB.png'></img>	stop	2100.0	1.0	24.0	stop	non-target	B	89,Middle Finger	71,Index Finger	900.0	650.0	1850.0	2100.0	0.0	1.0	650.0	n/a	stop_stim
118452.02691724431	1495.97308276	n/a	-1	-1	2750	1495.97308276	stim	stop-signal	248	744889	0.0-13.24-1.24	beast_fmri_test	317	742524,/,743203,/,743882,/,744563,/,745241,/,745923,/	t,t,t,t,t,t	<img class = center src='/static/experiments/beast_fmri_test/images/B.png'></img>	89,71	2750.0	test	<img class = center src='/static/experiments/beast_fmri_test/images/redB.png'></img>	stop	2100.0	1.0	24.0	stop	non-target	B	89,Middle Finger	71,Index Finger	900.0	650.0	1850.0	2100.0	0.0	1.0	650.0	n/a	ITI
121971	500.0	n/a	-1	-1	500	0.0	fixation	poldrack-single-stim	249	746912	0.0-13.25-0.25	beast_fmri_test	317	746601,/	t	<div class = centerbox2><div class = fixation>+</div></div>	none	500.0	test	n/a	n/a	n/a	n/a	n/a	n/a	n/a	n/a	n/a	n/a	n/a	n/a	n/a	n/a	n/a	n/a	n/a	n/a	fixation
116973.0	2750.0	n/a	924	71	2750	5000.0	stim	stop-signal	250	749664	0.0-13.25-1.25	beast_fmri_test	317	747281,/,747961,/,748642,/,749319,/,749999,/,750679,/,751359,/,752038,/,752719,/,753398,/,754078,/	t,t,t,t,t,t,t,t,t,t,t	<img class = center src='/static/experiments/beast_fmri_test/images/T.png'></img>	89,71	2750.0	test	<img class = center src='/static/experiments/beast_fmri_test/images/redT.png'></img>	go	2050.0	1.0	25.0	go	non-target	T	89,Middle Finger	71,Index Finger	900.0	700.0	1850.0	2050.0	1.0	n/a	700.0	1.0	go_stim
119723.0	5000.0	n/a	924	71	2750	5000.0	stim	stop-signal	250	749664	0.0-13.25-1.25	beast_fmri_test	317	747281,/,747961,/,748642,/,749319,/,749999,/,750679,/,751359,/,752038,/,752719,/,753398,/,754078,/	t,t,t,t,t,t,t,t,t,t,t	<img class = center src='/static/experiments/beast_fmri_test/images/T.png'></img>	89,71	2750.0	test	<img class = center src='/static/experiments/beast_fmri_test/images/redT.png'></img>	go	2050.0	1.0	25.0	go	non-target	T	89,Middle Finger	71,Index Finger	900.0	700.0	1850.0	2050.0	1.0	n/a	700.0	1.0	ITI
130247	500.0	n/a	-1	-1	500	0.0	fixation	poldrack-single-stim	251	755188	0.0-13.26-0.26	beast_fmri_test	317	754757,/	t	<div class = centerbox2><div class = fixation>+</div></div>	none	500.0	test	n/a	n/a	n/a	n/a	n/a	n/a	n/a	n/a	n/a	n/a	n/a	n/a	n/a	n/a	n/a	n/a	n/a	n/a	fixation
129362.26544822077	700.0	n/a	946	71	2750	886.734551779	stim	stop-signal	252	757940	0.0-13.26-1.26	beast_fmri_test	317	755437,/,756118,/,756797,/,757478,/,758155,/	t,t,t,t,t	<img class = center src='/static/experiments/beast_fmri_test/images/D.png'></img>	89,71	2750.0	test	<img class = center src='/static/experiments/beast_fmri_test/images/redD.png'></img>	stop	2050.0	1.0	26.0	stop	non-target	D	89,Middle Finger	71,Index Finger	900.0	700.0	1850.0	2050.0	0.0	0.0	700.0	n/a	go_stim
131412.26544822077	2050.0	n/a	946	71	2750	886.734551779	stim	stop-signal	252	757940	0.0-13.26-1.26	beast_fmri_test	317	755437,/,756118,/,756797,/,757478,/,758155,/	t,t,t,t,t	<img class = center src='/static/experiments/beast_fmri_test/images/D.png'></img>	89,71	2750.0	test	<img class = center src='/static/experiments/beast_fmri_test/images/redD.png'></img>	stop	2050.0	1.0	26.0	stop	non-target	D	89,Middle Finger	71,Index Finger	900.0	700.0	1850.0	2050.0	0.0	0.0	700.0	n/a	stop_stim
132112.26544822077	886.734551779	n/a	946	71	2750	886.734551779	stim	stop-signal	252	757940	0.0-13.26-1.26	beast_fmri_test	317	755437,/,756118,/,756797,/,757478,/,758155,/	t,t,t,t,t	<img class = center src='/static/experiments/beast_fmri_test/images/D.png'></img>	89,71	2750.0	test	<img class = center src='/static/experiments/beast_fmri_test/images/redD.png'></img>	stop	2050.0	1.0	26.0	stop	non-target	D	89,Middle Finger	71,Index Finger	900.0	700.0	1850.0	2050.0	0.0	0.0	700.0	n/a	ITI
134415	500.0	n/a	-1	-1	500	0.0	fixation	poldrack-single-stim	253	759356	0.0-13.27-0.27	beast_fmri_test	317	758853,/	t	<div class = centerbox2><div class = fixation>+</div></div>	none	500.0	test	n/a	n/a	n/a	n/a	n/a	n/a	n/a	n/a	n/a	n/a	n/a	n/a	n/a	n/a	n/a	n/a	n/a	n/a	fixation
132485.63376502122	2750.0	n/a	1244	89	2750	1930.36623498	stim	stop-signal	254	762107	0.0-13.27-1.27	beast_fmri_test	317	759517,/,760194,/,760877,/,761556,/,762234,/,762914,/,763593,/	t,t,t,t,t,t,t	<img class = center src='/static/experiments/beast_fmri_test/images/D.png'></img>	89,71	2750.0	test	<img class = center src='/static/experiments/beast_fmri_test/images/redD.png'></img>	go	1850.0	1.0	27.0	go	target	D	89,Middle Finger	71,Index Finger	900.0	650.0	1850.0	2050.0	1.0	n/a	900.0	1.0	go_stim
135235.63376502122	1930.36623498	n/a	1244	89	2750	1930.36623498	stim	stop-signal	254	762107	0.0-13.27-1.27	beast_fmri_test	317	759517,/,760194,/,760877,/,761556,/,762234,/,762914,/,763593,/	t,t,t,t,t,t,t	<img class = center src='/static/experiments/beast_fmri_test/images/D.png'></img>	89,71	2750.0	test	<img class = center src='/static/experiments/beast_fmri_test/images/redD.png'></img>	go	1850.0	1.0	27.0	go	target	D	89,Middle Finger	71,Index Finger	900.0	650.0	1850.0	2050.0	1.0	n/a	900.0	1.0	ITI
139622	500.0	n/a	-1	-1	500	0.0	fixation	poldrack-single-stim	255	764563	0.0-13.28-0.28	beast_fmri_test	317	764273,/	t	<div class = centerbox2><div class = fixation>+</div></div>	none	500.0	test	n/a	n/a	n/a	n/a	n/a	n/a	n/a	n/a	n/a	n/a	n/a	n/a	n/a	n/a	n/a	n/a	n/a	n/a	fixation
139536.22765483765	2750.0	n/a	1232	89	2750	87.7723451624	stim	stop-signal	256	767315	0.0-13.28-1.28	beast_fmri_test	317	764954,/,765633,/,766313,/,766993,/	t,t,t,t	<img class = center src='/static/experiments/beast_fmri_test/images/D.png'></img>	89,71	2750.0	test	<img class = center src='/static/experiments/beast_fmri_test/images/redD.png'></img>	go	1850.0	1.0	28.0	go	target	D	89,Middle Finger	71,Index Finger	900.0	650.0	1850.0	2050.0	1.0	n/a	900.0	1.0	go_stim
142286.22765483765	87.7723451624	n/a	1232	89	2750	87.7723451624	stim	stop-signal	256	767315	0.0-13.28-1.28	beast_fmri_test	317	764954,/,765633,/,766313,/,766993,/	t,t,t,t	<img class = center src='/static/experiments/beast_fmri_test/images/D.png'></img>	89,71	2750.0	test	<img class = center src='/static/experiments/beast_fmri_test/images/redD.png'></img>	go	1850.0	1.0	28.0	go	target	D	89,Middle Finger	71,Index Finger	900.0	650.0	1850.0	2050.0	1.0	n/a	900.0	1.0	ITI
142996	500.0	n/a	-1	-1	500	0.0	fixation	poldrack-single-stim	257	767937	0.0-13.29-0.29	beast_fmri_test	317	767672,/	t	<div class = centerbox2><div class = fixation>+</div></div>	none	500.0	test	n/a	n/a	n/a	n/a	n/a	n/a	n/a	n/a	n/a	n/a	n/a	n/a	n/a	n/a	n/a	n/a	n/a	n/a	fixation
140749.69079148106	2750.0	n/a	1295	71	2750	2246.30920852	stim	stop-signal	258	770687	0.0-13.29-1.29	beast_fmri_test	317	768351,/,769031,/,769712,/,770391,/,771070,/,771751,/,772429,/	t,t,t,t,t,t,t	<img class = center src='/static/experiments/beast_fmri_test/images/V.png'></img>	89,71	2750.0	test	<img class = center src='/static/experiments/beast_fmri_test/images/redV.png'></img>	go	2100.0	1.0	29.0	go	non-target	V	89,Middle Finger	71,Index Finger	900.0	650.0	1850.0	2100.0	1.0	n/a	650.0	1.0	go_stim
143499.69079148106	2246.30920852	n/a	1295	71	2750	2246.30920852	stim	stop-signal	258	770687	0.0-13.29-1.29	beast_fmri_test	317	768351,/,769031,/,769712,/,770391,/,771070,/,771751,/,772429,/	t,t,t,t,t,t,t	<img class = center src='/static/experiments/beast_fmri_test/images/V.png'></img>	89,71	2750.0	test	<img class = center src='/static/experiments/beast_fmri_test/images/redV.png'></img>	go	2100.0	1.0	29.0	go	non-target	V	89,Middle Finger	71,Index Finger	900.0	650.0	1850.0	2100.0	1.0	n/a	650.0	1.0	ITI
148523	500.0	n/a	-1	-1	500	0.0	fixation	poldrack-single-stim	259	773464	0.0-13.30-0.30	beast_fmri_test	317	773109,/	t	<div class = centerbox2><div class = fixation>+</div></div>	none	500.0	test	n/a	n/a	n/a	n/a	n/a	n/a	n/a	n/a	n/a	n/a	n/a	n/a	n/a	n/a	n/a	n/a	n/a	n/a	fixation
145161.68565038475	650.0	n/a	825	71	2750	3362.31434962	stim	stop-signal	260	776215	0.0-13.30-1.30	beast_fmri_test	317	773788,/,774469,/,775149,/,775829,/,776507,/,777187,/,777868,/,778546,/,779225,/	t,t,t,t,t,t,t,t,t	<img class = center src='/static/experiments/beast_fmri_test/images/B.png'></img>	89,71	2750.0	test	<img class = center src='/static/experiments/beast_fmri_test/images/redB.png'></img>	stop	2100.0	1.0	30.0	stop	non-target	B	89,Middle Finger	71,Index Finger	900.0	650.0	1850.0	2100.0	0.0	0.0	650.0	n/a	go_stim
147261.68565038475	2100.0	n/a	825	71	2750	3362.31434962	stim	stop-signal	260	776215	0.0-13.30-1.30	beast_fmri_test	317	773788,/,774469,/,775149,/,775829,/,776507,/,777187,/,777868,/,778546,/,779225,/	t,t,t,t,t,t,t,t,t	<img class = center src='/static/experiments/beast_fmri_test/images/B.png'></img>	89,71	2750.0	test	<img class = center src='/static/experiments/beast_fmri_test/images/redB.png'></img>	stop	2100.0	1.0	30.0	stop	non-target	B	89,Middle Finger	71,Index Finger	900.0	650.0	1850.0	2100.0	0.0	0.0	650.0	n/a	stop_stim
147911.68565038475	3362.31434962	n/a	825	71	2750	3362.31434962	stim	stop-signal	260	776215	0.0-13.30-1.30	beast_fmri_test	317	773788,/,774469,/,775149,/,775829,/,776507,/,777187,/,777868,/,778546,/,779225,/	t,t,t,t,t,t,t,t,t	<img class = center src='/static/experiments/beast_fmri_test/images/B.png'></img>	89,71	2750.0	test	<img class = center src='/static/experiments/beast_fmri_test/images/redB.png'></img>	stop	2100.0	1.0	30.0	stop	non-target	B	89,Middle Finger	71,Index Finger	900.0	650.0	1850.0	2100.0	0.0	0.0	650.0	n/a	ITI
155162	500.0	n/a	-1	-1	500	0.0	fixation	poldrack-single-stim	261	780103	0.0-13.31-0.31	beast_fmri_test	317	779906,/	t	<div class = centerbox2><div class = fixation>+</div></div>	none	500.0	test	n/a	n/a	n/a	n/a	n/a	n/a	n/a	n/a	n/a	n/a	n/a	n/a	n/a	n/a	n/a	n/a	n/a	n/a	fixation
155023.76098945341	2750.0	n/a	1525	89	2750	139.239010547	stim	stop-signal	262	782854	0.0-13.31-1.31	beast_fmri_test	317	780585,/,781265,/,781944,/,782624,/	t,t,t,t	<img class = center src='/static/experiments/beast_fmri_test/images/B.png'></img>	89,71	2750.0	test	<img class = center src='/static/experiments/beast_fmri_test/images/redB.png'></img>	go	1850.0	1.0	31.0	go	target	B	89,Middle Finger	71,Index Finger	900.0	600.0	1850.0	2100.0	1.0	n/a	900.0	1.0	go_stim
157773.76098945341	139.239010547	n/a	1525	89	2750	139.239010547	stim	stop-signal	262	782854	0.0-13.31-1.31	beast_fmri_test	317	780585,/,781265,/,781944,/,782624,/	t,t,t,t	<img class = center src='/static/experiments/beast_fmri_test/images/B.png'></img>	89,71	2750.0	test	<img class = center src='/static/experiments/beast_fmri_test/images/redB.png'></img>	go	1850.0	1.0	31.0	go	target	B	89,Middle Finger	71,Index Finger	900.0	600.0	1850.0	2100.0	1.0	n/a	900.0	1.0	ITI
158580	500.0	n/a	-1	-1	500	0.0	fixation	poldrack-single-stim	263	783521	0.0-13.32-0.32	beast_fmri_test	317	783303,/	t	<div class = centerbox2><div class = fixation>+</div></div>	none	500.0	test	n/a	n/a	n/a	n/a	n/a	n/a	n/a	n/a	n/a	n/a	n/a	n/a	n/a	n/a	n/a	n/a	n/a	n/a	fixation
158522.85886747006	2750.0	n/a	1183	71	2750	58.14113253	stim	stop-signal	264	786272	0.0-13.32-1.32	beast_fmri_test	317	783985,/,784664,/,785343,/,786022,/	t,t,t,t	<img class = center src='/static/experiments/beast_fmri_test/images/T.png'></img>	89,71	2750.0	test	<img class = center src='/static/experiments/beast_fmri_test/images/redT.png'></img>	go	2150.0	1.0	32.0	go	non-target	T	89,Middle Finger	71,Index Finger	900.0	600.0	1850.0	2150.0	1.0	n/a	600.0	1.0	go_stim
161272.85886747006	58.14113253	n/a	1183	71	2750	58.14113253	stim	stop-signal	264	786272	0.0-13.32-1.32	beast_fmri_test	317	783985,/,784664,/,785343,/,786022,/	t,t,t,t	<img class = center src='/static/experiments/beast_fmri_test/images/T.png'></img>	89,71	2750.0	test	<img class = center src='/static/experiments/beast_fmri_test/images/redT.png'></img>	go	2150.0	1.0	32.0	go	non-target	T	89,Middle Finger	71,Index Finger	900.0	600.0	1850.0	2150.0	1.0	n/a	600.0	1.0	ITI
161919	500.0	n/a	-1	-1	500	0.0	fixation	poldrack-single-stim	265	786860	0.0-13.33-0.33	beast_fmri_test	317	786703,/	t	<div class = centerbox2><div class = fixation>+</div></div>	none	500.0	test	n/a	n/a	n/a	n/a	n/a	n/a	n/a	n/a	n/a	n/a	n/a	n/a	n/a	n/a	n/a	n/a	n/a	n/a	fixation
160903.5964051506	2750.0	n/a	1298	71	2750	1016.40359485	stim	stop-signal	266	789611	0.0-13.33-1.33	beast_fmri_test	317	787382,/,788063,/,788743,/,789423,/,790101,/	t,t,t,t,t	<img class = center src='/static/experiments/beast_fmri_test/images/V.png'></img>	89,71	2750.0	test	<img class = center src='/static/experiments/beast_fmri_test/images/redV.png'></img>	go	2150.0	1.0	33.0	go	non-target	V	89,Middle Finger	71,Index Finger	900.0	600.0	1850.0	2150.0	1.0	n/a	600.0	1.0	go_stim
163653.5964051506	1016.40359485	n/a	1298	71	2750	1016.40359485	stim	stop-signal	266	789611	0.0-13.33-1.33	beast_fmri_test	317	787382,/,788063,/,788743,/,789423,/,790101,/	t,t,t,t,t	<img class = center src='/static/experiments/beast_fmri_test/images/V.png'></img>	89,71	2750.0	test	<img class = center src='/static/experiments/beast_fmri_test/images/redV.png'></img>	go	2150.0	1.0	33.0	go	non-target	V	89,Middle Finger	71,Index Finger	900.0	600.0	1850.0	2150.0	1.0	n/a	600.0	1.0	ITI
166216	500.0	n/a	-1	-1	500	0.0	fixation	poldrack-single-stim	267	791157	0.0-13.34-0.34	beast_fmri_test	317	790781,/	t	<div class = centerbox2><div class = fixation>+</div></div>	none	500.0	test	n/a	n/a	n/a	n/a	n/a	n/a	n/a	n/a	n/a	n/a	n/a	n/a	n/a	n/a	n/a	n/a	n/a	n/a	fixation
164896.65701424726	2750.0	n/a	847	71	2750	1321.34298575	stim	stop-signal	268	793909	0.0-13.34-1.34	beast_fmri_test	317	791461,/,792140,/,792821,/,793500,/,794179,/,794859,/	t,t,t,t,t,t	<img class = center src='/static/experiments/beast_fmri_test/images/D.png'></img>	89,71	2750.0	test	<img class = center src='/static/experiments/beast_fmri_test/images/redD.png'></img>	go	2150.0	1.0	34.0	go	non-target	D	89,Middle Finger	71,Index Finger	900.0	600.0	1850.0	2150.0	1.0	n/a	600.0	1.0	go_stim
167646.65701424726	1321.34298575	n/a	847	71	2750	1321.34298575	stim	stop-signal	268	793909	0.0-13.34-1.34	beast_fmri_test	317	791461,/,792140,/,792821,/,793500,/,794179,/,794859,/	t,t,t,t,t,t	<img class = center src='/static/experiments/beast_fmri_test/images/D.png'></img>	89,71	2750.0	test	<img class = center src='/static/experiments/beast_fmri_test/images/redD.png'></img>	go	2150.0	1.0	34.0	go	non-target	D	89,Middle Finger	71,Index Finger	900.0	600.0	1850.0	2150.0	1.0	n/a	600.0	1.0	ITI
170816	500.0	n/a	-1	-1	500	0.0	fixation	poldrack-single-stim	269	795757	0.0-13.35-0.35	beast_fmri_test	317	795539,/	t	<div class = centerbox2><div class = fixation>+</div></div>	none	500.0	test	n/a	n/a	n/a	n/a	n/a	n/a	n/a	n/a	n/a	n/a	n/a	n/a	n/a	n/a	n/a	n/a	n/a	n/a	fixation
170000.4699770828	600.0	n/a	-1	-1	2750	815.530022917	stim	stop-signal	270	798507	0.0-13.35-1.35	beast_fmri_test	317	796218,/,796900,/,797578,/,798257,/,798937,/	t,t,t,t,t	<img class = center src='/static/experiments/beast_fmri_test/images/P.png'></img>	89,71	2750.0	test	<img class = center src='/static/experiments/beast_fmri_test/images/redP.png'></img>	stop	2150.0	1.0	35.0	stop	non-target	P	89,Middle Finger	71,Index Finger	900.0	600.0	1850.0	2150.0	0.0	1.0	600.0	n/a	go_stim
172150.4699770828	2150.0	n/a	-1	-1	2750	815.530022917	stim	stop-signal	270	798507	0.0-13.35-1.35	beast_fmri_test	317	796218,/,796900,/,797578,/,798257,/,798937,/	t,t,t,t,t	<img class = center src='/static/experiments/beast_fmri_test/images/P.png'></img>	89,71	2750.0	test	<img class = center src='/static/experiments/beast_fmri_test/images/redP.png'></img>	stop	2150.0	1.0	35.0	stop	non-target	P	89,Middle Finger	71,Index Finger	900.0	600.0	1850.0	2150.0	0.0	1.0	600.0	n/a	stop_stim
172750.4699770828	815.530022917	n/a	-1	-1	2750	815.530022917	stim	stop-signal	270	798507	0.0-13.35-1.35	beast_fmri_test	317	796218,/,796900,/,797578,/,798257,/,798937,/	t,t,t,t,t	<img class = center src='/static/experiments/beast_fmri_test/images/P.png'></img>	89,71	2750.0	test	<img class = center src='/static/experiments/beast_fmri_test/images/redP.png'></img>	stop	2150.0	1.0	35.0	stop	non-target	P	89,Middle Finger	71,Index Finger	900.0	600.0	1850.0	2150.0	0.0	1.0	600.0	n/a	ITI
174909	500.0	n/a	-1	-1	500	0.0	fixation	poldrack-single-stim	271	799850	0.0-13.36-0.36	beast_fmri_test	317	799617,/	t	<div class = centerbox2><div class = fixation>+</div></div>	none	500.0	test	n/a	n/a	n/a	n/a	n/a	n/a	n/a	n/a	n/a	n/a	n/a	n/a	n/a	n/a	n/a	n/a	n/a	n/a	fixation
174809.43887192407	2750.0	n/a	1024	71	2750	100.561128076	stim	stop-signal	272	802601	0.0-13.36-1.36	beast_fmri_test	317	800296,/,800976,/,801656,/,802335,/	t,t,t,t	<img class = center src='/static/experiments/beast_fmri_test/images/T.png'></img>	89,71	2750.0	test	<img class = center src='/static/experiments/beast_fmri_test/images/redT.png'></img>	go	2100.0	1.0	36.0	go	non-target	T	89,Middle Finger	71,Index Finger	900.0	650.0	1850.0	2100.0	1.0	n/a	650.0	1.0	go_stim
177559.43887192407	100.561128076	n/a	1024	71	2750	100.561128076	stim	stop-signal	272	802601	0.0-13.36-1.36	beast_fmri_test	317	800296,/,800976,/,801656,/,802335,/	t,t,t,t	<img class = center src='/static/experiments/beast_fmri_test/images/T.png'></img>	89,71	2750.0	test	<img class = center src='/static/experiments/beast_fmri_test/images/redT.png'></img>	go	2100.0	1.0	36.0	go	non-target	T	89,Middle Finger	71,Index Finger	900.0	650.0	1850.0	2100.0	1.0	n/a	650.0	1.0	ITI
178304	500.0	n/a	-1	-1	500	0.0	fixation	poldrack-single-stim	273	803245	0.0-13.37-0.37	beast_fmri_test	317	803015,/	t	<div class = centerbox2><div class = fixation>+</div></div>	none	500.0	test	n/a	n/a	n/a	n/a	n/a	n/a	n/a	n/a	n/a	n/a	n/a	n/a	n/a	n/a	n/a	n/a	n/a	n/a	fixation
178274.03360173141	2750.0	n/a	1586	71	2750	33.9663982686	stim	stop-signal	274	805999	0.0-13.37-1.37	beast_fmri_test	317	803695,/,804374,/,805054,/,805734,/	t,t,t,t	<img class = center src='/static/experiments/beast_fmri_test/images/D.png'></img>	89,71	2750.0	test	<img class = center src='/static/experiments/beast_fmri_test/images/redD.png'></img>	go	2100.0	1.0	37.0	go	non-target	D	89,Middle Finger	71,Index Finger	900.0	650.0	1850.0	2100.0	1.0	n/a	650.0	1.0	go_stim
181024.03360173141	33.9663982686	n/a	1586	71	2750	33.9663982686	stim	stop-signal	274	805999	0.0-13.37-1.37	beast_fmri_test	317	803695,/,804374,/,805054,/,805734,/	t,t,t,t	<img class = center src='/static/experiments/beast_fmri_test/images/D.png'></img>	89,71	2750.0	test	<img class = center src='/static/experiments/beast_fmri_test/images/redD.png'></img>	go	2100.0	1.0	37.0	go	non-target	D	89,Middle Finger	71,Index Finger	900.0	650.0	1850.0	2100.0	1.0	n/a	650.0	1.0	ITI
181619	500.0	n/a	-1	-1	500	0.0	fixation	poldrack-single-stim	275	806560	0.0-13.38-0.38	beast_fmri_test	317	806414,/	t	<div class = centerbox2><div class = fixation>+</div></div>	none	500.0	test	n/a	n/a	n/a	n/a	n/a	n/a	n/a	n/a	n/a	n/a	n/a	n/a	n/a	n/a	n/a	n/a	n/a	n/a	fixation
180853.78511265828	650.0	n/a	-1	-1	2750	766.214887342	stim	stop-signal	276	809311	0.0-13.38-1.38	beast_fmri_test	317	807092,/,807773,/,808454,/,809133,/,809812,/	t,t,t,t,t	<img class = center src='/static/experiments/beast_fmri_test/images/P.png'></img>	89,71	2750.0	test	<img class = center src='/static/experiments/beast_fmri_test/images/redP.png'></img>	stop	2100.0	1.0	38.0	stop	non-target	P	89,Middle Finger	71,Index Finger	900.0	650.0	1850.0	2100.0	0.0	1.0	650.0	n/a	go_stim
182953.78511265828	2100.0	n/a	-1	-1	2750	766.214887342	stim	stop-signal	276	809311	0.0-13.38-1.38	beast_fmri_test	317	807092,/,807773,/,808454,/,809133,/,809812,/	t,t,t,t,t	<img class = center src='/static/experiments/beast_fmri_test/images/P.png'></img>	89,71	2750.0	test	<img class = center src='/static/experiments/beast_fmri_test/images/redP.png'></img>	stop	2100.0	1.0	38.0	stop	non-target	P	89,Middle Finger	71,Index Finger	900.0	650.0	1850.0	2100.0	0.0	1.0	650.0	n/a	stop_stim
183603.78511265828	766.214887342	n/a	-1	-1	2750	766.214887342	stim	stop-signal	276	809311	0.0-13.38-1.38	beast_fmri_test	317	807092,/,807773,/,808454,/,809133,/,809812,/	t,t,t,t,t	<img class = center src='/static/experiments/beast_fmri_test/images/P.png'></img>	89,71	2750.0	test	<img class = center src='/static/experiments/beast_fmri_test/images/redP.png'></img>	stop	2100.0	1.0	38.0	stop	non-target	P	89,Middle Finger	71,Index Finger	900.0	650.0	1850.0	2100.0	0.0	1.0	650.0	n/a	ITI
185668	500.0	n/a	-1	-1	500	0.0	fixation	poldrack-single-stim	277	810609	0.0-13.39-0.39	beast_fmri_test	317	810491,/	t	<div class = centerbox2><div class = fixation>+</div></div>	none	500.0	test	n/a	n/a	n/a	n/a	n/a	n/a	n/a	n/a	n/a	n/a	n/a	n/a	n/a	n/a	n/a	n/a	n/a	n/a	fixation
183269.11226274783	2750.0	n/a	1077	71	2750	2399.88773725	stim	stop-signal	278	813360	0.0-13.39-1.39	beast_fmri_test	317	811171,/,811851,/,812531,/,813210,/,813890,/,814569,/,815249,/	t,t,t,t,t,t,t	<img class = center src='/static/experiments/beast_fmri_test/images/V.png'></img>	89,71	2750.0	test	<img class = center src='/static/experiments/beast_fmri_test/images/redV.png'></img>	go	2050.0	1.0	39.0	go	non-target	V	89,Middle Finger	71,Index Finger	900.0	700.0	1850.0	2050.0	1.0	n/a	700.0	1.0	go_stim
186019.11226274783	2399.88773725	n/a	1077	71	2750	2399.88773725	stim	stop-signal	278	813360	0.0-13.39-1.39	beast_fmri_test	317	811171,/,811851,/,812531,/,813210,/,813890,/,814569,/,815249,/	t,t,t,t,t,t,t	<img class = center src='/static/experiments/beast_fmri_test/images/V.png'></img>	89,71	2750.0	test	<img class = center src='/static/experiments/beast_fmri_test/images/redV.png'></img>	go	2050.0	1.0	39.0	go	non-target	V	89,Middle Finger	71,Index Finger	900.0	700.0	1850.0	2050.0	1.0	n/a	700.0	1.0	ITI
191348	500.0	n/a	-1	-1	500	0.0	fixation	poldrack-single-stim	279	816289	0.0-13.40-0.40	beast_fmri_test	317	815929,/	t	<div class = centerbox2><div class = fixation>+</div></div>	none	500.0	test	n/a	n/a	n/a	n/a	n/a	n/a	n/a	n/a	n/a	n/a	n/a	n/a	n/a	n/a	n/a	n/a	n/a	n/a	fixation
191028.85899337509	700.0	n/a	714	71	2750	322.141006625	stim	stop-signal	280	819042	0.0-13.40-1.40	beast_fmri_test	317	816610,/,817288,/,817968,/,818650,/,819328,/	t,t,t,t,t	<img class = center src='/static/experiments/beast_fmri_test/images/P.png'></img>	89,71	2750.0	test	<img class = center src='/static/experiments/beast_fmri_test/images/redP.png'></img>	stop	2050.0	1.0	40.0	stop	non-target	P	89,Middle Finger	71,Index Finger	900.0	700.0	1850.0	2050.0	0.0	0.0	700.0	n/a	go_stim
193078.85899337509	2050.0	n/a	714	71	2750	322.141006625	stim	stop-signal	280	819042	0.0-13.40-1.40	beast_fmri_test	317	816610,/,817288,/,817968,/,818650,/,819328,/	t,t,t,t,t	<img class = center src='/static/experiments/beast_fmri_test/images/P.png'></img>	89,71	2750.0	test	<img class = center src='/static/experiments/beast_fmri_test/images/redP.png'></img>	stop	2050.0	1.0	40.0	stop	non-target	P	89,Middle Finger	71,Index Finger	900.0	700.0	1850.0	2050.0	0.0	0.0	700.0	n/a	stop_stim
193778.85899337509	322.141006625	n/a	714	71	2750	322.141006625	stim	stop-signal	280	819042	0.0-13.40-1.40	beast_fmri_test	317	816610,/,817288,/,817968,/,818650,/,819328,/	t,t,t,t,t	<img class = center src='/static/experiments/beast_fmri_test/images/P.png'></img>	89,71	2750.0	test	<img class = center src='/static/experiments/beast_fmri_test/images/redP.png'></img>	stop	2050.0	1.0	40.0	stop	non-target	P	89,Middle Finger	71,Index Finger	900.0	700.0	1850.0	2050.0	0.0	0.0	700.0	n/a	ITI
194953	500.0	n/a	-1	-1	500	0.0	fixation	poldrack-single-stim	281	819894	0.0-13.41-0.41	beast_fmri_test	317	n/a	n/a	<div class = centerbox2><div class = fixation>+</div></div>	none	500.0	test	n/a	n/a	n/a	n/a	n/a	n/a	n/a	n/a	n/a	n/a	n/a	n/a	n/a	n/a	n/a	n/a	n/a	n/a	fixation
194541.14804260316	2750.0	n/a	1480	89	2750	412.851957397	stim	stop-signal	282	822645	0.0-13.41-1.41	beast_fmri_test	317	820008,/,820687,/,821368,/,822047,/,822727,/	t,t,t,t,t	<img class = center src='/static/experiments/beast_fmri_test/images/P.png'></img>	89,71	2750.0	test	<img class = center src='/static/experiments/beast_fmri_test/images/redP.png'></img>	go	1850.0	1.0	41.0	go	target	P	89,Middle Finger	71,Index Finger	900.0	650.0	1850.0	2050.0	1.0	n/a	900.0	1.0	go_stim
197291.14804260316	412.851957397	n/a	1480	89	2750	412.851957397	stim	stop-signal	282	822645	0.0-13.41-1.41	beast_fmri_test	317	820008,/,820687,/,821368,/,822047,/,822727,/	t,t,t,t,t	<img class = center src='/static/experiments/beast_fmri_test/images/P.png'></img>	89,71	2750.0	test	<img class = center src='/static/experiments/beast_fmri_test/images/redP.png'></img>	go	1850.0	1.0	41.0	go	target	P	89,Middle Finger	71,Index Finger	900.0	650.0	1850.0	2050.0	1.0	n/a	900.0	1.0	ITI
198644	500.0	n/a	-1	-1	500	0.0	fixation	poldrack-single-stim	283	823585	0.0-13.42-0.42	beast_fmri_test	317	823406,/	t	<div class = centerbox2><div class = fixation>+</div></div>	none	500.0	test	n/a	n/a	n/a	n/a	n/a	n/a	n/a	n/a	n/a	n/a	n/a	n/a	n/a	n/a	n/a	n/a	n/a	n/a	fixation
198625.02110505686	2750.0	n/a	2240	71	2750	19.9788949431	stim	stop-signal	284	826336	0.0-13.42-1.42	beast_fmri_test	317	824085,/,824766,/,825446,/,826125,/	t,t,t,t	<img class = center src='/static/experiments/beast_fmri_test/images/T.png'></img>	89,71	2750.0	test	<img class = center src='/static/experiments/beast_fmri_test/images/redT.png'></img>	go	2100.0	1.0	42.0	go	non-target	T	89,Middle Finger	71,Index Finger	900.0	650.0	1850.0	2100.0	1.0	n/a	650.0	1.0	go_stim
201375.02110505686	19.9788949431	n/a	2240	71	2750	19.9788949431	stim	stop-signal	284	826336	0.0-13.42-1.42	beast_fmri_test	317	824085,/,824766,/,825446,/,826125,/	t,t,t,t	<img class = center src='/static/experiments/beast_fmri_test/images/T.png'></img>	89,71	2750.0	test	<img class = center src='/static/experiments/beast_fmri_test/images/redT.png'></img>	go	2100.0	1.0	42.0	go	non-target	T	89,Middle Finger	71,Index Finger	900.0	650.0	1850.0	2100.0	1.0	n/a	650.0	1.0	ITI
201942	500.0	n/a	-1	-1	500	0.0	fixation	poldrack-single-stim	285	826883	0.0-13.43-0.43	beast_fmri_test	317	826805,/	t	<div class = centerbox2><div class = fixation>+</div></div>	none	500.0	test	n/a	n/a	n/a	n/a	n/a	n/a	n/a	n/a	n/a	n/a	n/a	n/a	n/a	n/a	n/a	n/a	n/a	n/a	fixation
201333.05792326585	2750.0	n/a	1363	71	2750	610.942076734	stim	stop-signal	286	829635	0.0-13.43-1.43	beast_fmri_test	317	827484,/,828165,/,828844,/,829522,/,830202,/	t,t,t,t,t	<img class = center src='/static/experiments/beast_fmri_test/images/B.png'></img>	89,71	2750.0	test	<img class = center src='/static/experiments/beast_fmri_test/images/redB.png'></img>	go	2100.0	1.0	43.0	go	non-target	B	89,Middle Finger	71,Index Finger	900.0	650.0	1850.0	2100.0	1.0	n/a	650.0	1.0	go_stim
204083.05792326585	610.942076734	n/a	1363	71	2750	610.942076734	stim	stop-signal	286	829635	0.0-13.43-1.43	beast_fmri_test	317	827484,/,828165,/,828844,/,829522,/,830202,/	t,t,t,t,t	<img class = center src='/static/experiments/beast_fmri_test/images/B.png'></img>	89,71	2750.0	test	<img class = center src='/static/experiments/beast_fmri_test/images/redB.png'></img>	go	2100.0	1.0	43.0	go	non-target	B	89,Middle Finger	71,Index Finger	900.0	650.0	1850.0	2100.0	1.0	n/a	650.0	1.0	ITI
205837	500.0	n/a	-1	-1	500	0.0	fixation	poldrack-single-stim	287	830778	0.0-13.44-0.44	beast_fmri_test	317	n/a	n/a	<div class = centerbox2><div class = fixation>+</div></div>	none	500.0	test	n/a	n/a	n/a	n/a	n/a	n/a	n/a	n/a	n/a	n/a	n/a	n/a	n/a	n/a	n/a	n/a	n/a	n/a	fixation
204338.76365577697	650.0	n/a	-1	-1	2750	1500.23634422	stim	stop-signal	288	833530	0.0-13.44-1.44	beast_fmri_test	317	830884,/,831563,/,832243,/,832923,/,833600,/,834281,/,834961,/	t,t,t,t,t,t,t	<img class = center src='/static/experiments/beast_fmri_test/images/T.png'></img>	89,71	2750.0	test	<img class = center src='/static/experiments/beast_fmri_test/images/redT.png'></img>	stop	2100.0	1.0	44.0	stop	non-target	T	89,Middle Finger	71,Index Finger	900.0	650.0	1850.0	2100.0	0.0	1.0	650.0	n/a	go_stim
206438.76365577697	2100.0	n/a	-1	-1	2750	1500.23634422	stim	stop-signal	288	833530	0.0-13.44-1.44	beast_fmri_test	317	830884,/,831563,/,832243,/,832923,/,833600,/,834281,/,834961,/	t,t,t,t,t,t,t	<img class = center src='/static/experiments/beast_fmri_test/images/T.png'></img>	89,71	2750.0	test	<img class = center src='/static/experiments/beast_fmri_test/images/redT.png'></img>	stop	2100.0	1.0	44.0	stop	non-target	T	89,Middle Finger	71,Index Finger	900.0	650.0	1850.0	2100.0	0.0	1.0	650.0	n/a	stop_stim
207088.76365577697	1500.23634422	n/a	-1	-1	2750	1500.23634422	stim	stop-signal	288	833530	0.0-13.44-1.44	beast_fmri_test	317	830884,/,831563,/,832243,/,832923,/,833600,/,834281,/,834961,/	t,t,t,t,t,t,t	<img class = center src='/static/experiments/beast_fmri_test/images/T.png'></img>	89,71	2750.0	test	<img class = center src='/static/experiments/beast_fmri_test/images/redT.png'></img>	stop	2100.0	1.0	44.0	stop	non-target	T	89,Middle Finger	71,Index Finger	900.0	650.0	1850.0	2100.0	0.0	1.0	650.0	n/a	ITI
210619	500.0	n/a	-1	-1	500	0.0	fixation	poldrack-single-stim	289	835560	0.0-13.45-0.45	beast_fmri_test	317	n/a	n/a	<div class = centerbox2><div class = fixation>+</div></div>	none	500.0	test	n/a	n/a	n/a	n/a	n/a	n/a	n/a	n/a	n/a	n/a	n/a	n/a	n/a	n/a	n/a	n/a	n/a	n/a	fixation
206552.12916493311	900.0	n/a	-1	-1	2750	4067.87083507	stim	stop-signal	290	838311	0.0-13.45-1.45	beast_fmri_test	317	835639,/,836320,/,837000,/,837679,/,838358,/,839038,/,839718,/,840397,/,841078,/,841758,/	t,t,t,t,t,t,t,t,t,t	<img class = center src='/static/experiments/beast_fmri_test/images/T.png'></img>	89,71	2750.0	test	<img class = center src='/static/experiments/beast_fmri_test/images/redT.png'></img>	stop	1850.0	1.0	45.0	stop	target	T	89,Middle Finger	71,Index Finger	900.0	700.0	1850.0	2100.0	0.0	1.0	900.0	n/a	go_stim
208402.12916493311	1850.0	n/a	-1	-1	2750	4067.87083507	stim	stop-signal	290	838311	0.0-13.45-1.45	beast_fmri_test	317	835639,/,836320,/,837000,/,837679,/,838358,/,839038,/,839718,/,840397,/,841078,/,841758,/	t,t,t,t,t,t,t,t,t,t	<img class = center src='/static/experiments/beast_fmri_test/images/T.png'></img>	89,71	2750.0	test	<img class = center src='/static/experiments/beast_fmri_test/images/redT.png'></img>	stop	1850.0	1.0	45.0	stop	target	T	89,Middle Finger	71,Index Finger	900.0	700.0	1850.0	2100.0	0.0	1.0	900.0	n/a	stop_stim
209302.12916493311	4067.87083507	n/a	-1	-1	2750	4067.87083507	stim	stop-signal	290	838311	0.0-13.45-1.45	beast_fmri_test	317	835639,/,836320,/,837000,/,837679,/,838358,/,839038,/,839718,/,840397,/,841078,/,841758,/	t,t,t,t,t,t,t,t,t,t	<img class = center src='/static/experiments/beast_fmri_test/images/T.png'></img>	89,71	2750.0	test	<img class = center src='/static/experiments/beast_fmri_test/images/redT.png'></img>	stop	1850.0	1.0	45.0	stop	target	T	89,Middle Finger	71,Index Finger	900.0	700.0	1850.0	2100.0	0.0	1.0	900.0	n/a	ITI
232455	15000.0	n/a	-1	-1	15000	0.0	practice-no-stop-feedback	poldrack-single-stim	291	857396	0.0-14.0	beast_fmri_test	317	842437,/,843118,/,843797,/,844476,/,845155,/,845837,/,846516,/,847195,/,847875,/,848557,/,849235,/,849915,/,850595,/,851275,/,851953,/,852634,/,853312,/,853993,/,854673,/,855353,/,856032,/,856710,/,857391,/	t,t,t,t,t,t,t,t,t,t,t,t,t,t,t,t,t,t,t,t,t,t,t	"<div class = ""centerbox""><p class = ""block-text"">Your delay is 2 trials.</p><p class = block-text>Please wait for the scanner to start the block</p></div>"	77	15000.0	n/a	n/a	n/a	n/a	n/a	n/a	n/a	n/a	n/a	n/a	n/a	n/a	n/a	n/a	n/a	n/a	n/a	n/a	n/a	practice-no-stop-feedback
232958	500.0	n/a	-1	-1	500	0.0	fixation	poldrack-single-stim	292	857899	0.0-15.0-0.0	beast_fmri_test	317	n/a	n/a	<div class = centerbox2><div class = fixation>+</div></div>	none	500.0	test	n/a	n/a	n/a	n/a	n/a	n/a	n/a	n/a	n/a	n/a	n/a	n/a	n/a	n/a	n/a	n/a	n/a	n/a	fixation
232815.48771912232	2750.0	n/a	1257	71	2750	143.512280878	stim	stop-signal	293	860650	0.0-15.0-1.0	beast_fmri_test	317	858072,/,858750,/,859430,/,860109,/,860791,/	t,t,t,t,t	<img class = center src='/static/experiments/beast_fmri_test/images/D.png'></img>	89,71	2750.0	test	<img class = center src='/static/experiments/beast_fmri_test/images/redD.png'></img>	go	-1.0	2.0	0.0	go	temp-non-target	D	89,Middle Finger	71,Index Finger	950.0	700.0	1850.0	2100.0	0.0	n/a	n/a	n/a	go_stim
235565.48771912232	143.512280878	n/a	1257	71	2750	143.512280878	stim	stop-signal	293	860650	0.0-15.0-1.0	beast_fmri_test	317	858072,/,858750,/,859430,/,860109,/,860791,/	t,t,t,t,t	<img class = center src='/static/experiments/beast_fmri_test/images/D.png'></img>	89,71	2750.0	test	<img class = center src='/static/experiments/beast_fmri_test/images/redD.png'></img>	go	-1.0	2.0	0.0	go	temp-non-target	D	89,Middle Finger	71,Index Finger	950.0	700.0	1850.0	2100.0	0.0	n/a	n/a	n/a	ITI
236384	500.0	n/a	-1	-1	500	0.0	fixation	poldrack-single-stim	294	861325	0.0-15.1-0.1	beast_fmri_test	317	n/a	n/a	<div class = centerbox2><div class = fixation>+</div></div>	none	500.0	test	n/a	n/a	n/a	n/a	n/a	n/a	n/a	n/a	n/a	n/a	n/a	n/a	n/a	n/a	n/a	n/a	n/a	n/a	fixation
232563.67365417641	2750.0	n/a	1381	71	2750	3822.32634582	stim	stop-signal	295	864077	0.0-15.1-1.1	beast_fmri_test	317	861468,/,862149,/,862829,/,863509,/,864188,/,864867,/,865547,/,866227,/,866906,/,867586,/	t,t,t,t,t,t,t,t,t,t	<img class = center src='/static/experiments/beast_fmri_test/images/T.png'></img>	89,71	2750.0	test	<img class = center src='/static/experiments/beast_fmri_test/images/redT.png'></img>	go	-1.0	2.0	1.0	go	temp-non-target	T	89,Middle Finger	71,Index Finger	950.0	700.0	1850.0	2100.0	0.0	n/a	n/a	n/a	go_stim
235313.67365417641	3822.32634582	n/a	1381	71	2750	3822.32634582	stim	stop-signal	295	864077	0.0-15.1-1.1	beast_fmri_test	317	861468,/,862149,/,862829,/,863509,/,864188,/,864867,/,865547,/,866227,/,866906,/,867586,/	t,t,t,t,t,t,t,t,t,t	<img class = center src='/static/experiments/beast_fmri_test/images/T.png'></img>	89,71	2750.0	test	<img class = center src='/static/experiments/beast_fmri_test/images/redT.png'></img>	go	-1.0	2.0	1.0	go	temp-non-target	T	89,Middle Finger	71,Index Finger	950.0	700.0	1850.0	2100.0	0.0	n/a	n/a	n/a	ITI
243491	500.0	n/a	-1	-1	500	0.0	fixation	poldrack-single-stim	296	868432	0.0-15.2-0.2	beast_fmri_test	317	868267,/	t	<div class = centerbox2><div class = fixation>+</div></div>	none	500.0	test	n/a	n/a	n/a	n/a	n/a	n/a	n/a	n/a	n/a	n/a	n/a	n/a	n/a	n/a	n/a	n/a	n/a	n/a	fixation
242503.65312756656	950.0	n/a	696	89	2750	989.346872433	stim	stop-signal	297	871184	0.0-15.2-1.2	beast_fmri_test	317	868946,/,869625,/,870304,/,870983,/,871664,/	t,t,t,t,t	<img class = center src='/static/experiments/beast_fmri_test/images/D.png'></img>	89,71	2750.0	test	<img class = center src='/static/experiments/beast_fmri_test/images/redD.png'></img>	stop	1800.0	2.0	2.0	stop	target	D	89,Middle Finger	71,Index Finger	950.0	700.0	1800.0	2100.0	0.0	0.0	950.0	n/a	go_stim
244303.65312756656	1800.0	n/a	696	89	2750	989.346872433	stim	stop-signal	297	871184	0.0-15.2-1.2	beast_fmri_test	317	868946,/,869625,/,870304,/,870983,/,871664,/	t,t,t,t,t	<img class = center src='/static/experiments/beast_fmri_test/images/D.png'></img>	89,71	2750.0	test	<img class = center src='/static/experiments/beast_fmri_test/images/redD.png'></img>	stop	1800.0	2.0	2.0	stop	target	D	89,Middle Finger	71,Index Finger	950.0	700.0	1800.0	2100.0	0.0	0.0	950.0	n/a	stop_stim
245253.65312756656	989.346872433	n/a	696	89	2750	989.346872433	stim	stop-signal	297	871184	0.0-15.2-1.2	beast_fmri_test	317	868946,/,869625,/,870304,/,870983,/,871664,/	t,t,t,t,t	<img class = center src='/static/experiments/beast_fmri_test/images/D.png'></img>	89,71	2750.0	test	<img class = center src='/static/experiments/beast_fmri_test/images/redD.png'></img>	stop	1800.0	2.0	2.0	stop	target	D	89,Middle Finger	71,Index Finger	950.0	700.0	1800.0	2100.0	0.0	0.0	950.0	n/a	ITI
247765	500.0	n/a	-1	-1	500	0.0	fixation	poldrack-single-stim	298	872706	0.0-15.3-0.3	beast_fmri_test	317	872343,/	t	<div class = centerbox2><div class = fixation>+</div></div>	none	500.0	test	n/a	n/a	n/a	n/a	n/a	n/a	n/a	n/a	n/a	n/a	n/a	n/a	n/a	n/a	n/a	n/a	n/a	n/a	fixation
247483.34824740107	2750.0	n/a	1439	71	2750	282.651752599	stim	stop-signal	299	875457	0.0-15.3-1.3	beast_fmri_test	317	873023,/,873704,/,874383,/,875062,/	t,t,t,t	<img class = center src='/static/experiments/beast_fmri_test/images/P.png'></img>	89,71	2750.0	test	<img class = center src='/static/experiments/beast_fmri_test/images/redP.png'></img>	go	2050.0	2.0	3.0	go	non-target	P	89,Middle Finger	71,Index Finger	900.0	700.0	1800.0	2050.0	1.0	n/a	700.0	1.0	go_stim
250233.34824740107	282.651752599	n/a	1439	71	2750	282.651752599	stim	stop-signal	299	875457	0.0-15.3-1.3	beast_fmri_test	317	873023,/,873704,/,874383,/,875062,/	t,t,t,t	<img class = center src='/static/experiments/beast_fmri_test/images/P.png'></img>	89,71	2750.0	test	<img class = center src='/static/experiments/beast_fmri_test/images/redP.png'></img>	go	2050.0	2.0	3.0	go	non-target	P	89,Middle Finger	71,Index Finger	900.0	700.0	1800.0	2050.0	1.0	n/a	700.0	1.0	ITI
251332	500.0	n/a	-1	-1	500	0.0	fixation	poldrack-single-stim	300	876273	0.0-15.4-0.4	beast_fmri_test	317	875771,/	t	<div class = centerbox2><div class = fixation>+</div></div>	none	500.0	test	n/a	n/a	n/a	n/a	n/a	n/a	n/a	n/a	n/a	n/a	n/a	n/a	n/a	n/a	n/a	n/a	n/a	n/a	fixation
248894.87897310511	2750.0	n/a	1207	71	2750	2438.12102689	stim	stop-signal	301	879024	0.0-15.4-1.4	beast_fmri_test	317	876422,/,877101,/,877782,/,878461,/,879140,/,879820,/,880500,/,881180,/	t,t,t,t,t,t,t,t	<img class = center src='/static/experiments/beast_fmri_test/images/V.png'></img>	89,71	2750.0	test	<img class = center src='/static/experiments/beast_fmri_test/images/redV.png'></img>	go	2050.0	2.0	4.0	go	non-target	V	89,Middle Finger	71,Index Finger	900.0	700.0	1800.0	2050.0	1.0	n/a	700.0	1.0	go_stim
251644.87897310511	2438.12102689	n/a	1207	71	2750	2438.12102689	stim	stop-signal	301	879024	0.0-15.4-1.4	beast_fmri_test	317	876422,/,877101,/,877782,/,878461,/,879140,/,879820,/,880500,/,881180,/	t,t,t,t,t,t,t,t	<img class = center src='/static/experiments/beast_fmri_test/images/V.png'></img>	89,71	2750.0	test	<img class = center src='/static/experiments/beast_fmri_test/images/redV.png'></img>	go	2050.0	2.0	4.0	go	non-target	V	89,Middle Finger	71,Index Finger	900.0	700.0	1800.0	2050.0	1.0	n/a	700.0	1.0	ITI
257056	500.0	n/a	-1	-1	500	0.0	fixation	poldrack-single-stim	302	881997	0.0-15.5-0.5	beast_fmri_test	317	881859,/	t	<div class = centerbox2><div class = fixation>+</div></div>	none	500.0	test	n/a	n/a	n/a	n/a	n/a	n/a	n/a	n/a	n/a	n/a	n/a	n/a	n/a	n/a	n/a	n/a	n/a	n/a	fixation
256129.78932385822	2750.0	n/a	1182	89	2750	927.210676142	stim	stop-signal	303	884748	0.0-15.5-1.5	beast_fmri_test	317	882541,/,883220,/,883899,/,884579,/,885257,/	t,t,t,t,t	<img class = center src='/static/experiments/beast_fmri_test/images/P.png'></img>	89,71	2750.0	test	<img class = center src='/static/experiments/beast_fmri_test/images/redP.png'></img>	go	1850.0	2.0	5.0	go	target	P	89,Middle Finger	71,Index Finger	900.0	700.0	1850.0	2050.0	1.0	n/a	900.0	1.0	go_stim
258879.78932385822	927.210676142	n/a	1182	89	2750	927.210676142	stim	stop-signal	303	884748	0.0-15.5-1.5	beast_fmri_test	317	882541,/,883220,/,883899,/,884579,/,885257,/	t,t,t,t,t	<img class = center src='/static/experiments/beast_fmri_test/images/P.png'></img>	89,71	2750.0	test	<img class = center src='/static/experiments/beast_fmri_test/images/redP.png'></img>	go	1850.0	2.0	5.0	go	target	P	89,Middle Finger	71,Index Finger	900.0	700.0	1850.0	2050.0	1.0	n/a	900.0	1.0	ITI
261266	500.0	n/a	-1	-1	500	0.0	fixation	poldrack-single-stim	304	886207	0.0-15.6-0.6	beast_fmri_test	317	885937,/	t	<div class = centerbox2><div class = fixation>+</div></div>	none	500.0	test	n/a	n/a	n/a	n/a	n/a	n/a	n/a	n/a	n/a	n/a	n/a	n/a	n/a	n/a	n/a	n/a	n/a	n/a	fixation
261108.99702904164	2750.0	n/a	1771	71	2750	158.002970958	stim	stop-signal	305	888958	0.0-15.6-1.6	beast_fmri_test	317	886619,/,887298,/,887976,/,888656,/	t,t,t,t	<img class = center src='/static/experiments/beast_fmri_test/images/T.png'></img>	89,71	2750.0	test	<img class = center src='/static/experiments/beast_fmri_test/images/redT.png'></img>	go	2050.0	2.0	6.0	go	non-target	T	89,Middle Finger	71,Index Finger	900.0	700.0	1850.0	2050.0	1.0	n/a	700.0	1.0	go_stim
263858.99702904164	158.002970958	n/a	1771	71	2750	158.002970958	stim	stop-signal	305	888958	0.0-15.6-1.6	beast_fmri_test	317	886619,/,887298,/,887976,/,888656,/	t,t,t,t	<img class = center src='/static/experiments/beast_fmri_test/images/T.png'></img>	89,71	2750.0	test	<img class = center src='/static/experiments/beast_fmri_test/images/redT.png'></img>	go	2050.0	2.0	6.0	go	non-target	T	89,Middle Finger	71,Index Finger	900.0	700.0	1850.0	2050.0	1.0	n/a	700.0	1.0	ITI
264710	500.0	n/a	-1	-1	500	0.0	fixation	poldrack-single-stim	306	889651	0.0-15.7-0.7	beast_fmri_test	317	889337,/	t	<div class = centerbox2><div class = fixation>+</div></div>	none	500.0	test	n/a	n/a	n/a	n/a	n/a	n/a	n/a	n/a	n/a	n/a	n/a	n/a	n/a	n/a	n/a	n/a	n/a	n/a	fixation
264494.01008051133	2750.0	n/a	1484	89	2750	218.989919489	stim	stop-signal	307	892404	0.0-15.7-1.7	beast_fmri_test	317	890015,/,890696,/,891376,/,892055,/	t,t,t,t	<img class = center src='/static/experiments/beast_fmri_test/images/P.png'></img>	89,71	2750.0	test	<img class = center src='/static/experiments/beast_fmri_test/images/redP.png'></img>	go	1850.0	2.0	7.0	go	target	P	89,Middle Finger	71,Index Finger	900.0	700.0	1850.0	2050.0	1.0	n/a	900.0	1.0	go_stim
267244.01008051133	218.989919489	n/a	1484	89	2750	218.989919489	stim	stop-signal	307	892404	0.0-15.7-1.7	beast_fmri_test	317	890015,/,890696,/,891376,/,892055,/	t,t,t,t	<img class = center src='/static/experiments/beast_fmri_test/images/P.png'></img>	89,71	2750.0	test	<img class = center src='/static/experiments/beast_fmri_test/images/redP.png'></img>	go	1850.0	2.0	7.0	go	target	P	89,Middle Finger	71,Index Finger	900.0	700.0	1850.0	2050.0	1.0	n/a	900.0	1.0	ITI
268210	500.0	n/a	-1	-1	500	0.0	fixation	poldrack-single-stim	308	893151	0.0-15.8-0.8	beast_fmri_test	317	892734,/	t	<div class = centerbox2><div class = fixation>+</div></div>	none	500.0	test	n/a	n/a	n/a	n/a	n/a	n/a	n/a	n/a	n/a	n/a	n/a	n/a	n/a	n/a	n/a	n/a	n/a	n/a	fixation
267905.17780668056	700.0	n/a	-1	-1	2750	305.822193319	stim	stop-signal	309	895902	0.0-15.8-1.8	beast_fmri_test	317	893414,/,894094,/,894773,/,895453,/,896132,/	t,t,t,t,t	<img class = center src='/static/experiments/beast_fmri_test/images/B.png'></img>	89,71	2750.0	test	<img class = center src='/static/experiments/beast_fmri_test/images/redB.png'></img>	stop	2050.0	2.0	8.0	stop	non-target	B	89,Middle Finger	71,Index Finger	900.0	700.0	1850.0	2050.0	0.0	1.0	700.0	n/a	go_stim
269955.17780668056	2050.0	n/a	-1	-1	2750	305.822193319	stim	stop-signal	309	895902	0.0-15.8-1.8	beast_fmri_test	317	893414,/,894094,/,894773,/,895453,/,896132,/	t,t,t,t,t	<img class = center src='/static/experiments/beast_fmri_test/images/B.png'></img>	89,71	2750.0	test	<img class = center src='/static/experiments/beast_fmri_test/images/redB.png'></img>	stop	2050.0	2.0	8.0	stop	non-target	B	89,Middle Finger	71,Index Finger	900.0	700.0	1850.0	2050.0	0.0	1.0	700.0	n/a	stop_stim
270655.17780668056	305.822193319	n/a	-1	-1	2750	305.822193319	stim	stop-signal	309	895902	0.0-15.8-1.8	beast_fmri_test	317	893414,/,894094,/,894773,/,895453,/,896132,/	t,t,t,t,t	<img class = center src='/static/experiments/beast_fmri_test/images/B.png'></img>	89,71	2750.0	test	<img class = center src='/static/experiments/beast_fmri_test/images/redB.png'></img>	stop	2050.0	2.0	8.0	stop	non-target	B	89,Middle Finger	71,Index Finger	900.0	700.0	1850.0	2050.0	0.0	1.0	700.0	n/a	ITI
271802	500.0	n/a	-1	-1	500	0.0	fixation	poldrack-single-stim	310	896743	0.0-15.9-0.9	beast_fmri_test	317	n/a	n/a	<div class = centerbox2><div class = fixation>+</div></div>	none	500.0	test	n/a	n/a	n/a	n/a	n/a	n/a	n/a	n/a	n/a	n/a	n/a	n/a	n/a	n/a	n/a	n/a	n/a	n/a	fixation
270157.67707751656	2750.0	n/a	1604	71	2750	1645.32292248	stim	stop-signal	311	899494	0.0-15.9-1.9	beast_fmri_test	317	896812,/,897492,/,898171,/,898851,/,899530,/,900210,/,900891,/	t,t,t,t,t,t,t	<img class = center src='/static/experiments/beast_fmri_test/images/B.png'></img>	89,71	2750.0	test	<img class = center src='/static/experiments/beast_fmri_test/images/redB.png'></img>	go	2000.0	2.0	9.0	go	non-target	B	89,Middle Finger	71,Index Finger	900.0	750.0	1850.0	2000.0	1.0	n/a	750.0	1.0	go_stim
272907.67707751656	1645.32292248	n/a	1604	71	2750	1645.32292248	stim	stop-signal	311	899494	0.0-15.9-1.9	beast_fmri_test	317	896812,/,897492,/,898171,/,898851,/,899530,/,900210,/,900891,/	t,t,t,t,t,t,t	<img class = center src='/static/experiments/beast_fmri_test/images/B.png'></img>	89,71	2750.0	test	<img class = center src='/static/experiments/beast_fmri_test/images/redB.png'></img>	go	2000.0	2.0	9.0	go	non-target	B	89,Middle Finger	71,Index Finger	900.0	750.0	1850.0	2000.0	1.0	n/a	750.0	1.0	ITI
276731	500.0	n/a	-1	-1	500	0.0	fixation	poldrack-single-stim	312	901672	0.0-15.10-0.10	beast_fmri_test	317	901571,/	t	<div class = centerbox2><div class = fixation>+</div></div>	none	500.0	test	n/a	n/a	n/a	n/a	n/a	n/a	n/a	n/a	n/a	n/a	n/a	n/a	n/a	n/a	n/a	n/a	n/a	n/a	fixation
276729.25495626638	2750.0	n/a	2161	71	2750	2.74504373365	stim	stop-signal	313	904423	0.0-15.10-1.10	beast_fmri_test	317	902250,/,902929,/,903608,/,904289,/	t,t,t,t	<img class = center src='/static/experiments/beast_fmri_test/images/P.png'></img>	89,71	2750.0	test	<img class = center src='/static/experiments/beast_fmri_test/images/redP.png'></img>	go	2000.0	2.0	10.0	go	non-target	P	89,Middle Finger	71,Index Finger	900.0	750.0	1850.0	2000.0	1.0	n/a	750.0	1.0	go_stim
279479.25495626638	2.74504373365	n/a	2161	71	2750	2.74504373365	stim	stop-signal	313	904423	0.0-15.10-1.10	beast_fmri_test	317	902250,/,902929,/,903608,/,904289,/	t,t,t,t	<img class = center src='/static/experiments/beast_fmri_test/images/P.png'></img>	89,71	2750.0	test	<img class = center src='/static/experiments/beast_fmri_test/images/redP.png'></img>	go	2000.0	2.0	10.0	go	non-target	P	89,Middle Finger	71,Index Finger	900.0	750.0	1850.0	2000.0	1.0	n/a	750.0	1.0	ITI
280022	500.0	n/a	-1	-1	500	0.0	fixation	poldrack-single-stim	314	904963	0.0-15.11-0.11	beast_fmri_test	317	n/a	n/a	<div class = centerbox2><div class = fixation>+</div></div>	none	500.0	test	n/a	n/a	n/a	n/a	n/a	n/a	n/a	n/a	n/a	n/a	n/a	n/a	n/a	n/a	n/a	n/a	n/a	n/a	fixation
279721.04859139503	2750.0	n/a	-1	-1	2750	302.951408605	stim	stop-signal	315	907715	0.0-15.11-1.11	beast_fmri_test	317	904969,/,905649,/,906329,/,907009,/,907687,/	t,t,t,t,t	<img class = center src='/static/experiments/beast_fmri_test/images/B.png'></img>	89,71	2750.0	test	<img class = center src='/static/experiments/beast_fmri_test/images/redB.png'></img>	go	1850.0	2.0	11.0	go	target	B	89,Middle Finger	71,Index Finger	900.0	750.0	1850.0	2000.0	0.0	n/a	900.0	0.0	go_stim
282471.04859139503	302.951408605	n/a	-1	-1	2750	302.951408605	stim	stop-signal	315	907715	0.0-15.11-1.11	beast_fmri_test	317	904969,/,905649,/,906329,/,907009,/,907687,/	t,t,t,t,t	<img class = center src='/static/experiments/beast_fmri_test/images/B.png'></img>	89,71	2750.0	test	<img class = center src='/static/experiments/beast_fmri_test/images/redB.png'></img>	go	1850.0	2.0	11.0	go	target	B	89,Middle Finger	71,Index Finger	900.0	750.0	1850.0	2000.0	0.0	n/a	900.0	0.0	ITI
283609	500.0	n/a	-1	-1	500	0.0	fixation	poldrack-single-stim	316	908550	0.0-15.12-0.12	beast_fmri_test	317	908367,/	t	<div class = centerbox2><div class = fixation>+</div></div>	none	500.0	test	n/a	n/a	n/a	n/a	n/a	n/a	n/a	n/a	n/a	n/a	n/a	n/a	n/a	n/a	n/a	n/a	n/a	n/a	fixation
283426.69525638537	750.0	n/a	-1	-1	2750	184.304743615	stim	stop-signal	317	911302	0.0-15.12-1.12	beast_fmri_test	317	909047,/,909727,/,910407,/,911086,/	t,t,t,t	<img class = center src='/static/experiments/beast_fmri_test/images/V.png'></img>	89,71	2750.0	test	<img class = center src='/static/experiments/beast_fmri_test/images/redV.png'></img>	stop	2000.0	2.0	12.0	stop	non-target	V	89,Middle Finger	71,Index Finger	900.0	750.0	1850.0	2000.0	0.0	1.0	750.0	n/a	go_stim
285426.69525638537	2000.0	n/a	-1	-1	2750	184.304743615	stim	stop-signal	317	911302	0.0-15.12-1.12	beast_fmri_test	317	909047,/,909727,/,910407,/,911086,/	t,t,t,t	<img class = center src='/static/experiments/beast_fmri_test/images/V.png'></img>	89,71	2750.0	test	<img class = center src='/static/experiments/beast_fmri_test/images/redV.png'></img>	stop	2000.0	2.0	12.0	stop	non-target	V	89,Middle Finger	71,Index Finger	900.0	750.0	1850.0	2000.0	0.0	1.0	750.0	n/a	stop_stim
286176.69525638537	184.304743615	n/a	-1	-1	2750	184.304743615	stim	stop-signal	317	911302	0.0-15.12-1.12	beast_fmri_test	317	909047,/,909727,/,910407,/,911086,/	t,t,t,t	<img class = center src='/static/experiments/beast_fmri_test/images/V.png'></img>	89,71	2750.0	test	<img class = center src='/static/experiments/beast_fmri_test/images/redV.png'></img>	stop	2000.0	2.0	12.0	stop	non-target	V	89,Middle Finger	71,Index Finger	900.0	750.0	1850.0	2000.0	0.0	1.0	750.0	n/a	ITI
287077	500.0	n/a	-1	-1	500	0.0	fixation	poldrack-single-stim	318	912018	0.0-15.13-0.13	beast_fmri_test	317	911767,/	t	<div class = centerbox2><div class = fixation>+</div></div>	none	500.0	test	n/a	n/a	n/a	n/a	n/a	n/a	n/a	n/a	n/a	n/a	n/a	n/a	n/a	n/a	n/a	n/a	n/a	n/a	fixation
286210.12917515193	2750.0	n/a	1152	89	2750	868.870824848	stim	stop-signal	319	914770	0.0-15.13-1.13	beast_fmri_test	317	912445,/,913125,/,913804,/,914486,/,915164,/	t,t,t,t,t	<img class = center src='/static/experiments/beast_fmri_test/images/B.png'></img>	89,71	2750.0	test	<img class = center src='/static/experiments/beast_fmri_test/images/redB.png'></img>	go	1850.0	2.0	13.0	go	target	B	89,Middle Finger	71,Index Finger	900.0	800.0	1850.0	2000.0	1.0	n/a	900.0	1.0	go_stim
288960.12917515193	868.870824848	n/a	1152	89	2750	868.870824848	stim	stop-signal	319	914770	0.0-15.13-1.13	beast_fmri_test	317	912445,/,913125,/,913804,/,914486,/,915164,/	t,t,t,t,t	<img class = center src='/static/experiments/beast_fmri_test/images/B.png'></img>	89,71	2750.0	test	<img class = center src='/static/experiments/beast_fmri_test/images/redB.png'></img>	go	1850.0	2.0	13.0	go	target	B	89,Middle Finger	71,Index Finger	900.0	800.0	1850.0	2000.0	1.0	n/a	900.0	1.0	ITI
291231	500.0	n/a	-1	-1	500	0.0	fixation	poldrack-single-stim	320	916172	0.0-15.14-0.14	beast_fmri_test	317	915845,/	t	<div class = centerbox2><div class = fixation>+</div></div>	none	500.0	test	n/a	n/a	n/a	n/a	n/a	n/a	n/a	n/a	n/a	n/a	n/a	n/a	n/a	n/a	n/a	n/a	n/a	n/a	fixation
290158.26498274144	2750.0	n/a	-1	-1	2750	1074.73501726	stim	stop-signal	321	918924	0.0-15.14-1.14	beast_fmri_test	317	916523,/,917204,/,917882,/,918562,/,919241,/,919922,/	t,t,t,t,t,t	<img class = center src='/static/experiments/beast_fmri_test/images/V.png'></img>	89,71	2750.0	test	<img class = center src='/static/experiments/beast_fmri_test/images/redV.png'></img>	go	1850.0	2.0	14.0	go	target	V	89,Middle Finger	71,Index Finger	900.0	800.0	1850.0	2000.0	0.0	n/a	900.0	0.0	go_stim
292908.26498274144	1074.73501726	n/a	-1	-1	2750	1074.73501726	stim	stop-signal	321	918924	0.0-15.14-1.14	beast_fmri_test	317	916523,/,917204,/,917882,/,918562,/,919241,/,919922,/	t,t,t,t,t,t	<img class = center src='/static/experiments/beast_fmri_test/images/V.png'></img>	89,71	2750.0	test	<img class = center src='/static/experiments/beast_fmri_test/images/redV.png'></img>	go	1850.0	2.0	14.0	go	target	V	89,Middle Finger	71,Index Finger	900.0	800.0	1850.0	2000.0	0.0	n/a	900.0	0.0	ITI
295592	500.0	n/a	-1	-1	500	0.0	fixation	poldrack-single-stim	322	920533	0.0-15.15-0.15	beast_fmri_test	317	n/a	n/a	<div class = centerbox2><div class = fixation>+</div></div>	none	500.0	test	n/a	n/a	n/a	n/a	n/a	n/a	n/a	n/a	n/a	n/a	n/a	n/a	n/a	n/a	n/a	n/a	n/a	n/a	fixation
292767.20420802338	800.0	n/a	-1	-1	2750	2825.79579198	stim	stop-signal	323	923284	0.0-15.15-1.15	beast_fmri_test	317	920603,/,921282,/,921960,/,922640,/,923319,/,923999,/,924681,/,925359,/,926039,/	t,t,t,t,t,t,t,t,t	<img class = center src='/static/experiments/beast_fmri_test/images/T.png'></img>	89,71	2750.0	test	<img class = center src='/static/experiments/beast_fmri_test/images/redT.png'></img>	stop	1950.0	2.0	15.0	stop	non-target	T	89,Middle Finger	71,Index Finger	900.0	800.0	1850.0	1950.0	0.0	1.0	800.0	n/a	go_stim
294717.20420802338	1950.0	n/a	-1	-1	2750	2825.79579198	stim	stop-signal	323	923284	0.0-15.15-1.15	beast_fmri_test	317	920603,/,921282,/,921960,/,922640,/,923319,/,923999,/,924681,/,925359,/,926039,/	t,t,t,t,t,t,t,t,t	<img class = center src='/static/experiments/beast_fmri_test/images/T.png'></img>	89,71	2750.0	test	<img class = center src='/static/experiments/beast_fmri_test/images/redT.png'></img>	stop	1950.0	2.0	15.0	stop	non-target	T	89,Middle Finger	71,Index Finger	900.0	800.0	1850.0	1950.0	0.0	1.0	800.0	n/a	stop_stim
295517.20420802338	2825.79579198	n/a	-1	-1	2750	2825.79579198	stim	stop-signal	323	923284	0.0-15.15-1.15	beast_fmri_test	317	920603,/,921282,/,921960,/,922640,/,923319,/,923999,/,924681,/,925359,/,926039,/	t,t,t,t,t,t,t,t,t	<img class = center src='/static/experiments/beast_fmri_test/images/T.png'></img>	89,71	2750.0	test	<img class = center src='/static/experiments/beast_fmri_test/images/redT.png'></img>	stop	1950.0	2.0	15.0	stop	non-target	T	89,Middle Finger	71,Index Finger	900.0	800.0	1850.0	1950.0	0.0	1.0	800.0	n/a	ITI
301706	500.0	n/a	-1	-1	500	0.0	fixation	poldrack-single-stim	324	926647	0.0-15.16-0.16	beast_fmri_test	317	n/a	n/a	<div class = centerbox2><div class = fixation>+</div></div>	none	500.0	test	n/a	n/a	n/a	n/a	n/a	n/a	n/a	n/a	n/a	n/a	n/a	n/a	n/a	n/a	n/a	n/a	n/a	n/a	fixation
300667.6616755547	2750.0	n/a	1824	71	2750	1039.33832445	stim	stop-signal	325	929398	0.0-15.16-1.16	beast_fmri_test	317	926719,/,927398,/,928077,/,928757,/,929436,/,930117,/	t,t,t,t,t,t	<img class = center src='/static/experiments/beast_fmri_test/images/V.png'></img>	89,71	2750.0	test	<img class = center src='/static/experiments/beast_fmri_test/images/redV.png'></img>	go	1850.0	2.0	16.0	go	target	V	89,Middle Finger	71,Index Finger	900.0	850.0	1850.0	1950.0	0.0	n/a	900.0	0.0	go_stim
303417.6616755547	1039.33832445	n/a	1824	71	2750	1039.33832445	stim	stop-signal	325	929398	0.0-15.16-1.16	beast_fmri_test	317	926719,/,927398,/,928077,/,928757,/,929436,/,930117,/	t,t,t,t,t,t	<img class = center src='/static/experiments/beast_fmri_test/images/V.png'></img>	89,71	2750.0	test	<img class = center src='/static/experiments/beast_fmri_test/images/redV.png'></img>	go	1850.0	2.0	16.0	go	target	V	89,Middle Finger	71,Index Finger	900.0	850.0	1850.0	1950.0	0.0	n/a	900.0	0.0	ITI
306030	500.0	n/a	-1	-1	500	0.0	fixation	poldrack-single-stim	326	930971	0.0-15.17-0.17	beast_fmri_test	317	930797,/	t	<div class = centerbox2><div class = fixation>+</div></div>	none	500.0	test	n/a	n/a	n/a	n/a	n/a	n/a	n/a	n/a	n/a	n/a	n/a	n/a	n/a	n/a	n/a	n/a	n/a	n/a	fixation
304469.93397031911	850.0	n/a	-1	-1	2750	1561.06602968	stim	stop-signal	327	933722	0.0-15.17-1.17	beast_fmri_test	317	931476,/,932155,/,932836,/,933516,/,934196,/,934875,/	t,t,t,t,t,t	<img class = center src='/static/experiments/beast_fmri_test/images/P.png'></img>	89,71	2750.0	test	<img class = center src='/static/experiments/beast_fmri_test/images/redP.png'></img>	stop	1900.0	2.0	17.0	stop	non-target	P	89,Middle Finger	71,Index Finger	900.0	850.0	1850.0	1900.0	0.0	1.0	850.0	n/a	go_stim
306369.93397031911	1900.0	n/a	-1	-1	2750	1561.06602968	stim	stop-signal	327	933722	0.0-15.17-1.17	beast_fmri_test	317	931476,/,932155,/,932836,/,933516,/,934196,/,934875,/	t,t,t,t,t,t	<img class = center src='/static/experiments/beast_fmri_test/images/P.png'></img>	89,71	2750.0	test	<img class = center src='/static/experiments/beast_fmri_test/images/redP.png'></img>	stop	1900.0	2.0	17.0	stop	non-target	P	89,Middle Finger	71,Index Finger	900.0	850.0	1850.0	1900.0	0.0	1.0	850.0	n/a	stop_stim
307219.93397031911	1561.06602968	n/a	-1	-1	2750	1561.06602968	stim	stop-signal	327	933722	0.0-15.17-1.17	beast_fmri_test	317	931476,/,932155,/,932836,/,933516,/,934196,/,934875,/	t,t,t,t,t,t	<img class = center src='/static/experiments/beast_fmri_test/images/P.png'></img>	89,71	2750.0	test	<img class = center src='/static/experiments/beast_fmri_test/images/redP.png'></img>	stop	1900.0	2.0	17.0	stop	non-target	P	89,Middle Finger	71,Index Finger	900.0	850.0	1850.0	1900.0	0.0	1.0	850.0	n/a	ITI
310875	500.0	n/a	-1	-1	500	0.0	fixation	poldrack-single-stim	328	935816	0.0-15.18-0.18	beast_fmri_test	317	935555,/	t	<div class = centerbox2><div class = fixation>+</div></div>	none	500.0	test	n/a	n/a	n/a	n/a	n/a	n/a	n/a	n/a	n/a	n/a	n/a	n/a	n/a	n/a	n/a	n/a	n/a	n/a	fixation
310639.74907172204	2750.0	n/a	1467	71	2750	236.250928278	stim	stop-signal	329	938567	0.0-15.18-1.18	beast_fmri_test	317	936235,/,936913,/,937594,/,938274,/	t,t,t,t	<img class = center src='/static/experiments/beast_fmri_test/images/P.png'></img>	89,71	2750.0	test	<img class = center src='/static/experiments/beast_fmri_test/images/redP.png'></img>	go	1850.0	2.0	18.0	go	non-target	P	89,Middle Finger	71,Index Finger	900.0	900.0	1850.0	1850.0	1.0	n/a	900.0	1.0	go_stim
313389.74907172204	236.250928278	n/a	1467	71	2750	236.250928278	stim	stop-signal	329	938567	0.0-15.18-1.18	beast_fmri_test	317	936235,/,936913,/,937594,/,938274,/	t,t,t,t	<img class = center src='/static/experiments/beast_fmri_test/images/P.png'></img>	89,71	2750.0	test	<img class = center src='/static/experiments/beast_fmri_test/images/redP.png'></img>	go	1850.0	2.0	18.0	go	non-target	P	89,Middle Finger	71,Index Finger	900.0	900.0	1850.0	1850.0	1.0	n/a	900.0	1.0	ITI
314396	500.0	n/a	-1	-1	500	0.0	fixation	poldrack-single-stim	330	939337	0.0-15.19-0.19	beast_fmri_test	317	938954,/	t	<div class = centerbox2><div class = fixation>+</div></div>	none	500.0	test	n/a	n/a	n/a	n/a	n/a	n/a	n/a	n/a	n/a	n/a	n/a	n/a	n/a	n/a	n/a	n/a	n/a	n/a	fixation
314380.26449449465	2750.0	n/a	1667	71	2750	16.7355055053	stim	stop-signal	331	942088	0.0-15.19-1.19	beast_fmri_test	317	939634,/,940313,/,940991,/,941671,/	t,t,t,t	<img class = center src='/static/experiments/beast_fmri_test/images/B.png'></img>	89,71	2750.0	test	<img class = center src='/static/experiments/beast_fmri_test/images/redB.png'></img>	go	1850.0	2.0	19.0	go	non-target	B	89,Middle Finger	71,Index Finger	900.0	900.0	1850.0	1850.0	1.0	n/a	900.0	1.0	go_stim
317130.26449449465	16.7355055053	n/a	1667	71	2750	16.7355055053	stim	stop-signal	331	942088	0.0-15.19-1.19	beast_fmri_test	317	939634,/,940313,/,940991,/,941671,/	t,t,t,t	<img class = center src='/static/experiments/beast_fmri_test/images/B.png'></img>	89,71	2750.0	test	<img class = center src='/static/experiments/beast_fmri_test/images/redB.png'></img>	go	1850.0	2.0	19.0	go	non-target	B	89,Middle Finger	71,Index Finger	900.0	900.0	1850.0	1850.0	1.0	n/a	900.0	1.0	ITI
317699	500.0	n/a	-1	-1	500	0.0	fixation	poldrack-single-stim	332	942640	0.0-15.20-0.20	beast_fmri_test	317	942351,/	t	<div class = centerbox2><div class = fixation>+</div></div>	none	500.0	test	n/a	n/a	n/a	n/a	n/a	n/a	n/a	n/a	n/a	n/a	n/a	n/a	n/a	n/a	n/a	n/a	n/a	n/a	fixation
317441.42361401732	900.0	n/a	-1	-1	2750	258.576385983	stim	stop-signal	333	945391	0.0-15.20-1.20	beast_fmri_test	317	943032,/,943710,/,944392,/,945070,/	t,t,t,t	<img class = center src='/static/experiments/beast_fmri_test/images/P.png'></img>	89,71	2750.0	test	<img class = center src='/static/experiments/beast_fmri_test/images/redP.png'></img>	stop	1850.0	2.0	20.0	stop	target	P	89,Middle Finger	71,Index Finger	900.0	900.0	1850.0	1850.0	0.0	1.0	900.0	n/a	go_stim
319291.42361401732	1850.0	n/a	-1	-1	2750	258.576385983	stim	stop-signal	333	945391	0.0-15.20-1.20	beast_fmri_test	317	943032,/,943710,/,944392,/,945070,/	t,t,t,t	<img class = center src='/static/experiments/beast_fmri_test/images/P.png'></img>	89,71	2750.0	test	<img class = center src='/static/experiments/beast_fmri_test/images/redP.png'></img>	stop	1850.0	2.0	20.0	stop	target	P	89,Middle Finger	71,Index Finger	900.0	900.0	1850.0	1850.0	0.0	1.0	900.0	n/a	stop_stim
320191.42361401732	258.576385983	n/a	-1	-1	2750	258.576385983	stim	stop-signal	333	945391	0.0-15.20-1.20	beast_fmri_test	317	943032,/,943710,/,944392,/,945070,/	t,t,t,t	<img class = center src='/static/experiments/beast_fmri_test/images/P.png'></img>	89,71	2750.0	test	<img class = center src='/static/experiments/beast_fmri_test/images/redP.png'></img>	stop	1850.0	2.0	20.0	stop	target	P	89,Middle Finger	71,Index Finger	900.0	900.0	1850.0	1850.0	0.0	1.0	900.0	n/a	ITI
321243	500.0	n/a	-1	-1	500	0.0	fixation	poldrack-single-stim	334	946184	0.0-15.21-0.21	beast_fmri_test	317	945750,/	t	<div class = centerbox2><div class = fixation>+</div></div>	none	500.0	test	n/a	n/a	n/a	n/a	n/a	n/a	n/a	n/a	n/a	n/a	n/a	n/a	n/a	n/a	n/a	n/a	n/a	n/a	fixation
321208.14182632056	950.0	n/a	-1	-1	2750	36.8581736794	stim	stop-signal	335	948936	0.0-15.21-1.21	beast_fmri_test	317	946429,/,947109,/,947790,/,948469,/	t,t,t,t	<img class = center src='/static/experiments/beast_fmri_test/images/B.png'></img>	89,71	2750.0	test	<img class = center src='/static/experiments/beast_fmri_test/images/redB.png'></img>	stop	1800.0	2.0	21.0	stop	target	B	89,Middle Finger	71,Index Finger	950.0	900.0	1800.0	1850.0	0.0	1.0	950.0	n/a	go_stim
323008.14182632056	1800.0	n/a	-1	-1	2750	36.8581736794	stim	stop-signal	335	948936	0.0-15.21-1.21	beast_fmri_test	317	946429,/,947109,/,947790,/,948469,/	t,t,t,t	<img class = center src='/static/experiments/beast_fmri_test/images/B.png'></img>	89,71	2750.0	test	<img class = center src='/static/experiments/beast_fmri_test/images/redB.png'></img>	stop	1800.0	2.0	21.0	stop	target	B	89,Middle Finger	71,Index Finger	950.0	900.0	1800.0	1850.0	0.0	1.0	950.0	n/a	stop_stim
323958.14182632056	36.8581736794	n/a	-1	-1	2750	36.8581736794	stim	stop-signal	335	948936	0.0-15.21-1.21	beast_fmri_test	317	946429,/,947109,/,947790,/,948469,/	t,t,t,t	<img class = center src='/static/experiments/beast_fmri_test/images/B.png'></img>	89,71	2750.0	test	<img class = center src='/static/experiments/beast_fmri_test/images/redB.png'></img>	stop	1800.0	2.0	21.0	stop	target	B	89,Middle Finger	71,Index Finger	950.0	900.0	1800.0	1850.0	0.0	1.0	950.0	n/a	ITI
324566	500.0	n/a	-1	-1	500	0.0	fixation	poldrack-single-stim	336	949507	0.0-15.22-0.22	beast_fmri_test	317	949148,/	t	<div class = centerbox2><div class = fixation>+</div></div>	none	500.0	test	n/a	n/a	n/a	n/a	n/a	n/a	n/a	n/a	n/a	n/a	n/a	n/a	n/a	n/a	n/a	n/a	n/a	n/a	fixation
324030.10396095994	2750.0	n/a	1303	71	2750	537.89603904	stim	stop-signal	337	952259	0.0-15.22-1.22	beast_fmri_test	317	949828,/,950507,/,951186,/,951866,/,952547,/	t,t,t,t,t	<img class = center src='/static/experiments/beast_fmri_test/images/T.png'></img>	89,71	2750.0	test	<img class = center src='/static/experiments/beast_fmri_test/images/redT.png'></img>	go	1850.0	2.0	22.0	go	non-target	T	89,Middle Finger	71,Index Finger	1000.0	900.0	1800.0	1850.0	1.0	n/a	900.0	1.0	go_stim
326780.10396095994	537.89603904	n/a	1303	71	2750	537.89603904	stim	stop-signal	337	952259	0.0-15.22-1.22	beast_fmri_test	317	949828,/,950507,/,951186,/,951866,/,952547,/	t,t,t,t,t	<img class = center src='/static/experiments/beast_fmri_test/images/T.png'></img>	89,71	2750.0	test	<img class = center src='/static/experiments/beast_fmri_test/images/redT.png'></img>	go	1850.0	2.0	22.0	go	non-target	T	89,Middle Finger	71,Index Finger	1000.0	900.0	1800.0	1850.0	1.0	n/a	900.0	1.0	ITI
328391	500.0	n/a	-1	-1	500	0.0	fixation	poldrack-single-stim	338	953332	0.0-15.23-0.23	beast_fmri_test	317	953226,/	t	<div class = centerbox2><div class = fixation>+</div></div>	none	500.0	test	n/a	n/a	n/a	n/a	n/a	n/a	n/a	n/a	n/a	n/a	n/a	n/a	n/a	n/a	n/a	n/a	n/a	n/a	fixation
327447.00630027999	2750.0	n/a	1896	71	2750	945.99369972	stim	stop-signal	339	956084	0.0-15.23-1.23	beast_fmri_test	317	953906,/,954586,/,955266,/,955944,/,956624,/	t,t,t,t,t	<img class = center src='/static/experiments/beast_fmri_test/images/D.png'></img>	89,71	2750.0	test	<img class = center src='/static/experiments/beast_fmri_test/images/redD.png'></img>	go	1850.0	2.0	23.0	go	non-target	D	89,Middle Finger	71,Index Finger	1000.0	900.0	1800.0	1850.0	1.0	n/a	900.0	1.0	go_stim
330197.00630027999	945.99369972	n/a	1896	71	2750	945.99369972	stim	stop-signal	339	956084	0.0-15.23-1.23	beast_fmri_test	317	953906,/,954586,/,955266,/,955944,/,956624,/	t,t,t,t,t	<img class = center src='/static/experiments/beast_fmri_test/images/D.png'></img>	89,71	2750.0	test	<img class = center src='/static/experiments/beast_fmri_test/images/redD.png'></img>	go	1850.0	2.0	23.0	go	non-target	D	89,Middle Finger	71,Index Finger	1000.0	900.0	1800.0	1850.0	1.0	n/a	900.0	1.0	ITI
