onset	duration	text	rt	key_press	block_duration	timing_post_trial	trial_id	trial_type	trial_index	time_elapsed	internal_node_id	exp_id	subject_id	trigger_times	triggers	stimulus	possible_responses	stim_duration	exp_stage	SS_stimulus	SS_trial_type	SS_duration	load	trial_num	stop_trial_type	adaptive_trial_type	stim	yes_response_key	no_response_key	SSD_target	SSD_non_target	SSTarget	SSNonTarget	go_acc	stop_acc	SS_delay	adaptive_acc	new_trial_type
test	10880.0	n/a	-1	-1	10880	0.0	practice-no-stop-feedback	poldrack-single-stim	388	1161820	0.0-18.0	beast_fmri_test	317	1150944,/,1151623,/,1152303,/,1152984,/,1153664,/,1154342,/,1155023,/,1155701,/,1156382,/,1157060,/,1157741,/,1158420,/,1159101,/,1159780,/,1160459,/,1161139,/,1161818,/	t,t,t,t,t,t,t,t,t,t,t,t,t,t,t,t,t	"<div class = ""centerbox""><p class = ""block-text"">Your delay is 1 trials.</p><p class = block-text>Please wait for the scanner to start the block</p></div>"	77	10880.0	n/a	n/a	n/a	n/a	n/a	n/a	n/a	n/a	n/a	n/a	n/a	n/a	n/a	n/a	n/a	n/a	n/a	n/a	n/a	start_functional_block
11380	500.0	n/a	-1	-1	500	0.0	fixation	poldrack-single-stim	389	1162324	0.0-19.0-0.0	beast_fmri_test	317	n/a	n/a	<div class = centerbox2><div class = fixation>+</div></div>	none	500.0	test	n/a	n/a	n/a	n/a	n/a	n/a	n/a	n/a	n/a	n/a	n/a	n/a	n/a	n/a	n/a	n/a	n/a	n/a	fixation
11234.799702701624	2750.0	n/a	1390	71	2750	147.200297298	stim	stop-signal	390	1165076	0.0-19.0-1.0	beast_fmri_test	317	1162498,/,1163178,/,1163858,/,1164537,/,1165216,/	t,t,t,t,t	<img class = center src='/static/experiments/beast_fmri_test/images/T.png'></img>	89,71	2750.0	test	<img class = center src='/static/experiments/beast_fmri_test/images/redT.png'></img>	go	-1.0	1.0	0.0	go	temp-non-target	T	89,Middle Finger	71,Index Finger	1100.0	1000.0	1700.0	1750.0	0.0	n/a	n/a	n/a	go_stim
13984.799702701624	147.200297298	n/a	1390	71	2750	147.200297298	stim	stop-signal	390	1165076	0.0-19.0-1.0	beast_fmri_test	317	1162498,/,1163178,/,1163858,/,1164537,/,1165216,/	t,t,t,t,t	<img class = center src='/static/experiments/beast_fmri_test/images/T.png'></img>	89,71	2750.0	test	<img class = center src='/static/experiments/beast_fmri_test/images/redT.png'></img>	go	-1.0	1.0	0.0	go	temp-non-target	T	89,Middle Finger	71,Index Finger	1100.0	1000.0	1700.0	1750.0	0.0	n/a	n/a	n/a	ITI
14830	500.0	n/a	-1	-1	500	0.0	fixation	poldrack-single-stim	391	1165774	0.0-19.1-0.1	beast_fmri_test	317	n/a	n/a	<div class = centerbox2><div class = fixation>+</div></div>	none	500.0	test	n/a	n/a	n/a	n/a	n/a	n/a	n/a	n/a	n/a	n/a	n/a	n/a	n/a	n/a	n/a	n/a	n/a	n/a	fixation
14153.921295843087	2750.0	n/a	1131	71	2750	677.078704157	stim	stop-signal	392	1168525	0.0-19.1-1.1	beast_fmri_test	317	1165896,/,1166577,/,1167256,/,1167936,/,1168614,/	t,t,t,t,t	<img class = center src='/static/experiments/beast_fmri_test/images/D.png'></img>	89,71	2750.0	test	<img class = center src='/static/experiments/beast_fmri_test/images/redD.png'></img>	go	1750.0	1.0	1.0	go	non-target	D	89,Middle Finger	71,Index Finger	1100.0	1000.0	1700.0	1750.0	1.0	n/a	1000.0	1.0	go_stim
16903.921295843087	677.078704157	n/a	1131	71	2750	677.078704157	stim	stop-signal	392	1168525	0.0-19.1-1.1	beast_fmri_test	317	1165896,/,1166577,/,1167256,/,1167936,/,1168614,/	t,t,t,t,t	<img class = center src='/static/experiments/beast_fmri_test/images/D.png'></img>	89,71	2750.0	test	<img class = center src='/static/experiments/beast_fmri_test/images/redD.png'></img>	go	1750.0	1.0	1.0	go	non-target	D	89,Middle Finger	71,Index Finger	1100.0	1000.0	1700.0	1750.0	1.0	n/a	1000.0	1.0	ITI
18799	500.0	n/a	-1	-1	500	0.0	fixation	poldrack-single-stim	393	1169743	0.0-19.2-0.2	beast_fmri_test	317	1169294,/	t	<div class = centerbox2><div class = fixation>+</div></div>	none	500.0	test	n/a	n/a	n/a	n/a	n/a	n/a	n/a	n/a	n/a	n/a	n/a	n/a	n/a	n/a	n/a	n/a	n/a	n/a	fixation
18346.022200067295	2750.0	n/a	946	71	2750	455.977799933	stim	stop-signal	394	1172496	0.0-19.2-1.2	beast_fmri_test	317	1169974,/,1170654,/,1171333,/,1172012,/,1172694,/	t,t,t,t,t	<img class = center src='/static/experiments/beast_fmri_test/images/P.png'></img>	89,71	2750.0	test	<img class = center src='/static/experiments/beast_fmri_test/images/redP.png'></img>	go	1750.0	1.0	2.0	go	non-target	P	89,Middle Finger	71,Index Finger	1100.0	1000.0	1700.0	1750.0	1.0	n/a	1000.0	1.0	go_stim
21096.022200067295	455.977799933	n/a	946	71	2750	455.977799933	stim	stop-signal	394	1172496	0.0-19.2-1.2	beast_fmri_test	317	1169974,/,1170654,/,1171333,/,1172012,/,1172694,/	t,t,t,t,t	<img class = center src='/static/experiments/beast_fmri_test/images/P.png'></img>	89,71	2750.0	test	<img class = center src='/static/experiments/beast_fmri_test/images/redP.png'></img>	go	1750.0	1.0	2.0	go	non-target	P	89,Middle Finger	71,Index Finger	1100.0	1000.0	1700.0	1750.0	1.0	n/a	1000.0	1.0	ITI
22551	500.0	n/a	-1	-1	500	0.0	fixation	poldrack-single-stim	395	1173495	0.0-19.3-0.3	beast_fmri_test	317	1173372,/	t	<div class = centerbox2><div class = fixation>+</div></div>	none	500.0	test	n/a	n/a	n/a	n/a	n/a	n/a	n/a	n/a	n/a	n/a	n/a	n/a	n/a	n/a	n/a	n/a	n/a	n/a	fixation
21075.552461063024	2750.0	n/a	1160	71	2750	1476.44753894	stim	stop-signal	396	1176246	0.0-19.3-1.3	beast_fmri_test	317	1174053,/,1174731,/,1175412,/,1176091,/,1176770,/,1177452,/	t,t,t,t,t,t	<img class = center src='/static/experiments/beast_fmri_test/images/V.png'></img>	89,71	2750.0	test	<img class = center src='/static/experiments/beast_fmri_test/images/redV.png'></img>	go	1750.0	1.0	3.0	go	non-target	V	89,Middle Finger	71,Index Finger	1100.0	1000.0	1700.0	1750.0	1.0	n/a	1000.0	1.0	go_stim
23825.552461063024	1476.44753894	n/a	1160	71	2750	1476.44753894	stim	stop-signal	396	1176246	0.0-19.3-1.3	beast_fmri_test	317	1174053,/,1174731,/,1175412,/,1176091,/,1176770,/,1177452,/	t,t,t,t,t,t	<img class = center src='/static/experiments/beast_fmri_test/images/V.png'></img>	89,71	2750.0	test	<img class = center src='/static/experiments/beast_fmri_test/images/redV.png'></img>	go	1750.0	1.0	3.0	go	non-target	V	89,Middle Finger	71,Index Finger	1100.0	1000.0	1700.0	1750.0	1.0	n/a	1000.0	1.0	ITI
27319	500.0	n/a	-1	-1	500	0.0	fixation	poldrack-single-stim	397	1178263	0.0-19.4-0.4	beast_fmri_test	317	1178132,/	t	<div class = centerbox2><div class = fixation>+</div></div>	none	500.0	test	n/a	n/a	n/a	n/a	n/a	n/a	n/a	n/a	n/a	n/a	n/a	n/a	n/a	n/a	n/a	n/a	n/a	n/a	fixation
27034.316541380947	1000.0	n/a	1103	71	2750	286.683458619	stim	stop-signal	398	1181015	0.0-19.4-1.4	beast_fmri_test	317	1178810,/,1179490,/,1180170,/,1180849,/	t,t,t,t	<img class = center src='/static/experiments/beast_fmri_test/images/D.png'></img>	89,71	2750.0	test	<img class = center src='/static/experiments/beast_fmri_test/images/redD.png'></img>	stop	1750.0	1.0	4.0	stop	non-target	D	89,Middle Finger	71,Index Finger	1100.0	1000.0	1700.0	1750.0	0.0	0.0	1000.0	n/a	go_stim
28784.316541380947	1750.0	n/a	1103	71	2750	286.683458619	stim	stop-signal	398	1181015	0.0-19.4-1.4	beast_fmri_test	317	1178810,/,1179490,/,1180170,/,1180849,/	t,t,t,t	<img class = center src='/static/experiments/beast_fmri_test/images/D.png'></img>	89,71	2750.0	test	<img class = center src='/static/experiments/beast_fmri_test/images/redD.png'></img>	stop	1750.0	1.0	4.0	stop	non-target	D	89,Middle Finger	71,Index Finger	1100.0	1000.0	1700.0	1750.0	0.0	0.0	1000.0	n/a	stop_stim
29784.316541380947	286.683458619	n/a	1103	71	2750	286.683458619	stim	stop-signal	398	1181015	0.0-19.4-1.4	beast_fmri_test	317	1178810,/,1179490,/,1180170,/,1180849,/	t,t,t,t	<img class = center src='/static/experiments/beast_fmri_test/images/D.png'></img>	89,71	2750.0	test	<img class = center src='/static/experiments/beast_fmri_test/images/redD.png'></img>	stop	1750.0	1.0	4.0	stop	non-target	D	89,Middle Finger	71,Index Finger	1100.0	1000.0	1700.0	1750.0	0.0	0.0	1000.0	n/a	ITI
30903	500.0	n/a	-1	-1	500	0.0	fixation	poldrack-single-stim	399	1181847	0.0-19.5-0.5	beast_fmri_test	317	1181530,/	t	<div class = centerbox2><div class = fixation>+</div></div>	none	500.0	test	n/a	n/a	n/a	n/a	n/a	n/a	n/a	n/a	n/a	n/a	n/a	n/a	n/a	n/a	n/a	n/a	n/a	n/a	fixation
30895.145892658504	2750.0	n/a	1105	89	2750	9.85410734146	stim	stop-signal	400	1184599	0.0-19.5-1.5	beast_fmri_test	317	1182210,/,1182889,/,1183570,/,1184247,/	t,t,t,t	<img class = center src='/static/experiments/beast_fmri_test/images/D.png'></img>	89,71	2750.0	test	<img class = center src='/static/experiments/beast_fmri_test/images/redD.png'></img>	go	1650.0	1.0	5.0	go	target	D	89,Middle Finger	71,Index Finger	1100.0	950.0	1650.0	1750.0	1.0	n/a	1100.0	1.0	go_stim
33645.145892658504	9.85410734146	n/a	1105	89	2750	9.85410734146	stim	stop-signal	400	1184599	0.0-19.5-1.5	beast_fmri_test	317	1182210,/,1182889,/,1183570,/,1184247,/	t,t,t,t	<img class = center src='/static/experiments/beast_fmri_test/images/D.png'></img>	89,71	2750.0	test	<img class = center src='/static/experiments/beast_fmri_test/images/redD.png'></img>	go	1650.0	1.0	5.0	go	target	D	89,Middle Finger	71,Index Finger	1100.0	950.0	1650.0	1750.0	1.0	n/a	1100.0	1.0	ITI
34207	500.0	n/a	-1	-1	500	0.0	fixation	poldrack-single-stim	401	1185151	0.0-19.6-0.6	beast_fmri_test	317	1184927,/	t	<div class = centerbox2><div class = fixation>+</div></div>	none	500.0	test	n/a	n/a	n/a	n/a	n/a	n/a	n/a	n/a	n/a	n/a	n/a	n/a	n/a	n/a	n/a	n/a	n/a	n/a	fixation
33960.955078782979	2750.0	n/a	1225	71	2750	248.044921217	stim	stop-signal	402	1187903	0.0-19.6-1.6	beast_fmri_test	317	1185609,/,1186287,/,1186966,/,1187646,/	t,t,t,t	<img class = center src='/static/experiments/beast_fmri_test/images/T.png'></img>	89,71	2750.0	test	<img class = center src='/static/experiments/beast_fmri_test/images/redT.png'></img>	go	1800.0	1.0	6.0	go	non-target	T	89,Middle Finger	71,Index Finger	1100.0	950.0	1650.0	1800.0	1.0	n/a	950.0	1.0	go_stim
36710.955078782979	248.044921217	n/a	1225	71	2750	248.044921217	stim	stop-signal	402	1187903	0.0-19.6-1.6	beast_fmri_test	317	1185609,/,1186287,/,1186966,/,1187646,/	t,t,t,t	<img class = center src='/static/experiments/beast_fmri_test/images/T.png'></img>	89,71	2750.0	test	<img class = center src='/static/experiments/beast_fmri_test/images/redT.png'></img>	go	1800.0	1.0	6.0	go	non-target	T	89,Middle Finger	71,Index Finger	1100.0	950.0	1650.0	1800.0	1.0	n/a	950.0	1.0	ITI
37754	500.0	n/a	-1	-1	500	0.0	fixation	poldrack-single-stim	403	1188698	0.0-19.7-0.7	beast_fmri_test	317	1188327,/	t	<div class = centerbox2><div class = fixation>+</div></div>	none	500.0	test	n/a	n/a	n/a	n/a	n/a	n/a	n/a	n/a	n/a	n/a	n/a	n/a	n/a	n/a	n/a	n/a	n/a	n/a	fixation
34478.527570667444	2750.0	n/a	1525	71	2750	3278.47242933	stim	stop-signal	404	1191451	0.0-19.7-1.7	beast_fmri_test	317	1189005,/,1189685,/,1190365,/,1191045,/,1191724,/,1192405,/,1193084,/,1193763,/,1194442,/	t,t,t,t,t,t,t,t,t	<img class = center src='/static/experiments/beast_fmri_test/images/D.png'></img>	89,71	2750.0	test	<img class = center src='/static/experiments/beast_fmri_test/images/redD.png'></img>	go	1800.0	1.0	7.0	go	non-target	D	89,Middle Finger	71,Index Finger	1100.0	950.0	1650.0	1800.0	1.0	n/a	950.0	1.0	go_stim
37228.527570667444	3278.47242933	n/a	1525	71	2750	3278.47242933	stim	stop-signal	404	1191451	0.0-19.7-1.7	beast_fmri_test	317	1189005,/,1189685,/,1190365,/,1191045,/,1191724,/,1192405,/,1193084,/,1193763,/,1194442,/	t,t,t,t,t,t,t,t,t	<img class = center src='/static/experiments/beast_fmri_test/images/D.png'></img>	89,71	2750.0	test	<img class = center src='/static/experiments/beast_fmri_test/images/redD.png'></img>	go	1800.0	1.0	7.0	go	non-target	D	89,Middle Finger	71,Index Finger	1100.0	950.0	1650.0	1800.0	1.0	n/a	950.0	1.0	ITI
44325	500.0	n/a	-1	-1	500	0.0	fixation	poldrack-single-stim	405	1195269	0.0-19.8-0.8	beast_fmri_test	317	1195124,/	t	<div class = centerbox2><div class = fixation>+</div></div>	none	500.0	test	n/a	n/a	n/a	n/a	n/a	n/a	n/a	n/a	n/a	n/a	n/a	n/a	n/a	n/a	n/a	n/a	n/a	n/a	fixation
43677.764193757437	950.0	n/a	-1	-1	2750	648.235806243	stim	stop-signal	406	1198020	0.0-19.8-1.8	beast_fmri_test	317	1195802,/,1196482,/,1197163,/,1197842,/,1198520,/	t,t,t,t,t	<img class = center src='/static/experiments/beast_fmri_test/images/T.png'></img>	89,71	2750.0	test	<img class = center src='/static/experiments/beast_fmri_test/images/redT.png'></img>	stop	1800.0	1.0	8.0	stop	non-target	T	89,Middle Finger	71,Index Finger	1100.0	950.0	1650.0	1800.0	0.0	1.0	950.0	n/a	go_stim
45477.764193757437	1800.0	n/a	-1	-1	2750	648.235806243	stim	stop-signal	406	1198020	0.0-19.8-1.8	beast_fmri_test	317	1195802,/,1196482,/,1197163,/,1197842,/,1198520,/	t,t,t,t,t	<img class = center src='/static/experiments/beast_fmri_test/images/T.png'></img>	89,71	2750.0	test	<img class = center src='/static/experiments/beast_fmri_test/images/redT.png'></img>	stop	1800.0	1.0	8.0	stop	non-target	T	89,Middle Finger	71,Index Finger	1100.0	950.0	1650.0	1800.0	0.0	1.0	950.0	n/a	stop_stim
46427.764193757437	648.235806243	n/a	-1	-1	2750	648.235806243	stim	stop-signal	406	1198020	0.0-19.8-1.8	beast_fmri_test	317	1195802,/,1196482,/,1197163,/,1197842,/,1198520,/	t,t,t,t,t	<img class = center src='/static/experiments/beast_fmri_test/images/T.png'></img>	89,71	2750.0	test	<img class = center src='/static/experiments/beast_fmri_test/images/redT.png'></img>	stop	1800.0	1.0	8.0	stop	non-target	T	89,Middle Finger	71,Index Finger	1100.0	950.0	1650.0	1800.0	0.0	1.0	950.0	n/a	ITI
48270	500.0	n/a	-1	-1	500	0.0	fixation	poldrack-single-stim	407	1199214	0.0-19.9-0.9	beast_fmri_test	317	1199201,/	t	<div class = centerbox2><div class = fixation>+</div></div>	none	500.0	test	n/a	n/a	n/a	n/a	n/a	n/a	n/a	n/a	n/a	n/a	n/a	n/a	n/a	n/a	n/a	n/a	n/a	n/a	fixation
46302.892581027001	2750.0	n/a	1087	89	2750	1969.10741897	stim	stop-signal	408	1201966	0.0-19.9-1.9	beast_fmri_test	317	1199882,/,1200560,/,1201240,/,1201920,/,1202600,/,1203280,/	t,t,t,t,t,t	<img class = center src='/static/experiments/beast_fmri_test/images/T.png'></img>	89,71	2750.0	test	<img class = center src='/static/experiments/beast_fmri_test/images/redT.png'></img>	go	1650.0	1.0	9.0	go	target	T	89,Middle Finger	71,Index Finger	1100.0	1000.0	1650.0	1800.0	1.0	n/a	1100.0	1.0	go_stim
49052.892581027001	1969.10741897	n/a	1087	89	2750	1969.10741897	stim	stop-signal	408	1201966	0.0-19.9-1.9	beast_fmri_test	317	1199882,/,1200560,/,1201240,/,1201920,/,1202600,/,1203280,/	t,t,t,t,t,t	<img class = center src='/static/experiments/beast_fmri_test/images/T.png'></img>	89,71	2750.0	test	<img class = center src='/static/experiments/beast_fmri_test/images/redT.png'></img>	go	1650.0	1.0	9.0	go	target	T	89,Middle Finger	71,Index Finger	1100.0	1000.0	1650.0	1800.0	1.0	n/a	1100.0	1.0	ITI
53540	500.0	n/a	-1	-1	500	0.0	fixation	poldrack-single-stim	409	1204484	0.0-19.10-0.10	beast_fmri_test	317	1203982,/	t	<div class = centerbox2><div class = fixation>+</div></div>	none	500.0	test	n/a	n/a	n/a	n/a	n/a	n/a	n/a	n/a	n/a	n/a	n/a	n/a	n/a	n/a	n/a	n/a	n/a	n/a	fixation
51634.075279224897	2750.0	n/a	1291	71	2750	1906.92472078	stim	stop-signal	410	1207235	0.0-19.10-1.10	beast_fmri_test	317	1204638,/,1205319,/,1205999,/,1206679,/,1207358,/,1208037,/,1208717,/	t,t,t,t,t,t,t	<img class = center src='/static/experiments/beast_fmri_test/images/V.png'></img>	89,71	2750.0	test	<img class = center src='/static/experiments/beast_fmri_test/images/redV.png'></img>	go	1750.0	1.0	10.0	go	non-target	V	89,Middle Finger	71,Index Finger	1100.0	1000.0	1650.0	1750.0	1.0	n/a	1000.0	1.0	go_stim
54384.075279224897	1906.92472078	n/a	1291	71	2750	1906.92472078	stim	stop-signal	410	1207235	0.0-19.10-1.10	beast_fmri_test	317	1204638,/,1205319,/,1205999,/,1206679,/,1207358,/,1208037,/,1208717,/	t,t,t,t,t,t,t	<img class = center src='/static/experiments/beast_fmri_test/images/V.png'></img>	89,71	2750.0	test	<img class = center src='/static/experiments/beast_fmri_test/images/redV.png'></img>	go	1750.0	1.0	10.0	go	non-target	V	89,Middle Finger	71,Index Finger	1100.0	1000.0	1650.0	1750.0	1.0	n/a	1000.0	1.0	ITI
58738	500.0	n/a	-1	-1	500	0.0	fixation	poldrack-single-stim	411	1209682	0.0-19.11-0.11	beast_fmri_test	317	1209396,/	t	<div class = centerbox2><div class = fixation>+</div></div>	none	500.0	test	n/a	n/a	n/a	n/a	n/a	n/a	n/a	n/a	n/a	n/a	n/a	n/a	n/a	n/a	n/a	n/a	n/a	n/a	fixation
56855.426170026185	2750.0	n/a	1357	89	2750	1883.57382997	stim	stop-signal	412	1212433	0.0-19.11-1.11	beast_fmri_test	317	1210077,/,1210756,/,1211435,/,1212115,/,1212795,/,1213474,/,1214155,/	t,t,t,t,t,t,t	<img class = center src='/static/experiments/beast_fmri_test/images/V.png'></img>	89,71	2750.0	test	<img class = center src='/static/experiments/beast_fmri_test/images/redV.png'></img>	go	1650.0	1.0	11.0	go	target	V	89,Middle Finger	71,Index Finger	1100.0	1000.0	1650.0	1750.0	1.0	n/a	1100.0	1.0	go_stim
59605.426170026185	1883.57382997	n/a	1357	89	2750	1883.57382997	stim	stop-signal	412	1212433	0.0-19.11-1.11	beast_fmri_test	317	1210077,/,1210756,/,1211435,/,1212115,/,1212795,/,1213474,/,1214155,/	t,t,t,t,t,t,t	<img class = center src='/static/experiments/beast_fmri_test/images/V.png'></img>	89,71	2750.0	test	<img class = center src='/static/experiments/beast_fmri_test/images/redV.png'></img>	go	1650.0	1.0	11.0	go	target	V	89,Middle Finger	71,Index Finger	1100.0	1000.0	1650.0	1750.0	1.0	n/a	1100.0	1.0	ITI
63916	500.0	n/a	-1	-1	500	0.0	fixation	poldrack-single-stim	413	1214860	0.0-19.12-0.12	beast_fmri_test	317	1214835,/	t	<div class = centerbox2><div class = fixation>+</div></div>	none	500.0	test	n/a	n/a	n/a	n/a	n/a	n/a	n/a	n/a	n/a	n/a	n/a	n/a	n/a	n/a	n/a	n/a	n/a	n/a	fixation
62851.281577804824	1000.0	n/a	1023	71	2750	1066.7184222	stim	stop-signal	414	1217612	0.0-19.12-1.12	beast_fmri_test	317	1215514,/,1216194,/,1216873,/,1217552,/,1218232,/	t,t,t,t,t	<img class = center src='/static/experiments/beast_fmri_test/images/B.png'></img>	89,71	2750.0	test	<img class = center src='/static/experiments/beast_fmri_test/images/redB.png'></img>	stop	1750.0	1.0	12.0	stop	non-target	B	89,Middle Finger	71,Index Finger	1100.0	1000.0	1650.0	1750.0	0.0	0.0	1000.0	n/a	go_stim
64601.281577804824	1750.0	n/a	1023	71	2750	1066.7184222	stim	stop-signal	414	1217612	0.0-19.12-1.12	beast_fmri_test	317	1215514,/,1216194,/,1216873,/,1217552,/,1218232,/	t,t,t,t,t	<img class = center src='/static/experiments/beast_fmri_test/images/B.png'></img>	89,71	2750.0	test	<img class = center src='/static/experiments/beast_fmri_test/images/redB.png'></img>	stop	1750.0	1.0	12.0	stop	non-target	B	89,Middle Finger	71,Index Finger	1100.0	1000.0	1650.0	1750.0	0.0	0.0	1000.0	n/a	stop_stim
65601.281577804824	1066.7184222	n/a	1023	71	2750	1066.7184222	stim	stop-signal	414	1217612	0.0-19.12-1.12	beast_fmri_test	317	1215514,/,1216194,/,1216873,/,1217552,/,1218232,/	t,t,t,t,t	<img class = center src='/static/experiments/beast_fmri_test/images/B.png'></img>	89,71	2750.0	test	<img class = center src='/static/experiments/beast_fmri_test/images/redB.png'></img>	stop	1750.0	1.0	12.0	stop	non-target	B	89,Middle Finger	71,Index Finger	1100.0	1000.0	1650.0	1750.0	0.0	0.0	1000.0	n/a	ITI
68280	500.0	n/a	-1	-1	500	0.0	fixation	poldrack-single-stim	415	1219224	0.0-19.13-0.13	beast_fmri_test	317	1218912,/	t	<div class = centerbox2><div class = fixation>+</div></div>	none	500.0	test	n/a	n/a	n/a	n/a	n/a	n/a	n/a	n/a	n/a	n/a	n/a	n/a	n/a	n/a	n/a	n/a	n/a	n/a	fixation
68214.19595677522	950.0	n/a	-1	-1	2750	65.8040432248	stim	stop-signal	416	1221974	0.0-19.13-1.13	beast_fmri_test	317	1219593,/,1220273,/,1220951,/,1221632,/	t,t,t,t	<img class = center src='/static/experiments/beast_fmri_test/images/P.png'></img>	89,71	2750.0	test	<img class = center src='/static/experiments/beast_fmri_test/images/redP.png'></img>	stop	1800.0	1.0	13.0	stop	non-target	P	89,Middle Finger	71,Index Finger	1100.0	950.0	1650.0	1800.0	0.0	1.0	950.0	n/a	go_stim
70014.19595677522	1800.0	n/a	-1	-1	2750	65.8040432248	stim	stop-signal	416	1221974	0.0-19.13-1.13	beast_fmri_test	317	1219593,/,1220273,/,1220951,/,1221632,/	t,t,t,t	<img class = center src='/static/experiments/beast_fmri_test/images/P.png'></img>	89,71	2750.0	test	<img class = center src='/static/experiments/beast_fmri_test/images/redP.png'></img>	stop	1800.0	1.0	13.0	stop	non-target	P	89,Middle Finger	71,Index Finger	1100.0	950.0	1650.0	1800.0	0.0	1.0	950.0	n/a	stop_stim
70964.19595677522	65.8040432248	n/a	-1	-1	2750	65.8040432248	stim	stop-signal	416	1221974	0.0-19.13-1.13	beast_fmri_test	317	1219593,/,1220273,/,1220951,/,1221632,/	t,t,t,t	<img class = center src='/static/experiments/beast_fmri_test/images/P.png'></img>	89,71	2750.0	test	<img class = center src='/static/experiments/beast_fmri_test/images/redP.png'></img>	stop	1800.0	1.0	13.0	stop	non-target	P	89,Middle Finger	71,Index Finger	1100.0	950.0	1650.0	1800.0	0.0	1.0	950.0	n/a	ITI
71640	500.0	n/a	-1	-1	500	0.0	fixation	poldrack-single-stim	417	1222584	0.0-19.14-0.14	beast_fmri_test	317	1222311,/	t	<div class = centerbox2><div class = fixation>+</div></div>	none	500.0	test	n/a	n/a	n/a	n/a	n/a	n/a	n/a	n/a	n/a	n/a	n/a	n/a	n/a	n/a	n/a	n/a	n/a	n/a	fixation
70071.645114641171	1000.0	n/a	-1	-1	2750	1571.35488536	stim	stop-signal	418	1225337	0.0-19.14-1.14	beast_fmri_test	317	1222990,/,1223670,/,1224350,/,1225029,/,1225710,/,1226388,/	t,t,t,t,t,t	<img class = center src='/static/experiments/beast_fmri_test/images/V.png'></img>	89,71	2750.0	test	<img class = center src='/static/experiments/beast_fmri_test/images/redV.png'></img>	stop	1750.0	1.0	14.0	stop	non-target	V	89,Middle Finger	71,Index Finger	1100.0	1000.0	1650.0	1750.0	0.0	1.0	1000.0	n/a	go_stim
71821.645114641171	1750.0	n/a	-1	-1	2750	1571.35488536	stim	stop-signal	418	1225337	0.0-19.14-1.14	beast_fmri_test	317	1222990,/,1223670,/,1224350,/,1225029,/,1225710,/,1226388,/	t,t,t,t,t,t	<img class = center src='/static/experiments/beast_fmri_test/images/V.png'></img>	89,71	2750.0	test	<img class = center src='/static/experiments/beast_fmri_test/images/redV.png'></img>	stop	1750.0	1.0	14.0	stop	non-target	V	89,Middle Finger	71,Index Finger	1100.0	1000.0	1650.0	1750.0	0.0	1.0	1000.0	n/a	stop_stim
72821.645114641171	1571.35488536	n/a	-1	-1	2750	1571.35488536	stim	stop-signal	418	1225337	0.0-19.14-1.14	beast_fmri_test	317	1222990,/,1223670,/,1224350,/,1225029,/,1225710,/,1226388,/	t,t,t,t,t,t	<img class = center src='/static/experiments/beast_fmri_test/images/V.png'></img>	89,71	2750.0	test	<img class = center src='/static/experiments/beast_fmri_test/images/redV.png'></img>	stop	1750.0	1.0	14.0	stop	non-target	V	89,Middle Finger	71,Index Finger	1100.0	1000.0	1650.0	1750.0	0.0	1.0	1000.0	n/a	ITI
76511	500.0	n/a	-1	-1	500	0.0	fixation	poldrack-single-stim	419	1227455	0.0-19.15-0.15	beast_fmri_test	317	1227069,/	t	<div class = centerbox2><div class = fixation>+</div></div>	none	500.0	test	n/a	n/a	n/a	n/a	n/a	n/a	n/a	n/a	n/a	n/a	n/a	n/a	n/a	n/a	n/a	n/a	n/a	n/a	fixation
76397.99532445427	2750.0	n/a	-1	-1	2750	113.004675546	stim	stop-signal	420	1230205	0.0-19.15-1.15	beast_fmri_test	317	1227747,/,1228429,/,1229108,/,1229788,/	t,t,t,t	<img class = center src='/static/experiments/beast_fmri_test/images/P.png'></img>	89,71	2750.0	test	<img class = center src='/static/experiments/beast_fmri_test/images/redP.png'></img>	go	1700.0	1.0	15.0	go	non-target	P	89,Middle Finger	71,Index Finger	1100.0	1050.0	1650.0	1700.0	0.0	n/a	1050.0	0.0	go_stim
79147.99532445427	113.004675546	n/a	-1	-1	2750	113.004675546	stim	stop-signal	420	1230205	0.0-19.15-1.15	beast_fmri_test	317	1227747,/,1228429,/,1229108,/,1229788,/	t,t,t,t	<img class = center src='/static/experiments/beast_fmri_test/images/P.png'></img>	89,71	2750.0	test	<img class = center src='/static/experiments/beast_fmri_test/images/redP.png'></img>	go	1700.0	1.0	15.0	go	non-target	P	89,Middle Finger	71,Index Finger	1100.0	1050.0	1650.0	1700.0	0.0	n/a	1050.0	0.0	ITI
79928	500.0	n/a	-1	-1	500	0.0	fixation	poldrack-single-stim	421	1230872	0.0-19.16-0.16	beast_fmri_test	317	1230467,/	t	<div class = centerbox2><div class = fixation>+</div></div>	none	500.0	test	n/a	n/a	n/a	n/a	n/a	n/a	n/a	n/a	n/a	n/a	n/a	n/a	n/a	n/a	n/a	n/a	n/a	n/a	fixation
79885.509110569023	1050.0	n/a	-1	-1	2750	45.4908894309	stim	stop-signal	422	1233625	0.0-19.16-1.16	beast_fmri_test	317	1231146,/,1231825,/,1232505,/,1233185,/	t,t,t,t	<img class = center src='/static/experiments/beast_fmri_test/images/T.png'></img>	89,71	2750.0	test	<img class = center src='/static/experiments/beast_fmri_test/images/redT.png'></img>	stop	1700.0	1.0	16.0	stop	non-target	T	89,Middle Finger	71,Index Finger	1100.0	1050.0	1650.0	1700.0	0.0	1.0	1050.0	n/a	go_stim
81585.509110569023	1700.0	n/a	-1	-1	2750	45.4908894309	stim	stop-signal	422	1233625	0.0-19.16-1.16	beast_fmri_test	317	1231146,/,1231825,/,1232505,/,1233185,/	t,t,t,t	<img class = center src='/static/experiments/beast_fmri_test/images/T.png'></img>	89,71	2750.0	test	<img class = center src='/static/experiments/beast_fmri_test/images/redT.png'></img>	stop	1700.0	1.0	16.0	stop	non-target	T	89,Middle Finger	71,Index Finger	1100.0	1050.0	1650.0	1700.0	0.0	1.0	1050.0	n/a	stop_stim
82635.509110569023	45.4908894309	n/a	-1	-1	2750	45.4908894309	stim	stop-signal	422	1233625	0.0-19.16-1.16	beast_fmri_test	317	1231146,/,1231825,/,1232505,/,1233185,/	t,t,t,t	<img class = center src='/static/experiments/beast_fmri_test/images/T.png'></img>	89,71	2750.0	test	<img class = center src='/static/experiments/beast_fmri_test/images/redT.png'></img>	stop	1700.0	1.0	16.0	stop	non-target	T	89,Middle Finger	71,Index Finger	1100.0	1050.0	1650.0	1700.0	0.0	1.0	1050.0	n/a	ITI
83265	500.0	n/a	-1	-1	500	0.0	fixation	poldrack-single-stim	423	1234209	0.0-19.17-0.17	beast_fmri_test	317	1233866,/	t	<div class = centerbox2><div class = fixation>+</div></div>	none	500.0	test	n/a	n/a	n/a	n/a	n/a	n/a	n/a	n/a	n/a	n/a	n/a	n/a	n/a	n/a	n/a	n/a	n/a	n/a	fixation
81699.496333683608	1100.0	n/a	977	71	2750	1568.50366632	stim	stop-signal	424	1236962	0.0-19.17-1.17	beast_fmri_test	317	1234545,/,1235225,/,1235906,/,1236585,/,1237265,/,1237944,/	t,t,t,t,t,t	<img class = center src='/static/experiments/beast_fmri_test/images/T.png'></img>	89,71	2750.0	test	<img class = center src='/static/experiments/beast_fmri_test/images/redT.png'></img>	stop	1650.0	1.0	17.0	stop	target	T	89,Middle Finger	71,Index Finger	1100.0	1100.0	1650.0	1700.0	0.0	0.0	1100.0	n/a	go_stim
83349.496333683608	1650.0	n/a	977	71	2750	1568.50366632	stim	stop-signal	424	1236962	0.0-19.17-1.17	beast_fmri_test	317	1234545,/,1235225,/,1235906,/,1236585,/,1237265,/,1237944,/	t,t,t,t,t,t	<img class = center src='/static/experiments/beast_fmri_test/images/T.png'></img>	89,71	2750.0	test	<img class = center src='/static/experiments/beast_fmri_test/images/redT.png'></img>	stop	1650.0	1.0	17.0	stop	target	T	89,Middle Finger	71,Index Finger	1100.0	1100.0	1650.0	1700.0	0.0	0.0	1100.0	n/a	stop_stim
84449.496333683608	1568.50366632	n/a	977	71	2750	1568.50366632	stim	stop-signal	424	1236962	0.0-19.17-1.17	beast_fmri_test	317	1234545,/,1235225,/,1235906,/,1236585,/,1237265,/,1237944,/	t,t,t,t,t,t	<img class = center src='/static/experiments/beast_fmri_test/images/T.png'></img>	89,71	2750.0	test	<img class = center src='/static/experiments/beast_fmri_test/images/redT.png'></img>	stop	1650.0	1.0	17.0	stop	target	T	89,Middle Finger	71,Index Finger	1100.0	1100.0	1650.0	1700.0	0.0	0.0	1100.0	n/a	ITI
88127	500.0	n/a	-1	-1	500	0.0	fixation	poldrack-single-stim	425	1239071	0.0-19.18-0.18	beast_fmri_test	317	1238624,/	t	<div class = centerbox2><div class = fixation>+</div></div>	none	500.0	test	n/a	n/a	n/a	n/a	n/a	n/a	n/a	n/a	n/a	n/a	n/a	n/a	n/a	n/a	n/a	n/a	n/a	n/a	fixation
86225.959814577363	2750.0	n/a	2046	71	2750	1903.04018542	stim	stop-signal	426	1241823	0.0-19.18-1.18	beast_fmri_test	317	1239304,/,1239984,/,1240662,/,1241343,/,1242021,/,1242702,/,1243382,/	t,t,t,t,t,t,t	<img class = center src='/static/experiments/beast_fmri_test/images/V.png'></img>	89,71	2750.0	test	<img class = center src='/static/experiments/beast_fmri_test/images/redV.png'></img>	go	1650.0	1.0	18.0	go	non-target	V	89,Middle Finger	71,Index Finger	1050.0	1100.0	1650.0	1650.0	1.0	n/a	1100.0	1.0	go_stim
88975.959814577363	1903.04018542	n/a	2046	71	2750	1903.04018542	stim	stop-signal	426	1241823	0.0-19.18-1.18	beast_fmri_test	317	1239304,/,1239984,/,1240662,/,1241343,/,1242021,/,1242702,/,1243382,/	t,t,t,t,t,t,t	<img class = center src='/static/experiments/beast_fmri_test/images/V.png'></img>	89,71	2750.0	test	<img class = center src='/static/experiments/beast_fmri_test/images/redV.png'></img>	go	1650.0	1.0	18.0	go	non-target	V	89,Middle Finger	71,Index Finger	1050.0	1100.0	1650.0	1650.0	1.0	n/a	1100.0	1.0	ITI
93321	500.0	n/a	-1	-1	500	0.0	fixation	poldrack-single-stim	427	1244265	0.0-19.19-0.19	beast_fmri_test	317	1244060,/	t	<div class = centerbox2><div class = fixation>+</div></div>	none	500.0	test	n/a	n/a	n/a	n/a	n/a	n/a	n/a	n/a	n/a	n/a	n/a	n/a	n/a	n/a	n/a	n/a	n/a	n/a	fixation
93259.483846639516	2750.0	n/a	1418	71	2750	62.5161533606	stim	stop-signal	428	1247016	0.0-19.19-1.19	beast_fmri_test	317	1244740,/,1245421,/,1246099,/,1246781,/	t,t,t,t	<img class = center src='/static/experiments/beast_fmri_test/images/T.png'></img>	89,71	2750.0	test	<img class = center src='/static/experiments/beast_fmri_test/images/redT.png'></img>	go	1650.0	1.0	19.0	go	non-target	T	89,Middle Finger	71,Index Finger	1050.0	1100.0	1650.0	1650.0	1.0	n/a	1100.0	1.0	go_stim
96009.483846639516	62.5161533606	n/a	1418	71	2750	62.5161533606	stim	stop-signal	428	1247016	0.0-19.19-1.19	beast_fmri_test	317	1244740,/,1245421,/,1246099,/,1246781,/	t,t,t,t	<img class = center src='/static/experiments/beast_fmri_test/images/T.png'></img>	89,71	2750.0	test	<img class = center src='/static/experiments/beast_fmri_test/images/redT.png'></img>	go	1650.0	1.0	19.0	go	non-target	T	89,Middle Finger	71,Index Finger	1050.0	1100.0	1650.0	1650.0	1.0	n/a	1100.0	1.0	ITI
96673	500.0	n/a	-1	-1	500	0.0	fixation	poldrack-single-stim	429	1247617	0.0-19.20-0.20	beast_fmri_test	317	1247460,/	t	<div class = centerbox2><div class = fixation>+</div></div>	none	500.0	test	n/a	n/a	n/a	n/a	n/a	n/a	n/a	n/a	n/a	n/a	n/a	n/a	n/a	n/a	n/a	n/a	n/a	n/a	fixation
94982.053725356003	1100.0	n/a	1257	71	2750	1692.94627464	stim	stop-signal	430	1250369	0.0-19.20-1.20	beast_fmri_test	317	1248139,/,1248818,/,1249497,/,1250177,/,1250857,/,1251538,/	t,t,t,t,t,t	<img class = center src='/static/experiments/beast_fmri_test/images/B.png'></img>	89,71	2750.0	test	<img class = center src='/static/experiments/beast_fmri_test/images/redB.png'></img>	stop	1650.0	1.0	20.0	stop	non-target	B	89,Middle Finger	71,Index Finger	1050.0	1100.0	1650.0	1650.0	0.0	0.0	1100.0	n/a	go_stim
96632.053725356003	1650.0	n/a	1257	71	2750	1692.94627464	stim	stop-signal	430	1250369	0.0-19.20-1.20	beast_fmri_test	317	1248139,/,1248818,/,1249497,/,1250177,/,1250857,/,1251538,/	t,t,t,t,t,t	<img class = center src='/static/experiments/beast_fmri_test/images/B.png'></img>	89,71	2750.0	test	<img class = center src='/static/experiments/beast_fmri_test/images/redB.png'></img>	stop	1650.0	1.0	20.0	stop	non-target	B	89,Middle Finger	71,Index Finger	1050.0	1100.0	1650.0	1650.0	0.0	0.0	1100.0	n/a	stop_stim
97732.053725356003	1692.94627464	n/a	1257	71	2750	1692.94627464	stim	stop-signal	430	1250369	0.0-19.20-1.20	beast_fmri_test	317	1248139,/,1248818,/,1249497,/,1250177,/,1250857,/,1251538,/	t,t,t,t,t,t	<img class = center src='/static/experiments/beast_fmri_test/images/B.png'></img>	89,71	2750.0	test	<img class = center src='/static/experiments/beast_fmri_test/images/redB.png'></img>	stop	1650.0	1.0	20.0	stop	non-target	B	89,Middle Finger	71,Index Finger	1050.0	1100.0	1650.0	1650.0	0.0	0.0	1100.0	n/a	ITI
101663	500.0	n/a	-1	-1	500	0.0	fixation	poldrack-single-stim	431	1252607	0.0-19.21-0.21	beast_fmri_test	317	1252217,/	t	<div class = centerbox2><div class = fixation>+</div></div>	none	500.0	test	n/a	n/a	n/a	n/a	n/a	n/a	n/a	n/a	n/a	n/a	n/a	n/a	n/a	n/a	n/a	n/a	n/a	n/a	fixation
98492.157306610839	2750.0	n/a	1699	71	2750	3171.84269339	stim	stop-signal	432	1255358	0.0-19.21-1.21	beast_fmri_test	317	1252896,/,1253576,/,1254256,/,1254935,/,1255616,/,1256294,/,1256974,/,1257655,/,1258335,/	t,t,t,t,t,t,t,t,t	<img class = center src='/static/experiments/beast_fmri_test/images/D.png'></img>	89,71	2750.0	test	<img class = center src='/static/experiments/beast_fmri_test/images/redD.png'></img>	go	1700.0	1.0	21.0	go	non-target	D	89,Middle Finger	71,Index Finger	1050.0	1050.0	1650.0	1700.0	1.0	n/a	1050.0	1.0	go_stim
101242.15730661084	3171.84269339	n/a	1699	71	2750	3171.84269339	stim	stop-signal	432	1255358	0.0-19.21-1.21	beast_fmri_test	317	1252896,/,1253576,/,1254256,/,1254935,/,1255616,/,1256294,/,1256974,/,1257655,/,1258335,/	t,t,t,t,t,t,t,t,t	<img class = center src='/static/experiments/beast_fmri_test/images/D.png'></img>	89,71	2750.0	test	<img class = center src='/static/experiments/beast_fmri_test/images/redD.png'></img>	go	1700.0	1.0	21.0	go	non-target	D	89,Middle Finger	71,Index Finger	1050.0	1050.0	1650.0	1700.0	1.0	n/a	1050.0	1.0	ITI
108127	500.0	n/a	-1	-1	500	0.0	fixation	poldrack-single-stim	433	1259071	0.0-19.22-0.22	beast_fmri_test	317	1259014,/	t	<div class = centerbox2><div class = fixation>+</div></div>	none	500.0	test	n/a	n/a	n/a	n/a	n/a	n/a	n/a	n/a	n/a	n/a	n/a	n/a	n/a	n/a	n/a	n/a	n/a	n/a	fixation
107897.39216874959	1050.0	n/a	935	89	2750	229.60783125	stim	stop-signal	434	1261821	0.0-19.22-1.22	beast_fmri_test	317	1259693,/,1260372,/,1261054,/,1261733,/	t,t,t,t	<img class = center src='/static/experiments/beast_fmri_test/images/D.png'></img>	89,71	2750.0	test	<img class = center src='/static/experiments/beast_fmri_test/images/redD.png'></img>	stop	1700.0	1.0	22.0	stop	target	D	89,Middle Finger	71,Index Finger	1050.0	1050.0	1700.0	1700.0	0.0	0.0	1050.0	n/a	go_stim
109597.39216874959	1700.0	n/a	935	89	2750	229.60783125	stim	stop-signal	434	1261821	0.0-19.22-1.22	beast_fmri_test	317	1259693,/,1260372,/,1261054,/,1261733,/	t,t,t,t	<img class = center src='/static/experiments/beast_fmri_test/images/D.png'></img>	89,71	2750.0	test	<img class = center src='/static/experiments/beast_fmri_test/images/redD.png'></img>	stop	1700.0	1.0	22.0	stop	target	D	89,Middle Finger	71,Index Finger	1050.0	1050.0	1700.0	1700.0	0.0	0.0	1050.0	n/a	stop_stim
110647.39216874959	229.60783125	n/a	935	89	2750	229.60783125	stim	stop-signal	434	1261821	0.0-19.22-1.22	beast_fmri_test	317	1259693,/,1260372,/,1261054,/,1261733,/	t,t,t,t	<img class = center src='/static/experiments/beast_fmri_test/images/D.png'></img>	89,71	2750.0	test	<img class = center src='/static/experiments/beast_fmri_test/images/redD.png'></img>	stop	1700.0	1.0	22.0	stop	target	D	89,Middle Finger	71,Index Finger	1050.0	1050.0	1700.0	1700.0	0.0	0.0	1050.0	n/a	ITI
111651	500.0	n/a	-1	-1	500	0.0	fixation	poldrack-single-stim	435	1262595	0.0-19.23-0.23	beast_fmri_test	317	1262413,/	t	<div class = centerbox2><div class = fixation>+</div></div>	none	500.0	test	n/a	n/a	n/a	n/a	n/a	n/a	n/a	n/a	n/a	n/a	n/a	n/a	n/a	n/a	n/a	n/a	n/a	n/a	fixation
110832.41603277135	2750.0	n/a	1930	71	2750	819.583967229	stim	stop-signal	436	1265346	0.0-19.23-1.23	beast_fmri_test	317	1263092,/,1263771,/,1264453,/,1265131,/,1265812,/	t,t,t,t,t	<img class = center src='/static/experiments/beast_fmri_test/images/P.png'></img>	89,71	2750.0	test	<img class = center src='/static/experiments/beast_fmri_test/images/redP.png'></img>	go	1700.0	1.0	23.0	go	non-target	P	89,Middle Finger	71,Index Finger	1000.0	1050.0	1700.0	1700.0	1.0	n/a	1050.0	1.0	go_stim
113582.41603277135	819.583967229	n/a	1930	71	2750	819.583967229	stim	stop-signal	436	1265346	0.0-19.23-1.23	beast_fmri_test	317	1263092,/,1263771,/,1264453,/,1265131,/,1265812,/	t,t,t,t,t	<img class = center src='/static/experiments/beast_fmri_test/images/P.png'></img>	89,71	2750.0	test	<img class = center src='/static/experiments/beast_fmri_test/images/redP.png'></img>	go	1700.0	1.0	23.0	go	non-target	P	89,Middle Finger	71,Index Finger	1000.0	1050.0	1700.0	1700.0	1.0	n/a	1050.0	1.0	ITI
115763	500.0	n/a	-1	-1	500	0.0	fixation	poldrack-single-stim	437	1266707	0.0-19.24-0.24	beast_fmri_test	317	1266491,/	t	<div class = centerbox2><div class = fixation>+</div></div>	none	500.0	test	n/a	n/a	n/a	n/a	n/a	n/a	n/a	n/a	n/a	n/a	n/a	n/a	n/a	n/a	n/a	n/a	n/a	n/a	fixation
115391.55697526969	2750.0	n/a	1594	71	2750	373.44302473	stim	stop-signal	438	1269459	0.0-19.24-1.24	beast_fmri_test	317	1267171,/,1267850,/,1268529,/,1269209,/	t,t,t,t	<img class = center src='/static/experiments/beast_fmri_test/images/B.png'></img>	89,71	2750.0	test	<img class = center src='/static/experiments/beast_fmri_test/images/redB.png'></img>	go	1700.0	1.0	24.0	go	non-target	B	89,Middle Finger	71,Index Finger	1000.0	1050.0	1700.0	1700.0	1.0	n/a	1050.0	1.0	go_stim
118141.55697526969	373.44302473	n/a	1594	71	2750	373.44302473	stim	stop-signal	438	1269459	0.0-19.24-1.24	beast_fmri_test	317	1267171,/,1267850,/,1268529,/,1269209,/	t,t,t,t	<img class = center src='/static/experiments/beast_fmri_test/images/B.png'></img>	89,71	2750.0	test	<img class = center src='/static/experiments/beast_fmri_test/images/redB.png'></img>	go	1700.0	1.0	24.0	go	non-target	B	89,Middle Finger	71,Index Finger	1000.0	1050.0	1700.0	1700.0	1.0	n/a	1050.0	1.0	ITI
119434	500.0	n/a	-1	-1	500	0.0	fixation	poldrack-single-stim	439	1270378	0.0-19.25-0.25	beast_fmri_test	317	1269889,/	t	<div class = centerbox2><div class = fixation>+</div></div>	none	500.0	test	n/a	n/a	n/a	n/a	n/a	n/a	n/a	n/a	n/a	n/a	n/a	n/a	n/a	n/a	n/a	n/a	n/a	n/a	fixation
117606.29770216765	2750.0	n/a	1598	89	2750	1828.70229783	stim	stop-signal	440	1273129	0.0-19.25-1.25	beast_fmri_test	317	1270569,/,1271249,/,1271928,/,1272608,/,1273287,/,1273966,/,1274646,/	t,t,t,t,t,t,t	<img class = center src='/static/experiments/beast_fmri_test/images/B.png'></img>	89,71	2750.0	test	<img class = center src='/static/experiments/beast_fmri_test/images/redB.png'></img>	go	1750.0	1.0	25.0	go	target	B	89,Middle Finger	71,Index Finger	1000.0	1050.0	1750.0	1700.0	1.0	n/a	1000.0	1.0	go_stim
120356.29770216765	1828.70229783	n/a	1598	89	2750	1828.70229783	stim	stop-signal	440	1273129	0.0-19.25-1.25	beast_fmri_test	317	1270569,/,1271249,/,1271928,/,1272608,/,1273287,/,1273966,/,1274646,/	t,t,t,t,t,t,t	<img class = center src='/static/experiments/beast_fmri_test/images/B.png'></img>	89,71	2750.0	test	<img class = center src='/static/experiments/beast_fmri_test/images/redB.png'></img>	go	1750.0	1.0	25.0	go	target	B	89,Middle Finger	71,Index Finger	1000.0	1050.0	1750.0	1700.0	1.0	n/a	1000.0	1.0	ITI
124553	500.0	n/a	-1	-1	500	0.0	fixation	poldrack-single-stim	441	1275497	0.0-19.26-0.26	beast_fmri_test	317	1275328,/	t	<div class = centerbox2><div class = fixation>+</div></div>	none	500.0	test	n/a	n/a	n/a	n/a	n/a	n/a	n/a	n/a	n/a	n/a	n/a	n/a	n/a	n/a	n/a	n/a	n/a	n/a	fixation
121741.36809811858	2750.0	n/a	1572	89	2750	2812.63190188	stim	stop-signal	442	1278248	0.0-19.26-1.26	beast_fmri_test	317	1276006,/,1276686,/,1277365,/,1278046,/,1278724,/,1279406,/,1280084,/,1280764,/	t,t,t,t,t,t,t,t	<img class = center src='/static/experiments/beast_fmri_test/images/B.png'></img>	89,71	2750.0	test	<img class = center src='/static/experiments/beast_fmri_test/images/redB.png'></img>	go	1750.0	1.0	26.0	go	target	B	89,Middle Finger	71,Index Finger	1000.0	1050.0	1750.0	1700.0	1.0	n/a	1000.0	1.0	go_stim
124491.36809811858	2812.63190188	n/a	1572	89	2750	2812.63190188	stim	stop-signal	442	1278248	0.0-19.26-1.26	beast_fmri_test	317	1276006,/,1276686,/,1277365,/,1278046,/,1278724,/,1279406,/,1280084,/,1280764,/	t,t,t,t,t,t,t,t	<img class = center src='/static/experiments/beast_fmri_test/images/B.png'></img>	89,71	2750.0	test	<img class = center src='/static/experiments/beast_fmri_test/images/redB.png'></img>	go	1750.0	1.0	26.0	go	target	B	89,Middle Finger	71,Index Finger	1000.0	1050.0	1750.0	1700.0	1.0	n/a	1000.0	1.0	ITI
130659	500.0	n/a	-1	-1	500	0.0	fixation	poldrack-single-stim	443	1281603	0.0-19.27-0.27	beast_fmri_test	317	1281444,/	t	<div class = centerbox2><div class = fixation>+</div></div>	none	500.0	test	n/a	n/a	n/a	n/a	n/a	n/a	n/a	n/a	n/a	n/a	n/a	n/a	n/a	n/a	n/a	n/a	n/a	n/a	fixation
128543.54465637752	1050.0	n/a	1195	71	2750	2116.45534362	stim	stop-signal	444	1284354	0.0-19.27-1.27	beast_fmri_test	317	1282124,/,1282802,/,1283482,/,1284162,/,1284841,/,1285522,/,1286202,/	t,t,t,t,t,t,t	<img class = center src='/static/experiments/beast_fmri_test/images/V.png'></img>	89,71	2750.0	test	<img class = center src='/static/experiments/beast_fmri_test/images/redV.png'></img>	stop	1700.0	1.0	27.0	stop	non-target	V	89,Middle Finger	71,Index Finger	1000.0	1050.0	1750.0	1700.0	0.0	0.0	1050.0	n/a	go_stim
130243.54465637752	1700.0	n/a	1195	71	2750	2116.45534362	stim	stop-signal	444	1284354	0.0-19.27-1.27	beast_fmri_test	317	1282124,/,1282802,/,1283482,/,1284162,/,1284841,/,1285522,/,1286202,/	t,t,t,t,t,t,t	<img class = center src='/static/experiments/beast_fmri_test/images/V.png'></img>	89,71	2750.0	test	<img class = center src='/static/experiments/beast_fmri_test/images/redV.png'></img>	stop	1700.0	1.0	27.0	stop	non-target	V	89,Middle Finger	71,Index Finger	1000.0	1050.0	1750.0	1700.0	0.0	0.0	1050.0	n/a	stop_stim
131293.54465637752	2116.45534362	n/a	1195	71	2750	2116.45534362	stim	stop-signal	444	1284354	0.0-19.27-1.27	beast_fmri_test	317	1282124,/,1282802,/,1283482,/,1284162,/,1284841,/,1285522,/,1286202,/	t,t,t,t,t,t,t	<img class = center src='/static/experiments/beast_fmri_test/images/V.png'></img>	89,71	2750.0	test	<img class = center src='/static/experiments/beast_fmri_test/images/redV.png'></img>	stop	1700.0	1.0	27.0	stop	non-target	V	89,Middle Finger	71,Index Finger	1000.0	1050.0	1750.0	1700.0	0.0	0.0	1050.0	n/a	ITI
136069	500.0	n/a	-1	-1	500	0.0	fixation	poldrack-single-stim	445	1287013	0.0-19.28-0.28	beast_fmri_test	317	1286881,/	t	<div class = centerbox2><div class = fixation>+</div></div>	none	500.0	test	n/a	n/a	n/a	n/a	n/a	n/a	n/a	n/a	n/a	n/a	n/a	n/a	n/a	n/a	n/a	n/a	n/a	n/a	fixation
135725.20384828188	2750.0	n/a	1660	71	2750	344.796151718	stim	stop-signal	446	1289764	0.0-19.28-1.28	beast_fmri_test	317	1287560,/,1288240,/,1288920,/,1289599,/	t,t,t,t	<img class = center src='/static/experiments/beast_fmri_test/images/P.png'></img>	89,71	2750.0	test	<img class = center src='/static/experiments/beast_fmri_test/images/redP.png'></img>	go	1750.0	1.0	28.0	go	non-target	P	89,Middle Finger	71,Index Finger	1000.0	1000.0	1750.0	1750.0	1.0	n/a	1000.0	1.0	go_stim
138475.20384828188	344.796151718	n/a	1660	71	2750	344.796151718	stim	stop-signal	446	1289764	0.0-19.28-1.28	beast_fmri_test	317	1287560,/,1288240,/,1288920,/,1289599,/	t,t,t,t	<img class = center src='/static/experiments/beast_fmri_test/images/P.png'></img>	89,71	2750.0	test	<img class = center src='/static/experiments/beast_fmri_test/images/redP.png'></img>	go	1750.0	1.0	28.0	go	non-target	P	89,Middle Finger	71,Index Finger	1000.0	1000.0	1750.0	1750.0	1.0	n/a	1000.0	1.0	ITI
139712	500.0	n/a	-1	-1	500	0.0	fixation	poldrack-single-stim	447	1290656	0.0-19.29-0.29	beast_fmri_test	317	1290279,/	t	<div class = centerbox2><div class = fixation>+</div></div>	none	500.0	test	n/a	n/a	n/a	n/a	n/a	n/a	n/a	n/a	n/a	n/a	n/a	n/a	n/a	n/a	n/a	n/a	n/a	n/a	fixation
138175.29163010954	2750.0	n/a	1529	71	2750	1537.70836989	stim	stop-signal	448	1293407	0.0-19.29-1.29	beast_fmri_test	317	1290959,/,1291638,/,1292319,/,1292998,/,1293680,/,1294359,/	t,t,t,t,t,t	<img class = center src='/static/experiments/beast_fmri_test/images/V.png'></img>	89,71	2750.0	test	<img class = center src='/static/experiments/beast_fmri_test/images/redV.png'></img>	go	1750.0	1.0	29.0	go	non-target	V	89,Middle Finger	71,Index Finger	1000.0	1000.0	1750.0	1750.0	1.0	n/a	1000.0	1.0	go_stim
140925.29163010954	1537.70836989	n/a	1529	71	2750	1537.70836989	stim	stop-signal	448	1293407	0.0-19.29-1.29	beast_fmri_test	317	1290959,/,1291638,/,1292319,/,1292998,/,1293680,/,1294359,/	t,t,t,t,t,t	<img class = center src='/static/experiments/beast_fmri_test/images/V.png'></img>	89,71	2750.0	test	<img class = center src='/static/experiments/beast_fmri_test/images/redV.png'></img>	go	1750.0	1.0	29.0	go	non-target	V	89,Middle Finger	71,Index Finger	1000.0	1000.0	1750.0	1750.0	1.0	n/a	1000.0	1.0	ITI
144547	500.0	n/a	-1	-1	500	0.0	fixation	poldrack-single-stim	449	1295491	0.0-19.30-0.30	beast_fmri_test	317	1295037,/	t	<div class = centerbox2><div class = fixation>+</div></div>	none	500.0	test	n/a	n/a	n/a	n/a	n/a	n/a	n/a	n/a	n/a	n/a	n/a	n/a	n/a	n/a	n/a	n/a	n/a	n/a	fixation
142798.30904171872	2750.0	n/a	1418	89	2750	1749.69095828	stim	stop-signal	450	1298242	0.0-19.30-1.30	beast_fmri_test	317	1295718,/,1296397,/,1297076,/,1297756,/,1298435,/,1299116,/,1299795,/	t,t,t,t,t,t,t	<img class = center src='/static/experiments/beast_fmri_test/images/V.png'></img>	89,71	2750.0	test	<img class = center src='/static/experiments/beast_fmri_test/images/redV.png'></img>	go	1750.0	1.0	30.0	go	target	V	89,Middle Finger	71,Index Finger	1000.0	1000.0	1750.0	1750.0	1.0	n/a	1000.0	1.0	go_stim
145548.30904171872	1749.69095828	n/a	1418	89	2750	1749.69095828	stim	stop-signal	450	1298242	0.0-19.30-1.30	beast_fmri_test	317	1295718,/,1296397,/,1297076,/,1297756,/,1298435,/,1299116,/,1299795,/	t,t,t,t,t,t,t	<img class = center src='/static/experiments/beast_fmri_test/images/V.png'></img>	89,71	2750.0	test	<img class = center src='/static/experiments/beast_fmri_test/images/redV.png'></img>	go	1750.0	1.0	30.0	go	target	V	89,Middle Finger	71,Index Finger	1000.0	1000.0	1750.0	1750.0	1.0	n/a	1000.0	1.0	ITI
149592	500.0	n/a	-1	-1	500	0.0	fixation	poldrack-single-stim	451	1300536	0.0-19.31-0.31	beast_fmri_test	317	1300476,/	t	<div class = centerbox2><div class = fixation>+</div></div>	none	500.0	test	n/a	n/a	n/a	n/a	n/a	n/a	n/a	n/a	n/a	n/a	n/a	n/a	n/a	n/a	n/a	n/a	n/a	n/a	fixation
149495.28212247742	1000.0	n/a	-1	-1	2750	99.7178775226	stim	stop-signal	452	1303289	0.0-19.31-1.31	beast_fmri_test	317	1301156,/,1301834,/,1302514,/,1303193,/	t,t,t,t	<img class = center src='/static/experiments/beast_fmri_test/images/V.png'></img>	89,71	2750.0	test	<img class = center src='/static/experiments/beast_fmri_test/images/redV.png'></img>	stop	1750.0	1.0	31.0	stop	target	V	89,Middle Finger	71,Index Finger	1000.0	1000.0	1750.0	1750.0	0.0	1.0	1000.0	n/a	go_stim
151245.28212247742	1750.0	n/a	-1	-1	2750	99.7178775226	stim	stop-signal	452	1303289	0.0-19.31-1.31	beast_fmri_test	317	1301156,/,1301834,/,1302514,/,1303193,/	t,t,t,t	<img class = center src='/static/experiments/beast_fmri_test/images/V.png'></img>	89,71	2750.0	test	<img class = center src='/static/experiments/beast_fmri_test/images/redV.png'></img>	stop	1750.0	1.0	31.0	stop	target	V	89,Middle Finger	71,Index Finger	1000.0	1000.0	1750.0	1750.0	0.0	1.0	1000.0	n/a	stop_stim
152245.28212247742	99.7178775226	n/a	-1	-1	2750	99.7178775226	stim	stop-signal	452	1303289	0.0-19.31-1.31	beast_fmri_test	317	1301156,/,1301834,/,1302514,/,1303193,/	t,t,t,t	<img class = center src='/static/experiments/beast_fmri_test/images/V.png'></img>	89,71	2750.0	test	<img class = center src='/static/experiments/beast_fmri_test/images/redV.png'></img>	stop	1750.0	1.0	31.0	stop	target	V	89,Middle Finger	71,Index Finger	1000.0	1000.0	1750.0	1750.0	0.0	1.0	1000.0	n/a	ITI
152991	500.0	n/a	-1	-1	500	0.0	fixation	poldrack-single-stim	453	1303935	0.0-19.32-0.32	beast_fmri_test	317	1303874,/	t	<div class = centerbox2><div class = fixation>+</div></div>	none	500.0	test	n/a	n/a	n/a	n/a	n/a	n/a	n/a	n/a	n/a	n/a	n/a	n/a	n/a	n/a	n/a	n/a	n/a	n/a	fixation
152801.45340040722	2750.0	n/a	1514	89	2750	190.546599593	stim	stop-signal	454	1306686	0.0-19.32-1.32	beast_fmri_test	317	1304553,/,1305233,/,1305912,/,1306592,/	t,t,t,t	<img class = center src='/static/experiments/beast_fmri_test/images/V.png'></img>	89,71	2750.0	test	<img class = center src='/static/experiments/beast_fmri_test/images/redV.png'></img>	go	1700.0	1.0	32.0	go	target	V	89,Middle Finger	71,Index Finger	1050.0	1000.0	1700.0	1750.0	1.0	n/a	1050.0	1.0	go_stim
155551.45340040722	190.546599593	n/a	1514	89	2750	190.546599593	stim	stop-signal	454	1306686	0.0-19.32-1.32	beast_fmri_test	317	1304553,/,1305233,/,1305912,/,1306592,/	t,t,t,t	<img class = center src='/static/experiments/beast_fmri_test/images/V.png'></img>	89,71	2750.0	test	<img class = center src='/static/experiments/beast_fmri_test/images/redV.png'></img>	go	1700.0	1.0	32.0	go	target	V	89,Middle Finger	71,Index Finger	1050.0	1000.0	1700.0	1750.0	1.0	n/a	1050.0	1.0	ITI
156476	500.0	n/a	-1	-1	500	0.0	fixation	poldrack-single-stim	455	1307420	0.0-19.33-0.33	beast_fmri_test	317	1307271,/	t	<div class = centerbox2><div class = fixation>+</div></div>	none	500.0	test	n/a	n/a	n/a	n/a	n/a	n/a	n/a	n/a	n/a	n/a	n/a	n/a	n/a	n/a	n/a	n/a	n/a	n/a	fixation
156377.55284295511	1050.0	n/a	-1	-1	2750	99.4471570448	stim	stop-signal	456	1310171	0.0-19.33-1.33	beast_fmri_test	317	1307951,/,1308631,/,1309311,/,1309991,/	t,t,t,t	<img class = center src='/static/experiments/beast_fmri_test/images/V.png'></img>	89,71	2750.0	test	<img class = center src='/static/experiments/beast_fmri_test/images/redV.png'></img>	stop	1700.0	1.0	33.0	stop	target	V	89,Middle Finger	71,Index Finger	1050.0	1000.0	1700.0	1750.0	0.0	1.0	1050.0	n/a	go_stim
158077.55284295511	1700.0	n/a	-1	-1	2750	99.4471570448	stim	stop-signal	456	1310171	0.0-19.33-1.33	beast_fmri_test	317	1307951,/,1308631,/,1309311,/,1309991,/	t,t,t,t	<img class = center src='/static/experiments/beast_fmri_test/images/V.png'></img>	89,71	2750.0	test	<img class = center src='/static/experiments/beast_fmri_test/images/redV.png'></img>	stop	1700.0	1.0	33.0	stop	target	V	89,Middle Finger	71,Index Finger	1050.0	1000.0	1700.0	1750.0	0.0	1.0	1050.0	n/a	stop_stim
159127.55284295511	99.4471570448	n/a	-1	-1	2750	99.4471570448	stim	stop-signal	456	1310171	0.0-19.33-1.33	beast_fmri_test	317	1307951,/,1308631,/,1309311,/,1309991,/	t,t,t,t	<img class = center src='/static/experiments/beast_fmri_test/images/V.png'></img>	89,71	2750.0	test	<img class = center src='/static/experiments/beast_fmri_test/images/redV.png'></img>	stop	1700.0	1.0	33.0	stop	target	V	89,Middle Finger	71,Index Finger	1050.0	1000.0	1700.0	1750.0	0.0	1.0	1050.0	n/a	ITI
159879	500.0	n/a	-1	-1	500	0.0	fixation	poldrack-single-stim	457	1310823	0.0-19.34-0.34	beast_fmri_test	317	1310670,/	t	<div class = centerbox2><div class = fixation>+</div></div>	none	500.0	test	n/a	n/a	n/a	n/a	n/a	n/a	n/a	n/a	n/a	n/a	n/a	n/a	n/a	n/a	n/a	n/a	n/a	n/a	fixation
159803.18766281987	2750.0	n/a	1202	71	2750	78.8123371802	stim	stop-signal	458	1313576	0.0-19.34-1.34	beast_fmri_test	317	1311350,/,1312028,/,1312710,/,1313389,/	t,t,t,t	<img class = center src='/static/experiments/beast_fmri_test/images/B.png'></img>	89,71	2750.0	test	<img class = center src='/static/experiments/beast_fmri_test/images/redB.png'></img>	go	1750.0	1.0	34.0	go	non-target	B	89,Middle Finger	71,Index Finger	1100.0	1000.0	1700.0	1750.0	1.0	n/a	1000.0	1.0	go_stim
162553.18766281987	78.8123371802	n/a	1202	71	2750	78.8123371802	stim	stop-signal	458	1313576	0.0-19.34-1.34	beast_fmri_test	317	1311350,/,1312028,/,1312710,/,1313389,/	t,t,t,t	<img class = center src='/static/experiments/beast_fmri_test/images/B.png'></img>	89,71	2750.0	test	<img class = center src='/static/experiments/beast_fmri_test/images/redB.png'></img>	go	1750.0	1.0	34.0	go	non-target	B	89,Middle Finger	71,Index Finger	1100.0	1000.0	1700.0	1750.0	1.0	n/a	1000.0	1.0	ITI
163257	500.0	n/a	-1	-1	500	0.0	fixation	poldrack-single-stim	459	1314201	0.0-19.35-0.35	beast_fmri_test	317	1314068,/	t	<div class = centerbox2><div class = fixation>+</div></div>	none	500.0	test	n/a	n/a	n/a	n/a	n/a	n/a	n/a	n/a	n/a	n/a	n/a	n/a	n/a	n/a	n/a	n/a	n/a	n/a	fixation
162765.68198796245	2750.0	n/a	-1	-1	2750	492.318012037	stim	stop-signal	460	1316952	0.0-19.35-1.35	beast_fmri_test	317	1314748,/,1315428,/,1316107,/,1316786,/	t,t,t,t	<img class = center src='/static/experiments/beast_fmri_test/images/B.png'></img>	89,71	2750.0	test	<img class = center src='/static/experiments/beast_fmri_test/images/redB.png'></img>	go	1650.0	1.0	35.0	go	target	B	89,Middle Finger	71,Index Finger	1100.0	1000.0	1650.0	1750.0	0.0	n/a	1100.0	0.0	go_stim
165515.68198796245	492.318012037	n/a	-1	-1	2750	492.318012037	stim	stop-signal	460	1316952	0.0-19.35-1.35	beast_fmri_test	317	1314748,/,1315428,/,1316107,/,1316786,/	t,t,t,t	<img class = center src='/static/experiments/beast_fmri_test/images/B.png'></img>	89,71	2750.0	test	<img class = center src='/static/experiments/beast_fmri_test/images/redB.png'></img>	go	1650.0	1.0	35.0	go	target	B	89,Middle Finger	71,Index Finger	1100.0	1000.0	1650.0	1750.0	0.0	n/a	1100.0	0.0	ITI
167047	500.0	n/a	-1	-1	500	0.0	fixation	poldrack-single-stim	461	1317991	0.0-19.36-0.36	beast_fmri_test	317	1317489,/	t	<div class = centerbox2><div class = fixation>+</div></div>	none	500.0	test	n/a	n/a	n/a	n/a	n/a	n/a	n/a	n/a	n/a	n/a	n/a	n/a	n/a	n/a	n/a	n/a	n/a	n/a	fixation
165843.13577956031	1100.0	n/a	-1	-1	2750	1205.86422044	stim	stop-signal	462	1320743	0.0-19.36-1.36	beast_fmri_test	317	1318145,/,1318828,/,1319506,/,1320186,/,1320866,/,1321544,/	t,t,t,t,t,t	<img class = center src='/static/experiments/beast_fmri_test/images/B.png'></img>	89,71	2750.0	test	<img class = center src='/static/experiments/beast_fmri_test/images/redB.png'></img>	stop	1650.0	1.0	36.0	stop	target	B	89,Middle Finger	71,Index Finger	1100.0	1000.0	1650.0	1750.0	0.0	1.0	1100.0	n/a	go_stim
167493.13577956031	1650.0	n/a	-1	-1	2750	1205.86422044	stim	stop-signal	462	1320743	0.0-19.36-1.36	beast_fmri_test	317	1318145,/,1318828,/,1319506,/,1320186,/,1320866,/,1321544,/	t,t,t,t,t,t	<img class = center src='/static/experiments/beast_fmri_test/images/B.png'></img>	89,71	2750.0	test	<img class = center src='/static/experiments/beast_fmri_test/images/redB.png'></img>	stop	1650.0	1.0	36.0	stop	target	B	89,Middle Finger	71,Index Finger	1100.0	1000.0	1650.0	1750.0	0.0	1.0	1100.0	n/a	stop_stim
168593.13577956031	1205.86422044	n/a	-1	-1	2750	1205.86422044	stim	stop-signal	462	1320743	0.0-19.36-1.36	beast_fmri_test	317	1318145,/,1318828,/,1319506,/,1320186,/,1320866,/,1321544,/	t,t,t,t,t,t	<img class = center src='/static/experiments/beast_fmri_test/images/B.png'></img>	89,71	2750.0	test	<img class = center src='/static/experiments/beast_fmri_test/images/redB.png'></img>	stop	1650.0	1.0	36.0	stop	target	B	89,Middle Finger	71,Index Finger	1100.0	1000.0	1650.0	1750.0	0.0	1.0	1100.0	n/a	ITI
171551	500.0	n/a	-1	-1	500	0.0	fixation	poldrack-single-stim	463	1322495	0.0-19.37-0.37	beast_fmri_test	317	1322227,/	t	<div class = centerbox2><div class = fixation>+</div></div>	none	500.0	test	n/a	n/a	n/a	n/a	n/a	n/a	n/a	n/a	n/a	n/a	n/a	n/a	n/a	n/a	n/a	n/a	n/a	n/a	fixation
171527.70281782793	1000.0	n/a	-1	-1	2750	25.2971821721	stim	stop-signal	464	1325247	0.0-19.37-1.37	beast_fmri_test	317	1322906,/,1323586,/,1324265,/,1324944,/	t,t,t,t	<img class = center src='/static/experiments/beast_fmri_test/images/P.png'></img>	89,71	2750.0	test	<img class = center src='/static/experiments/beast_fmri_test/images/redP.png'></img>	stop	1750.0	1.0	37.0	stop	non-target	P	89,Middle Finger	71,Index Finger	1150.0	1000.0	1650.0	1750.0	0.0	1.0	1000.0	n/a	go_stim
173277.70281782793	1750.0	n/a	-1	-1	2750	25.2971821721	stim	stop-signal	464	1325247	0.0-19.37-1.37	beast_fmri_test	317	1322906,/,1323586,/,1324265,/,1324944,/	t,t,t,t	<img class = center src='/static/experiments/beast_fmri_test/images/P.png'></img>	89,71	2750.0	test	<img class = center src='/static/experiments/beast_fmri_test/images/redP.png'></img>	stop	1750.0	1.0	37.0	stop	non-target	P	89,Middle Finger	71,Index Finger	1150.0	1000.0	1650.0	1750.0	0.0	1.0	1000.0	n/a	stop_stim
174277.70281782793	25.2971821721	n/a	-1	-1	2750	25.2971821721	stim	stop-signal	464	1325247	0.0-19.37-1.37	beast_fmri_test	317	1322906,/,1323586,/,1324265,/,1324944,/	t,t,t,t	<img class = center src='/static/experiments/beast_fmri_test/images/P.png'></img>	89,71	2750.0	test	<img class = center src='/static/experiments/beast_fmri_test/images/redP.png'></img>	stop	1750.0	1.0	37.0	stop	non-target	P	89,Middle Finger	71,Index Finger	1150.0	1000.0	1650.0	1750.0	0.0	1.0	1000.0	n/a	ITI
174872	500.0	n/a	-1	-1	500	0.0	fixation	poldrack-single-stim	465	1325816	0.0-19.38-0.38	beast_fmri_test	317	1325624,/	t	<div class = centerbox2><div class = fixation>+</div></div>	none	500.0	test	n/a	n/a	n/a	n/a	n/a	n/a	n/a	n/a	n/a	n/a	n/a	n/a	n/a	n/a	n/a	n/a	n/a	n/a	fixation
170443.71252943273	2750.0	n/a	-1	-1	2750	4431.28747057	stim	stop-signal	466	1328569	0.0-19.38-1.38	beast_fmri_test	317	1326303,/,1326984,/,1327663,/,1328343,/,1329023,/,1329701,/,1330381,/,1331061,/,1331740,/,1332422,/	t,t,t,t,t,t,t,t,t,t	<img class = center src='/static/experiments/beast_fmri_test/images/T.png'></img>	89,71	2750.0	test	<img class = center src='/static/experiments/beast_fmri_test/images/redT.png'></img>	go	1700.0	1.0	38.0	go	non-target	T	89,Middle Finger	71,Index Finger	1150.0	1050.0	1650.0	1700.0	0.0	n/a	1050.0	0.0	go_stim
173193.71252943273	4431.28747057	n/a	-1	-1	2750	4431.28747057	stim	stop-signal	466	1328569	0.0-19.38-1.38	beast_fmri_test	317	1326303,/,1326984,/,1327663,/,1328343,/,1329023,/,1329701,/,1330381,/,1331061,/,1331740,/,1332422,/	t,t,t,t,t,t,t,t,t,t	<img class = center src='/static/experiments/beast_fmri_test/images/T.png'></img>	89,71	2750.0	test	<img class = center src='/static/experiments/beast_fmri_test/images/redT.png'></img>	go	1700.0	1.0	38.0	go	non-target	T	89,Middle Finger	71,Index Finger	1150.0	1050.0	1650.0	1700.0	0.0	n/a	1050.0	0.0	ITI
182600	500.0	n/a	-1	-1	500	0.0	fixation	poldrack-single-stim	467	1333544	0.0-19.39-0.39	beast_fmri_test	317	1333100,/	t	<div class = centerbox2><div class = fixation>+</div></div>	none	500.0	test	n/a	n/a	n/a	n/a	n/a	n/a	n/a	n/a	n/a	n/a	n/a	n/a	n/a	n/a	n/a	n/a	n/a	n/a	fixation
182123.78130192822	1050.0	n/a	1164	71	2750	478.218698072	stim	stop-signal	468	1336296	0.0-19.39-1.39	beast_fmri_test	317	1333780,/,1334460,/,1335139,/,1335818,/,1336500,/	t,t,t,t,t	<img class = center src='/static/experiments/beast_fmri_test/images/B.png'></img>	89,71	2750.0	test	<img class = center src='/static/experiments/beast_fmri_test/images/redB.png'></img>	stop	1700.0	1.0	39.0	stop	non-target	B	89,Middle Finger	71,Index Finger	1150.0	1050.0	1650.0	1700.0	0.0	0.0	1050.0	n/a	go_stim
183823.78130192822	1700.0	n/a	1164	71	2750	478.218698072	stim	stop-signal	468	1336296	0.0-19.39-1.39	beast_fmri_test	317	1333780,/,1334460,/,1335139,/,1335818,/,1336500,/	t,t,t,t,t	<img class = center src='/static/experiments/beast_fmri_test/images/B.png'></img>	89,71	2750.0	test	<img class = center src='/static/experiments/beast_fmri_test/images/redB.png'></img>	stop	1700.0	1.0	39.0	stop	non-target	B	89,Middle Finger	71,Index Finger	1150.0	1050.0	1650.0	1700.0	0.0	0.0	1050.0	n/a	stop_stim
184873.78130192822	478.218698072	n/a	1164	71	2750	478.218698072	stim	stop-signal	468	1336296	0.0-19.39-1.39	beast_fmri_test	317	1333780,/,1334460,/,1335139,/,1335818,/,1336500,/	t,t,t,t,t	<img class = center src='/static/experiments/beast_fmri_test/images/B.png'></img>	89,71	2750.0	test	<img class = center src='/static/experiments/beast_fmri_test/images/redB.png'></img>	stop	1700.0	1.0	39.0	stop	non-target	B	89,Middle Finger	71,Index Finger	1150.0	1050.0	1650.0	1700.0	0.0	0.0	1050.0	n/a	ITI
186380	500.0	n/a	-1	-1	500	0.0	fixation	poldrack-single-stim	469	1337324	0.0-19.40-0.40	beast_fmri_test	317	1337180,/	t	<div class = centerbox2><div class = fixation>+</div></div>	none	500.0	test	n/a	n/a	n/a	n/a	n/a	n/a	n/a	n/a	n/a	n/a	n/a	n/a	n/a	n/a	n/a	n/a	n/a	n/a	fixation
185562.38190953503	2750.0	n/a	1803	89	2750	818.618090465	stim	stop-signal	470	1340075	0.0-19.40-1.40	beast_fmri_test	317	1337858,/,1338538,/,1339217,/,1339896,/,1340576,/	t,t,t,t,t	<img class = center src='/static/experiments/beast_fmri_test/images/B.png'></img>	89,71	2750.0	test	<img class = center src='/static/experiments/beast_fmri_test/images/redB.png'></img>	go	1600.0	1.0	40.0	go	target	B	89,Middle Finger	71,Index Finger	1150.0	1000.0	1600.0	1700.0	1.0	n/a	1150.0	1.0	go_stim
188312.38190953503	818.618090465	n/a	1803	89	2750	818.618090465	stim	stop-signal	470	1340075	0.0-19.40-1.40	beast_fmri_test	317	1337858,/,1338538,/,1339217,/,1339896,/,1340576,/	t,t,t,t,t	<img class = center src='/static/experiments/beast_fmri_test/images/B.png'></img>	89,71	2750.0	test	<img class = center src='/static/experiments/beast_fmri_test/images/redB.png'></img>	go	1600.0	1.0	40.0	go	target	B	89,Middle Finger	71,Index Finger	1150.0	1000.0	1600.0	1700.0	1.0	n/a	1150.0	1.0	ITI
190499	500.0	n/a	-1	-1	500	0.0	fixation	poldrack-single-stim	471	1341443	0.0-19.41-0.41	beast_fmri_test	317	1341256,/	t	<div class = centerbox2><div class = fixation>+</div></div>	none	500.0	test	n/a	n/a	n/a	n/a	n/a	n/a	n/a	n/a	n/a	n/a	n/a	n/a	n/a	n/a	n/a	n/a	n/a	n/a	fixation
190073.0689130316	2750.0	n/a	2017	71	2750	427.931086968	stim	stop-signal	472	1344195	0.0-19.41-1.41	beast_fmri_test	317	1341937,/,1342617,/,1343295,/,1343974,/	t,t,t,t	<img class = center src='/static/experiments/beast_fmri_test/images/D.png'></img>	89,71	2750.0	test	<img class = center src='/static/experiments/beast_fmri_test/images/redD.png'></img>	go	1750.0	1.0	41.0	go	non-target	D	89,Middle Finger	71,Index Finger	1150.0	1000.0	1600.0	1750.0	1.0	n/a	1000.0	1.0	go_stim
192823.0689130316	427.931086968	n/a	2017	71	2750	427.931086968	stim	stop-signal	472	1344195	0.0-19.41-1.41	beast_fmri_test	317	1341937,/,1342617,/,1343295,/,1343974,/	t,t,t,t	<img class = center src='/static/experiments/beast_fmri_test/images/D.png'></img>	89,71	2750.0	test	<img class = center src='/static/experiments/beast_fmri_test/images/redD.png'></img>	go	1750.0	1.0	41.0	go	non-target	D	89,Middle Finger	71,Index Finger	1150.0	1000.0	1600.0	1750.0	1.0	n/a	1000.0	1.0	ITI
194226	500.0	n/a	-1	-1	500	0.0	fixation	poldrack-single-stim	473	1345170	0.0-19.42-0.42	beast_fmri_test	317	1344669,/	t	<div class = centerbox2><div class = fixation>+</div></div>	none	500.0	test	n/a	n/a	n/a	n/a	n/a	n/a	n/a	n/a	n/a	n/a	n/a	n/a	n/a	n/a	n/a	n/a	n/a	n/a	fixation
194018.04754199041	2750.0	n/a	1423	71	2750	208.95245801	stim	stop-signal	474	1347921	0.0-19.42-1.42	beast_fmri_test	317	1345334,/,1346015,/,1346693,/,1347375,/,1348052,/	t,t,t,t,t	<img class = center src='/static/experiments/beast_fmri_test/images/P.png'></img>	89,71	2750.0	test	<img class = center src='/static/experiments/beast_fmri_test/images/redP.png'></img>	go	1750.0	1.0	42.0	go	non-target	P	89,Middle Finger	71,Index Finger	1150.0	1000.0	1600.0	1750.0	1.0	n/a	1000.0	1.0	go_stim
196768.04754199041	208.95245801	n/a	1423	71	2750	208.95245801	stim	stop-signal	474	1347921	0.0-19.42-1.42	beast_fmri_test	317	1345334,/,1346015,/,1346693,/,1347375,/,1348052,/	t,t,t,t,t	<img class = center src='/static/experiments/beast_fmri_test/images/P.png'></img>	89,71	2750.0	test	<img class = center src='/static/experiments/beast_fmri_test/images/redP.png'></img>	go	1750.0	1.0	42.0	go	non-target	P	89,Middle Finger	71,Index Finger	1150.0	1000.0	1600.0	1750.0	1.0	n/a	1000.0	1.0	ITI
197738	500.0	n/a	-1	-1	500	0.0	fixation	poldrack-single-stim	475	1348682	0.0-19.43-0.43	beast_fmri_test	317	n/a	n/a	<div class = centerbox2><div class = fixation>+</div></div>	none	500.0	test	n/a	n/a	n/a	n/a	n/a	n/a	n/a	n/a	n/a	n/a	n/a	n/a	n/a	n/a	n/a	n/a	n/a	n/a	fixation
196794.87246163096	2750.0	n/a	2362	89	2750	945.127538369	stim	stop-signal	476	1351434	0.0-19.43-1.43	beast_fmri_test	317	1348732,/,1349413,/,1350091,/,1350774,/,1351451,/,1352133,/	t,t,t,t,t,t	<img class = center src='/static/experiments/beast_fmri_test/images/P.png'></img>	89,71	2750.0	test	<img class = center src='/static/experiments/beast_fmri_test/images/redP.png'></img>	go	1600.0	1.0	43.0	go	target	P	89,Middle Finger	71,Index Finger	1150.0	1000.0	1600.0	1750.0	1.0	n/a	1150.0	1.0	go_stim
199544.87246163096	945.127538369	n/a	2362	89	2750	945.127538369	stim	stop-signal	476	1351434	0.0-19.43-1.43	beast_fmri_test	317	1348732,/,1349413,/,1350091,/,1350774,/,1351451,/,1352133,/	t,t,t,t,t,t	<img class = center src='/static/experiments/beast_fmri_test/images/P.png'></img>	89,71	2750.0	test	<img class = center src='/static/experiments/beast_fmri_test/images/redP.png'></img>	go	1600.0	1.0	43.0	go	target	P	89,Middle Finger	71,Index Finger	1150.0	1000.0	1600.0	1750.0	1.0	n/a	1150.0	1.0	ITI
201987	500.0	n/a	-1	-1	500	0.0	fixation	poldrack-single-stim	477	1352931	0.0-19.44-0.44	beast_fmri_test	317	1352811,/	t	<div class = centerbox2><div class = fixation>+</div></div>	none	500.0	test	n/a	n/a	n/a	n/a	n/a	n/a	n/a	n/a	n/a	n/a	n/a	n/a	n/a	n/a	n/a	n/a	n/a	n/a	fixation
201947.76487928489	2750.0	n/a	1651	71	2750	40.235120715	stim	stop-signal	478	1355682	0.0-19.44-1.44	beast_fmri_test	317	1353491,/,1354171,/,1354850,/,1355531,/	t,t,t,t	<img class = center src='/static/experiments/beast_fmri_test/images/D.png'></img>	89,71	2750.0	test	<img class = center src='/static/experiments/beast_fmri_test/images/redD.png'></img>	go	1750.0	1.0	44.0	go	non-target	D	89,Middle Finger	71,Index Finger	1150.0	1000.0	1600.0	1750.0	1.0	n/a	1000.0	1.0	go_stim
204697.76487928489	40.235120715	n/a	1651	71	2750	40.235120715	stim	stop-signal	478	1355682	0.0-19.44-1.44	beast_fmri_test	317	1353491,/,1354171,/,1354850,/,1355531,/	t,t,t,t	<img class = center src='/static/experiments/beast_fmri_test/images/D.png'></img>	89,71	2750.0	test	<img class = center src='/static/experiments/beast_fmri_test/images/redD.png'></img>	go	1750.0	1.0	44.0	go	non-target	D	89,Middle Finger	71,Index Finger	1150.0	1000.0	1600.0	1750.0	1.0	n/a	1000.0	1.0	ITI
205330	500.0	n/a	-1	-1	500	0.0	fixation	poldrack-single-stim	479	1356274	0.0-19.45-0.45	beast_fmri_test	317	1356210,/	t	<div class = centerbox2><div class = fixation>+</div></div>	none	500.0	test	n/a	n/a	n/a	n/a	n/a	n/a	n/a	n/a	n/a	n/a	n/a	n/a	n/a	n/a	n/a	n/a	n/a	n/a	fixation
205111.93339064624	2750.0	n/a	-1	-1	2750	219.066609354	stim	stop-signal	480	1359025	0.0-19.45-1.45	beast_fmri_test	317	1356890,/,1357569,/,1358248,/,1358930,/	t,t,t,t	<img class = center src='/static/experiments/beast_fmri_test/images/P.png'></img>	89,71	2750.0	test	<img class = center src='/static/experiments/beast_fmri_test/images/redP.png'></img>	go	1750.0	1.0	45.0	go	non-target	P	89,Middle Finger	71,Index Finger	1150.0	1000.0	1600.0	1750.0	0.0	n/a	1000.0	0.0	go_stim
207861.93339064624	219.066609354	n/a	-1	-1	2750	219.066609354	stim	stop-signal	480	1359025	0.0-19.45-1.45	beast_fmri_test	317	1356890,/,1357569,/,1358248,/,1358930,/	t,t,t,t	<img class = center src='/static/experiments/beast_fmri_test/images/P.png'></img>	89,71	2750.0	test	<img class = center src='/static/experiments/beast_fmri_test/images/redP.png'></img>	go	1750.0	1.0	45.0	go	non-target	P	89,Middle Finger	71,Index Finger	1150.0	1000.0	1600.0	1750.0	0.0	n/a	1000.0	0.0	ITI
223342	15000.0	n/a	-1	-1	15000	0.0	practice-no-stop-feedback	poldrack-single-stim	481	1374286	0.0-20.0	beast_fmri_test	317	1359609,/,1360288,/,1360969,/,1361648,/,1362327,/,1363006,/,1363685,/,1364365,/,1365048,/,1365726,/,1366405,/,1367085,/,1367763,/,1368444,/,1369123,/,1369803,/,1370483,/,1371163,/,1371841,/,1372522,/,1373201,/,1373881,/	t,t,t,t,t,t,t,t,t,t,t,t,t,t,t,t,t,t,t,t,t,t	"<div class = ""centerbox""><p class = ""block-text"">Your delay is 1 trials.</p><p class = block-text>Please wait for the scanner to start the block</p></div>"	77	15000.0	n/a	n/a	n/a	n/a	n/a	n/a	n/a	n/a	n/a	n/a	n/a	n/a	n/a	n/a	n/a	n/a	n/a	n/a	n/a	practice-no-stop-feedback
223844	500.0	n/a	-1	-1	500	0.0	fixation	poldrack-single-stim	482	1374788	0.0-21.0-0.0	beast_fmri_test	317	1374561,/	t	<div class = centerbox2><div class = fixation>+</div></div>	none	500.0	test	n/a	n/a	n/a	n/a	n/a	n/a	n/a	n/a	n/a	n/a	n/a	n/a	n/a	n/a	n/a	n/a	n/a	n/a	fixation
223841.12810805789	2750.0	n/a	-1	-1	2750	4.87189194203	stim	stop-signal	483	1377540	0.0-21.0-1.0	beast_fmri_test	317	1375241,/,1375922,/,1376600,/,1377280,/	t,t,t,t	<img class = center src='/static/experiments/beast_fmri_test/images/V.png'></img>	89,71	2750.0	test	<img class = center src='/static/experiments/beast_fmri_test/images/redV.png'></img>	go	-1.0	1.0	0.0	go	temp-non-target	V	89,Middle Finger	71,Index Finger	1150.0	1000.0	1600.0	1750.0	0.0	n/a	n/a	n/a	go_stim
226591.12810805789	4.87189194203	n/a	-1	-1	2750	4.87189194203	stim	stop-signal	483	1377540	0.0-21.0-1.0	beast_fmri_test	317	1375241,/,1375922,/,1376600,/,1377280,/	t,t,t,t	<img class = center src='/static/experiments/beast_fmri_test/images/V.png'></img>	89,71	2750.0	test	<img class = center src='/static/experiments/beast_fmri_test/images/redV.png'></img>	go	-1.0	1.0	0.0	go	temp-non-target	V	89,Middle Finger	71,Index Finger	1150.0	1000.0	1600.0	1750.0	0.0	n/a	n/a	n/a	ITI
227149	500.0	n/a	-1	-1	500	0.0	fixation	poldrack-single-stim	484	1378093	0.0-21.1-0.1	beast_fmri_test	317	1377959,/	t	<div class = centerbox2><div class = fixation>+</div></div>	none	500.0	test	n/a	n/a	n/a	n/a	n/a	n/a	n/a	n/a	n/a	n/a	n/a	n/a	n/a	n/a	n/a	n/a	n/a	n/a	fixation
225061.2804175627	2750.0	n/a	-1	-1	2750	2089.71958244	stim	stop-signal	485	1380845	0.0-21.1-1.1	beast_fmri_test	317	1378640,/,1379320,/,1380001,/,1380681,/,1381359,/,1382038,/,1382717,/	t,t,t,t,t,t,t	<img class = center src='/static/experiments/beast_fmri_test/images/B.png'></img>	89,71	2750.0	test	<img class = center src='/static/experiments/beast_fmri_test/images/redB.png'></img>	go	1750.0	1.0	1.0	go	non-target	B	89,Middle Finger	71,Index Finger	1150.0	1000.0	1600.0	1750.0	0.0	n/a	1000.0	0.0	go_stim
227811.2804175627	2089.71958244	n/a	-1	-1	2750	2089.71958244	stim	stop-signal	485	1380845	0.0-21.1-1.1	beast_fmri_test	317	1378640,/,1379320,/,1380001,/,1380681,/,1381359,/,1382038,/,1382717,/	t,t,t,t,t,t,t	<img class = center src='/static/experiments/beast_fmri_test/images/B.png'></img>	89,71	2750.0	test	<img class = center src='/static/experiments/beast_fmri_test/images/redB.png'></img>	go	1750.0	1.0	1.0	go	non-target	B	89,Middle Finger	71,Index Finger	1150.0	1000.0	1600.0	1750.0	0.0	n/a	1000.0	0.0	ITI
232539	500.0	n/a	-1	-1	500	0.0	fixation	poldrack-single-stim	486	1383483	0.0-21.2-0.2	beast_fmri_test	317	1383398,/	t	<div class = centerbox2><div class = fixation>+</div></div>	none	500.0	test	n/a	n/a	n/a	n/a	n/a	n/a	n/a	n/a	n/a	n/a	n/a	n/a	n/a	n/a	n/a	n/a	n/a	n/a	fixation
232275.51227008156	2750.0	n/a	1592	71	2750	266.487729919	stim	stop-signal	487	1386236	0.0-21.2-1.2	beast_fmri_test	317	1384079,/,1384757,/,1385437,/,1386116,/	t,t,t,t	<img class = center src='/static/experiments/beast_fmri_test/images/B.png'></img>	89,71	2750.0	test	<img class = center src='/static/experiments/beast_fmri_test/images/redB.png'></img>	go	1600.0	1.0	2.0	go	target	B	89,Middle Finger	71,Index Finger	1150.0	1000.0	1600.0	1750.0	0.0	n/a	1150.0	0.0	go_stim
235025.51227008156	266.487729919	n/a	1592	71	2750	266.487729919	stim	stop-signal	487	1386236	0.0-21.2-1.2	beast_fmri_test	317	1384079,/,1384757,/,1385437,/,1386116,/	t,t,t,t	<img class = center src='/static/experiments/beast_fmri_test/images/B.png'></img>	89,71	2750.0	test	<img class = center src='/static/experiments/beast_fmri_test/images/redB.png'></img>	go	1600.0	1.0	2.0	go	target	B	89,Middle Finger	71,Index Finger	1150.0	1000.0	1600.0	1750.0	0.0	n/a	1150.0	0.0	ITI
236108	500.0	n/a	-1	-1	500	0.0	fixation	poldrack-single-stim	488	1387052	0.0-21.3-0.3	beast_fmri_test	317	1386796,/	t	<div class = centerbox2><div class = fixation>+</div></div>	none	500.0	test	n/a	n/a	n/a	n/a	n/a	n/a	n/a	n/a	n/a	n/a	n/a	n/a	n/a	n/a	n/a	n/a	n/a	n/a	fixation
234990.75108151557	1000.0	n/a	-1	-1	2750	1119.24891848	stim	stop-signal	489	1389804	0.0-21.3-1.3	beast_fmri_test	317	1387475,/,1388155,/,1388835,/,1389515,/,1390194,/,1390873,/	t,t,t,t,t,t	<img class = center src='/static/experiments/beast_fmri_test/images/P.png'></img>	89,71	2750.0	test	<img class = center src='/static/experiments/beast_fmri_test/images/redP.png'></img>	stop	1750.0	1.0	3.0	stop	non-target	P	89,Middle Finger	71,Index Finger	1150.0	1000.0	1600.0	1750.0	0.0	1.0	1000.0	n/a	go_stim
236740.75108151557	1750.0	n/a	-1	-1	2750	1119.24891848	stim	stop-signal	489	1389804	0.0-21.3-1.3	beast_fmri_test	317	1387475,/,1388155,/,1388835,/,1389515,/,1390194,/,1390873,/	t,t,t,t,t,t	<img class = center src='/static/experiments/beast_fmri_test/images/P.png'></img>	89,71	2750.0	test	<img class = center src='/static/experiments/beast_fmri_test/images/redP.png'></img>	stop	1750.0	1.0	3.0	stop	non-target	P	89,Middle Finger	71,Index Finger	1150.0	1000.0	1600.0	1750.0	0.0	1.0	1000.0	n/a	stop_stim
237740.75108151557	1119.24891848	n/a	-1	-1	2750	1119.24891848	stim	stop-signal	489	1389804	0.0-21.3-1.3	beast_fmri_test	317	1387475,/,1388155,/,1388835,/,1389515,/,1390194,/,1390873,/	t,t,t,t,t,t	<img class = center src='/static/experiments/beast_fmri_test/images/P.png'></img>	89,71	2750.0	test	<img class = center src='/static/experiments/beast_fmri_test/images/redP.png'></img>	stop	1750.0	1.0	3.0	stop	non-target	P	89,Middle Finger	71,Index Finger	1150.0	1000.0	1600.0	1750.0	0.0	1.0	1000.0	n/a	ITI
240526	500.0	n/a	-1	-1	500	0.0	fixation	poldrack-single-stim	490	1391470	0.0-21.4-0.4	beast_fmri_test	317	n/a	n/a	<div class = centerbox2><div class = fixation>+</div></div>	none	500.0	test	n/a	n/a	n/a	n/a	n/a	n/a	n/a	n/a	n/a	n/a	n/a	n/a	n/a	n/a	n/a	n/a	n/a	n/a	fixation
239771.106279945	2750.0	n/a	1080	89	2750	755.893720055	stim	stop-signal	491	1394221	0.0-21.4-1.4	beast_fmri_test	317	1391553,/,1392233,/,1392912,/,1393594,/,1394273,/,1394953,/	t,t,t,t,t,t	<img class = center src='/static/experiments/beast_fmri_test/images/P.png'></img>	89,71	2750.0	test	<img class = center src='/static/experiments/beast_fmri_test/images/redP.png'></img>	go	1600.0	1.0	4.0	go	target	P	89,Middle Finger	71,Index Finger	1150.0	1050.0	1600.0	1750.0	1.0	n/a	1150.0	1.0	go_stim
242521.106279945	755.893720055	n/a	1080	89	2750	755.893720055	stim	stop-signal	491	1394221	0.0-21.4-1.4	beast_fmri_test	317	1391553,/,1392233,/,1392912,/,1393594,/,1394273,/,1394953,/	t,t,t,t,t,t	<img class = center src='/static/experiments/beast_fmri_test/images/P.png'></img>	89,71	2750.0	test	<img class = center src='/static/experiments/beast_fmri_test/images/redP.png'></img>	go	1600.0	1.0	4.0	go	target	P	89,Middle Finger	71,Index Finger	1150.0	1050.0	1600.0	1750.0	1.0	n/a	1150.0	1.0	ITI
244581	500.0	n/a	-1	-1	500	0.0	fixation	poldrack-single-stim	492	1395525	0.0-21.5-0.5	beast_fmri_test	317	n/a	n/a	<div class = centerbox2><div class = fixation>+</div></div>	none	500.0	test	n/a	n/a	n/a	n/a	n/a	n/a	n/a	n/a	n/a	n/a	n/a	n/a	n/a	n/a	n/a	n/a	n/a	n/a	fixation
243560.35532260244	2750.0	n/a	1585	71	2750	1020.6446774	stim	stop-signal	493	1398275	0.0-21.5-1.5	beast_fmri_test	317	1395631,/,1396311,/,1396991,/,1397670,/,1398350,/,1399030,/	t,t,t,t,t,t	<img class = center src='/static/experiments/beast_fmri_test/images/V.png'></img>	89,71	2750.0	test	<img class = center src='/static/experiments/beast_fmri_test/images/redV.png'></img>	go	1700.0	1.0	5.0	go	non-target	V	89,Middle Finger	71,Index Finger	1150.0	1050.0	1600.0	1700.0	1.0	n/a	1050.0	1.0	go_stim
246310.35532260244	1020.6446774	n/a	1585	71	2750	1020.6446774	stim	stop-signal	493	1398275	0.0-21.5-1.5	beast_fmri_test	317	1395631,/,1396311,/,1396991,/,1397670,/,1398350,/,1399030,/	t,t,t,t,t,t	<img class = center src='/static/experiments/beast_fmri_test/images/V.png'></img>	89,71	2750.0	test	<img class = center src='/static/experiments/beast_fmri_test/images/redV.png'></img>	go	1700.0	1.0	5.0	go	non-target	V	89,Middle Finger	71,Index Finger	1150.0	1050.0	1600.0	1700.0	1.0	n/a	1050.0	1.0	ITI
248901	500.0	n/a	-1	-1	500	0.0	fixation	poldrack-single-stim	494	1399845	0.0-21.6-0.6	beast_fmri_test	317	1399710,/	t	<div class = centerbox2><div class = fixation>+</div></div>	none	500.0	test	n/a	n/a	n/a	n/a	n/a	n/a	n/a	n/a	n/a	n/a	n/a	n/a	n/a	n/a	n/a	n/a	n/a	n/a	fixation
248606.14413946006	1050.0	n/a	-1	-1	2750	298.85586054	stim	stop-signal	495	1402599	0.0-21.6-1.6	beast_fmri_test	317	1400389,/,1401070,/,1401750,/,1402428,/	t,t,t,t	<img class = center src='/static/experiments/beast_fmri_test/images/B.png'></img>	89,71	2750.0	test	<img class = center src='/static/experiments/beast_fmri_test/images/redB.png'></img>	stop	1700.0	1.0	6.0	stop	non-target	B	89,Middle Finger	71,Index Finger	1150.0	1050.0	1600.0	1700.0	0.0	1.0	1050.0	n/a	go_stim
250306.14413946006	1700.0	n/a	-1	-1	2750	298.85586054	stim	stop-signal	495	1402599	0.0-21.6-1.6	beast_fmri_test	317	1400389,/,1401070,/,1401750,/,1402428,/	t,t,t,t	<img class = center src='/static/experiments/beast_fmri_test/images/B.png'></img>	89,71	2750.0	test	<img class = center src='/static/experiments/beast_fmri_test/images/redB.png'></img>	stop	1700.0	1.0	6.0	stop	non-target	B	89,Middle Finger	71,Index Finger	1150.0	1050.0	1600.0	1700.0	0.0	1.0	1050.0	n/a	stop_stim
251356.14413946006	298.85586054	n/a	-1	-1	2750	298.85586054	stim	stop-signal	495	1402599	0.0-21.6-1.6	beast_fmri_test	317	1400389,/,1401070,/,1401750,/,1402428,/	t,t,t,t	<img class = center src='/static/experiments/beast_fmri_test/images/B.png'></img>	89,71	2750.0	test	<img class = center src='/static/experiments/beast_fmri_test/images/redB.png'></img>	stop	1700.0	1.0	6.0	stop	non-target	B	89,Middle Finger	71,Index Finger	1150.0	1050.0	1600.0	1700.0	0.0	1.0	1050.0	n/a	ITI
252508	500.0	n/a	-1	-1	500	0.0	fixation	poldrack-single-stim	496	1403452	0.0-21.7-0.7	beast_fmri_test	317	1403108,/	t	<div class = centerbox2><div class = fixation>+</div></div>	none	500.0	test	n/a	n/a	n/a	n/a	n/a	n/a	n/a	n/a	n/a	n/a	n/a	n/a	n/a	n/a	n/a	n/a	n/a	n/a	fixation
252412.0798165903	2750.0	n/a	-1	-1	2750	96.9201834096	stim	stop-signal	497	1406203	0.0-21.7-1.7	beast_fmri_test	317	1403787,/,1404469,/,1405146,/,1405827,/	t,t,t,t	<img class = center src='/static/experiments/beast_fmri_test/images/D.png'></img>	89,71	2750.0	test	<img class = center src='/static/experiments/beast_fmri_test/images/redD.png'></img>	go	1650.0	1.0	7.0	go	non-target	D	89,Middle Finger	71,Index Finger	1150.0	1100.0	1600.0	1650.0	0.0	n/a	1100.0	0.0	go_stim
255162.0798165903	96.9201834096	n/a	-1	-1	2750	96.9201834096	stim	stop-signal	497	1406203	0.0-21.7-1.7	beast_fmri_test	317	1403787,/,1404469,/,1405146,/,1405827,/	t,t,t,t	<img class = center src='/static/experiments/beast_fmri_test/images/D.png'></img>	89,71	2750.0	test	<img class = center src='/static/experiments/beast_fmri_test/images/redD.png'></img>	go	1650.0	1.0	7.0	go	non-target	D	89,Middle Finger	71,Index Finger	1150.0	1100.0	1600.0	1650.0	0.0	n/a	1100.0	0.0	ITI
255906	500.0	n/a	-1	-1	500	0.0	fixation	poldrack-single-stim	498	1406850	0.0-21.8-0.8	beast_fmri_test	317	1406506,/	t	<div class = centerbox2><div class = fixation>+</div></div>	none	500.0	test	n/a	n/a	n/a	n/a	n/a	n/a	n/a	n/a	n/a	n/a	n/a	n/a	n/a	n/a	n/a	n/a	n/a	n/a	fixation
255169.69716218044	2750.0	n/a	-1	-1	2750	738.30283782	stim	stop-signal	499	1409602	0.0-21.8-1.8	beast_fmri_test	317	1407186,/,1407866,/,1408546,/,1409225,/,1409905,/	t,t,t,t,t	<img class = center src='/static/experiments/beast_fmri_test/images/D.png'></img>	89,71	2750.0	test	<img class = center src='/static/experiments/beast_fmri_test/images/redD.png'></img>	go	1600.0	1.0	8.0	go	target	D	89,Middle Finger	71,Index Finger	1150.0	1100.0	1600.0	1650.0	0.0	n/a	1150.0	0.0	go_stim
257919.69716218044	738.30283782	n/a	-1	-1	2750	738.30283782	stim	stop-signal	499	1409602	0.0-21.8-1.8	beast_fmri_test	317	1407186,/,1407866,/,1408546,/,1409225,/,1409905,/	t,t,t,t,t	<img class = center src='/static/experiments/beast_fmri_test/images/D.png'></img>	89,71	2750.0	test	<img class = center src='/static/experiments/beast_fmri_test/images/redD.png'></img>	go	1600.0	1.0	8.0	go	target	D	89,Middle Finger	71,Index Finger	1150.0	1100.0	1600.0	1650.0	0.0	n/a	1150.0	0.0	ITI
259951	500.0	n/a	-1	-1	500	0.0	fixation	poldrack-single-stim	500	1410895	0.0-21.9-0.9	beast_fmri_test	317	1410585,/	t	<div class = centerbox2><div class = fixation>+</div></div>	none	500.0	test	n/a	n/a	n/a	n/a	n/a	n/a	n/a	n/a	n/a	n/a	n/a	n/a	n/a	n/a	n/a	n/a	n/a	n/a	fixation
259816.17517055105	2750.0	n/a	2183	71	2750	134.824829449	stim	stop-signal	501	1413645	0.0-21.9-1.9	beast_fmri_test	317	1411265,/,1411945,/,1412625,/,1413304,/	t,t,t,t	<img class = center src='/static/experiments/beast_fmri_test/images/B.png'></img>	89,71	2750.0	test	<img class = center src='/static/experiments/beast_fmri_test/images/redB.png'></img>	go	1650.0	1.0	9.0	go	non-target	B	89,Middle Finger	71,Index Finger	1150.0	1100.0	1600.0	1650.0	1.0	n/a	1100.0	1.0	go_stim
262566.17517055105	134.824829449	n/a	2183	71	2750	134.824829449	stim	stop-signal	501	1413645	0.0-21.9-1.9	beast_fmri_test	317	1411265,/,1411945,/,1412625,/,1413304,/	t,t,t,t	<img class = center src='/static/experiments/beast_fmri_test/images/B.png'></img>	89,71	2750.0	test	<img class = center src='/static/experiments/beast_fmri_test/images/redB.png'></img>	go	1650.0	1.0	9.0	go	non-target	B	89,Middle Finger	71,Index Finger	1150.0	1100.0	1600.0	1650.0	1.0	n/a	1100.0	1.0	ITI
263383	500.0	n/a	-1	-1	500	0.0	fixation	poldrack-single-stim	502	1414327	0.0-21.10-0.10	beast_fmri_test	317	1413985,/	t	<div class = centerbox2><div class = fixation>+</div></div>	none	500.0	test	n/a	n/a	n/a	n/a	n/a	n/a	n/a	n/a	n/a	n/a	n/a	n/a	n/a	n/a	n/a	n/a	n/a	n/a	fixation
262967.67789297225	2750.0	n/a	953	89	2750	416.322107028	stim	stop-signal	503	1417078	0.0-21.10-1.10	beast_fmri_test	317	1414663,/,1415343,/,1416022,/,1416702,/,1417384,/	t,t,t,t,t	<img class = center src='/static/experiments/beast_fmri_test/images/B.png'></img>	89,71	2750.0	test	<img class = center src='/static/experiments/beast_fmri_test/images/redB.png'></img>	go	1600.0	1.0	10.0	go	target	B	89,Middle Finger	71,Index Finger	1150.0	1100.0	1600.0	1650.0	1.0	n/a	1150.0	1.0	go_stim
265717.67789297225	416.322107028	n/a	953	89	2750	416.322107028	stim	stop-signal	503	1417078	0.0-21.10-1.10	beast_fmri_test	317	1414663,/,1415343,/,1416022,/,1416702,/,1417384,/	t,t,t,t,t	<img class = center src='/static/experiments/beast_fmri_test/images/B.png'></img>	89,71	2750.0	test	<img class = center src='/static/experiments/beast_fmri_test/images/redB.png'></img>	go	1600.0	1.0	10.0	go	target	B	89,Middle Finger	71,Index Finger	1150.0	1100.0	1600.0	1650.0	1.0	n/a	1150.0	1.0	ITI
267104	500.0	n/a	-1	-1	500	0.0	fixation	poldrack-single-stim	504	1418048	0.0-21.11-0.11	beast_fmri_test	317	n/a	n/a	<div class = centerbox2><div class = fixation>+</div></div>	none	500.0	test	n/a	n/a	n/a	n/a	n/a	n/a	n/a	n/a	n/a	n/a	n/a	n/a	n/a	n/a	n/a	n/a	n/a	n/a	fixation
266934.89113339409	1100.0	n/a	1336	71	2750	170.108866606	stim	stop-signal	505	1420799	0.0-21.11-1.11	beast_fmri_test	317	1418063,/,1418741,/,1419420,/,1420101,/,1420779,/	t,t,t,t,t	<img class = center src='/static/experiments/beast_fmri_test/images/D.png'></img>	89,71	2750.0	test	<img class = center src='/static/experiments/beast_fmri_test/images/redD.png'></img>	stop	1650.0	1.0	11.0	stop	non-target	D	89,Middle Finger	71,Index Finger	1150.0	1100.0	1600.0	1650.0	0.0	0.0	1100.0	n/a	go_stim
268584.89113339409	1650.0	n/a	1336	71	2750	170.108866606	stim	stop-signal	505	1420799	0.0-21.11-1.11	beast_fmri_test	317	1418063,/,1418741,/,1419420,/,1420101,/,1420779,/	t,t,t,t,t	<img class = center src='/static/experiments/beast_fmri_test/images/D.png'></img>	89,71	2750.0	test	<img class = center src='/static/experiments/beast_fmri_test/images/redD.png'></img>	stop	1650.0	1.0	11.0	stop	non-target	D	89,Middle Finger	71,Index Finger	1150.0	1100.0	1600.0	1650.0	0.0	0.0	1100.0	n/a	stop_stim
269684.89113339409	170.108866606	n/a	1336	71	2750	170.108866606	stim	stop-signal	505	1420799	0.0-21.11-1.11	beast_fmri_test	317	1418063,/,1418741,/,1419420,/,1420101,/,1420779,/	t,t,t,t,t	<img class = center src='/static/experiments/beast_fmri_test/images/D.png'></img>	89,71	2750.0	test	<img class = center src='/static/experiments/beast_fmri_test/images/redD.png'></img>	stop	1650.0	1.0	11.0	stop	non-target	D	89,Middle Finger	71,Index Finger	1150.0	1100.0	1600.0	1650.0	0.0	0.0	1100.0	n/a	ITI
270580	500.0	n/a	-1	-1	500	0.0	fixation	poldrack-single-stim	506	1421524	0.0-21.12-0.12	beast_fmri_test	317	1421460,/	t	<div class = centerbox2><div class = fixation>+</div></div>	none	500.0	test	n/a	n/a	n/a	n/a	n/a	n/a	n/a	n/a	n/a	n/a	n/a	n/a	n/a	n/a	n/a	n/a	n/a	n/a	fixation
270054.20074558747	1050.0	n/a	-1	-1	2750	528.799254413	stim	stop-signal	507	1424277	0.0-21.12-1.12	beast_fmri_test	317	1422140,/,1422820,/,1423499,/,1424179,/	t,t,t,t	<img class = center src='/static/experiments/beast_fmri_test/images/V.png'></img>	89,71	2750.0	test	<img class = center src='/static/experiments/beast_fmri_test/images/redV.png'></img>	stop	1700.0	1.0	12.0	stop	non-target	V	89,Middle Finger	71,Index Finger	1150.0	1050.0	1600.0	1700.0	0.0	1.0	1050.0	n/a	go_stim
271754.20074558747	1700.0	n/a	-1	-1	2750	528.799254413	stim	stop-signal	507	1424277	0.0-21.12-1.12	beast_fmri_test	317	1422140,/,1422820,/,1423499,/,1424179,/	t,t,t,t	<img class = center src='/static/experiments/beast_fmri_test/images/V.png'></img>	89,71	2750.0	test	<img class = center src='/static/experiments/beast_fmri_test/images/redV.png'></img>	stop	1700.0	1.0	12.0	stop	non-target	V	89,Middle Finger	71,Index Finger	1150.0	1050.0	1600.0	1700.0	0.0	1.0	1050.0	n/a	stop_stim
272804.20074558747	528.799254413	n/a	-1	-1	2750	528.799254413	stim	stop-signal	507	1424277	0.0-21.12-1.12	beast_fmri_test	317	1422140,/,1422820,/,1423499,/,1424179,/	t,t,t,t	<img class = center src='/static/experiments/beast_fmri_test/images/V.png'></img>	89,71	2750.0	test	<img class = center src='/static/experiments/beast_fmri_test/images/redV.png'></img>	stop	1700.0	1.0	12.0	stop	non-target	V	89,Middle Finger	71,Index Finger	1150.0	1050.0	1600.0	1700.0	0.0	1.0	1050.0	n/a	ITI
274413	500.0	n/a	-1	-1	500	0.0	fixation	poldrack-single-stim	508	1425357	0.0-21.13-0.13	beast_fmri_test	317	1424858,/	t	<div class = centerbox2><div class = fixation>+</div></div>	none	500.0	test	n/a	n/a	n/a	n/a	n/a	n/a	n/a	n/a	n/a	n/a	n/a	n/a	n/a	n/a	n/a	n/a	n/a	n/a	fixation
273521.60509098251	2750.0	n/a	1073	89	2750	892.394909018	stim	stop-signal	509	1428108	0.0-21.13-1.13	beast_fmri_test	317	1425537,/,1426218,/,1426897,/,1427577,/,1428257,/,1428937,/	t,t,t,t,t,t	<img class = center src='/static/experiments/beast_fmri_test/images/V.png'></img>	89,71	2750.0	test	<img class = center src='/static/experiments/beast_fmri_test/images/redV.png'></img>	go	1600.0	1.0	13.0	go	target	V	89,Middle Finger	71,Index Finger	1150.0	1100.0	1600.0	1700.0	1.0	n/a	1150.0	1.0	go_stim
276271.60509098251	892.394909018	n/a	1073	89	2750	892.394909018	stim	stop-signal	509	1428108	0.0-21.13-1.13	beast_fmri_test	317	1425537,/,1426218,/,1426897,/,1427577,/,1428257,/,1428937,/	t,t,t,t,t,t	<img class = center src='/static/experiments/beast_fmri_test/images/V.png'></img>	89,71	2750.0	test	<img class = center src='/static/experiments/beast_fmri_test/images/redV.png'></img>	go	1600.0	1.0	13.0	go	target	V	89,Middle Finger	71,Index Finger	1150.0	1100.0	1600.0	1700.0	1.0	n/a	1150.0	1.0	ITI
278610	500.0	n/a	-1	-1	500	0.0	fixation	poldrack-single-stim	510	1429554	0.0-21.14-0.14	beast_fmri_test	317	n/a	n/a	<div class = centerbox2><div class = fixation>+</div></div>	none	500.0	test	n/a	n/a	n/a	n/a	n/a	n/a	n/a	n/a	n/a	n/a	n/a	n/a	n/a	n/a	n/a	n/a	n/a	n/a	fixation
277868.82949931966	1150.0	n/a	1269	89	2750	743.17050068	stim	stop-signal	511	1432306	0.0-21.14-1.14	beast_fmri_test	317	1429617,/,1430295,/,1430975,/,1431655,/,1432334,/,1433015,/	t,t,t,t,t,t	<img class = center src='/static/experiments/beast_fmri_test/images/V.png'></img>	89,71	2750.0	test	<img class = center src='/static/experiments/beast_fmri_test/images/redV.png'></img>	stop	1600.0	1.0	14.0	stop	target	V	89,Middle Finger	71,Index Finger	1150.0	1100.0	1600.0	1700.0	0.0	0.0	1150.0	n/a	go_stim
279468.82949931966	1600.0	n/a	1269	89	2750	743.17050068	stim	stop-signal	511	1432306	0.0-21.14-1.14	beast_fmri_test	317	1429617,/,1430295,/,1430975,/,1431655,/,1432334,/,1433015,/	t,t,t,t,t,t	<img class = center src='/static/experiments/beast_fmri_test/images/V.png'></img>	89,71	2750.0	test	<img class = center src='/static/experiments/beast_fmri_test/images/redV.png'></img>	stop	1600.0	1.0	14.0	stop	target	V	89,Middle Finger	71,Index Finger	1150.0	1100.0	1600.0	1700.0	0.0	0.0	1150.0	n/a	stop_stim
280618.82949931966	743.17050068	n/a	1269	89	2750	743.17050068	stim	stop-signal	511	1432306	0.0-21.14-1.14	beast_fmri_test	317	1429617,/,1430295,/,1430975,/,1431655,/,1432334,/,1433015,/	t,t,t,t,t,t	<img class = center src='/static/experiments/beast_fmri_test/images/V.png'></img>	89,71	2750.0	test	<img class = center src='/static/experiments/beast_fmri_test/images/redV.png'></img>	stop	1600.0	1.0	14.0	stop	target	V	89,Middle Finger	71,Index Finger	1150.0	1100.0	1600.0	1700.0	0.0	0.0	1150.0	n/a	ITI
282657	500.0	n/a	-1	-1	500	0.0	fixation	poldrack-single-stim	512	1433601	0.0-21.15-0.15	beast_fmri_test	317	n/a	n/a	<div class = centerbox2><div class = fixation>+</div></div>	none	500.0	test	n/a	n/a	n/a	n/a	n/a	n/a	n/a	n/a	n/a	n/a	n/a	n/a	n/a	n/a	n/a	n/a	n/a	n/a	fixation
279973.43833775423	2750.0	n/a	1180	71	2750	2686.56166225	stim	stop-signal	513	1436354	0.0-21.15-1.15	beast_fmri_test	317	1433694,/,1434373,/,1435054,/,1435733,/,1436413,/,1437093,/,1437772,/,1438452,/	t,t,t,t,t,t,t,t	<img class = center src='/static/experiments/beast_fmri_test/images/D.png'></img>	89,71	2750.0	test	<img class = center src='/static/experiments/beast_fmri_test/images/redD.png'></img>	go	1650.0	1.0	15.0	go	non-target	D	89,Middle Finger	71,Index Finger	1100.0	1100.0	1600.0	1650.0	1.0	n/a	1100.0	1.0	go_stim
282723.43833775423	2686.56166225	n/a	1180	71	2750	2686.56166225	stim	stop-signal	513	1436354	0.0-21.15-1.15	beast_fmri_test	317	1433694,/,1434373,/,1435054,/,1435733,/,1436413,/,1437093,/,1437772,/,1438452,/	t,t,t,t,t,t,t,t	<img class = center src='/static/experiments/beast_fmri_test/images/D.png'></img>	89,71	2750.0	test	<img class = center src='/static/experiments/beast_fmri_test/images/redD.png'></img>	go	1650.0	1.0	15.0	go	non-target	D	89,Middle Finger	71,Index Finger	1100.0	1100.0	1600.0	1650.0	1.0	n/a	1100.0	1.0	ITI
288648	500.0	n/a	-1	-1	500	0.0	fixation	poldrack-single-stim	514	1439592	0.0-21.16-0.16	beast_fmri_test	317	1439132,/	t	<div class = centerbox2><div class = fixation>+</div></div>	none	500.0	test	n/a	n/a	n/a	n/a	n/a	n/a	n/a	n/a	n/a	n/a	n/a	n/a	n/a	n/a	n/a	n/a	n/a	n/a	fixation
288320.66162968054	1100.0	n/a	-1	-1	2750	328.33837032	stim	stop-signal	515	1442343	0.0-21.16-1.16	beast_fmri_test	317	1439812,/,1440492,/,1441172,/,1441851,/,1442531,/	t,t,t,t,t	<img class = center src='/static/experiments/beast_fmri_test/images/P.png'></img>	89,71	2750.0	test	<img class = center src='/static/experiments/beast_fmri_test/images/redP.png'></img>	stop	1650.0	1.0	16.0	stop	non-target	P	89,Middle Finger	71,Index Finger	1100.0	1100.0	1600.0	1650.0	0.0	1.0	1100.0	n/a	go_stim
289970.66162968054	1650.0	n/a	-1	-1	2750	328.33837032	stim	stop-signal	515	1442343	0.0-21.16-1.16	beast_fmri_test	317	1439812,/,1440492,/,1441172,/,1441851,/,1442531,/	t,t,t,t,t	<img class = center src='/static/experiments/beast_fmri_test/images/P.png'></img>	89,71	2750.0	test	<img class = center src='/static/experiments/beast_fmri_test/images/redP.png'></img>	stop	1650.0	1.0	16.0	stop	non-target	P	89,Middle Finger	71,Index Finger	1100.0	1100.0	1600.0	1650.0	0.0	1.0	1100.0	n/a	stop_stim
291070.66162968054	328.33837032	n/a	-1	-1	2750	328.33837032	stim	stop-signal	515	1442343	0.0-21.16-1.16	beast_fmri_test	317	1439812,/,1440492,/,1441172,/,1441851,/,1442531,/	t,t,t,t,t	<img class = center src='/static/experiments/beast_fmri_test/images/P.png'></img>	89,71	2750.0	test	<img class = center src='/static/experiments/beast_fmri_test/images/redP.png'></img>	stop	1650.0	1.0	16.0	stop	non-target	P	89,Middle Finger	71,Index Finger	1100.0	1100.0	1600.0	1650.0	0.0	1.0	1100.0	n/a	ITI
292279	500.0	n/a	-1	-1	500	0.0	fixation	poldrack-single-stim	516	1443223	0.0-21.17-0.17	beast_fmri_test	317	1443210,/	t	<div class = centerbox2><div class = fixation>+</div></div>	none	500.0	test	n/a	n/a	n/a	n/a	n/a	n/a	n/a	n/a	n/a	n/a	n/a	n/a	n/a	n/a	n/a	n/a	n/a	n/a	fixation
291832.96317441529	1150.0	n/a	838	89	2750	447.036825585	stim	stop-signal	517	1445974	0.0-21.17-1.17	beast_fmri_test	317	1443890,/,1444569,/,1445251,/,1445929,/	t,t,t,t	<img class = center src='/static/experiments/beast_fmri_test/images/V.png'></img>	89,71	2750.0	test	<img class = center src='/static/experiments/beast_fmri_test/images/redV.png'></img>	stop	1600.0	1.0	17.0	stop	non-target	V	89,Middle Finger	71,Index Finger	1100.0	1150.0	1600.0	1600.0	0.0	0.0	1150.0	n/a	go_stim
293432.96317441529	1600.0	n/a	838	89	2750	447.036825585	stim	stop-signal	517	1445974	0.0-21.17-1.17	beast_fmri_test	317	1443890,/,1444569,/,1445251,/,1445929,/	t,t,t,t	<img class = center src='/static/experiments/beast_fmri_test/images/V.png'></img>	89,71	2750.0	test	<img class = center src='/static/experiments/beast_fmri_test/images/redV.png'></img>	stop	1600.0	1.0	17.0	stop	non-target	V	89,Middle Finger	71,Index Finger	1100.0	1150.0	1600.0	1600.0	0.0	0.0	1150.0	n/a	stop_stim
294582.96317441529	447.036825585	n/a	838	89	2750	447.036825585	stim	stop-signal	517	1445974	0.0-21.17-1.17	beast_fmri_test	317	1443890,/,1444569,/,1445251,/,1445929,/	t,t,t,t	<img class = center src='/static/experiments/beast_fmri_test/images/V.png'></img>	89,71	2750.0	test	<img class = center src='/static/experiments/beast_fmri_test/images/redV.png'></img>	stop	1600.0	1.0	17.0	stop	non-target	V	89,Middle Finger	71,Index Finger	1100.0	1150.0	1600.0	1600.0	0.0	0.0	1150.0	n/a	ITI
296028	500.0	n/a	-1	-1	500	0.0	fixation	poldrack-single-stim	518	1446972	0.0-21.18-0.18	beast_fmri_test	317	1446610,/	t	<div class = centerbox2><div class = fixation>+</div></div>	none	500.0	test	n/a	n/a	n/a	n/a	n/a	n/a	n/a	n/a	n/a	n/a	n/a	n/a	n/a	n/a	n/a	n/a	n/a	n/a	fixation
295524.77946194401	2750.0	n/a	1647	89	2750	504.220538056	stim	stop-signal	519	1449723	0.0-21.18-1.18	beast_fmri_test	317	1447288,/,1447968,/,1448648,/,1449328,/,1450007,/	t,t,t,t,t	<img class = center src='/static/experiments/beast_fmri_test/images/V.png'></img>	89,71	2750.0	test	<img class = center src='/static/experiments/beast_fmri_test/images/redV.png'></img>	go	1650.0	1.0	18.0	go	target	V	89,Middle Finger	71,Index Finger	1100.0	1100.0	1650.0	1600.0	1.0	n/a	1100.0	1.0	go_stim
298274.77946194401	504.220538056	n/a	1647	89	2750	504.220538056	stim	stop-signal	519	1449723	0.0-21.18-1.18	beast_fmri_test	317	1447288,/,1447968,/,1448648,/,1449328,/,1450007,/	t,t,t,t,t	<img class = center src='/static/experiments/beast_fmri_test/images/V.png'></img>	89,71	2750.0	test	<img class = center src='/static/experiments/beast_fmri_test/images/redV.png'></img>	go	1650.0	1.0	18.0	go	target	V	89,Middle Finger	71,Index Finger	1100.0	1100.0	1650.0	1600.0	1.0	n/a	1100.0	1.0	ITI
299840	500.0	n/a	-1	-1	500	0.0	fixation	poldrack-single-stim	520	1450784	0.0-21.19-0.19	beast_fmri_test	317	1450687,/	t	<div class = centerbox2><div class = fixation>+</div></div>	none	500.0	test	n/a	n/a	n/a	n/a	n/a	n/a	n/a	n/a	n/a	n/a	n/a	n/a	n/a	n/a	n/a	n/a	n/a	n/a	fixation
295864.89013985568	2750.0	n/a	1588	71	2750	3976.10986014	stim	stop-signal	521	1453535	0.0-21.19-1.19	beast_fmri_test	317	1451367,/,1452046,/,1452726,/,1453405,/,1454085,/,1454766,/,1455445,/,1456124,/,1456804,/,1457485,/	t,t,t,t,t,t,t,t,t,t	<img class = center src='/static/experiments/beast_fmri_test/images/P.png'></img>	89,71	2750.0	test	<img class = center src='/static/experiments/beast_fmri_test/images/redP.png'></img>	go	1650.0	1.0	19.0	go	non-target	P	89,Middle Finger	71,Index Finger	1100.0	1100.0	1650.0	1650.0	1.0	n/a	1100.0	1.0	go_stim
298614.89013985568	3976.10986014	n/a	1588	71	2750	3976.10986014	stim	stop-signal	521	1453535	0.0-21.19-1.19	beast_fmri_test	317	1451367,/,1452046,/,1452726,/,1453405,/,1454085,/,1454766,/,1455445,/,1456124,/,1456804,/,1457485,/	t,t,t,t,t,t,t,t,t,t	<img class = center src='/static/experiments/beast_fmri_test/images/P.png'></img>	89,71	2750.0	test	<img class = center src='/static/experiments/beast_fmri_test/images/redP.png'></img>	go	1650.0	1.0	19.0	go	non-target	P	89,Middle Finger	71,Index Finger	1100.0	1100.0	1650.0	1650.0	1.0	n/a	1100.0	1.0	ITI
307117	500.0	n/a	-1	-1	500	0.0	fixation	poldrack-single-stim	522	1458061	0.0-21.20-0.20	beast_fmri_test	317	n/a	n/a	<div class = centerbox2><div class = fixation>+</div></div>	none	500.0	test	n/a	n/a	n/a	n/a	n/a	n/a	n/a	n/a	n/a	n/a	n/a	n/a	n/a	n/a	n/a	n/a	n/a	n/a	fixation
305844.30142422579	1100.0	n/a	1423	71	2750	1273.69857577	stim	stop-signal	523	1460812	0.0-21.20-1.20	beast_fmri_test	317	1458164,/,1458843,/,1459523,/,1460202,/,1460891,/,1461561,/	t,t,t,t,t,t	<img class = center src='/static/experiments/beast_fmri_test/images/B.png'></img>	89,71	2750.0	test	<img class = center src='/static/experiments/beast_fmri_test/images/redB.png'></img>	stop	1650.0	1.0	20.0	stop	non-target	B	89,Middle Finger	71,Index Finger	1100.0	1100.0	1650.0	1650.0	0.0	0.0	1100.0	n/a	go_stim
307494.30142422579	1650.0	n/a	1423	71	2750	1273.69857577	stim	stop-signal	523	1460812	0.0-21.20-1.20	beast_fmri_test	317	1458164,/,1458843,/,1459523,/,1460202,/,1460891,/,1461561,/	t,t,t,t,t,t	<img class = center src='/static/experiments/beast_fmri_test/images/B.png'></img>	89,71	2750.0	test	<img class = center src='/static/experiments/beast_fmri_test/images/redB.png'></img>	stop	1650.0	1.0	20.0	stop	non-target	B	89,Middle Finger	71,Index Finger	1100.0	1100.0	1650.0	1650.0	0.0	0.0	1100.0	n/a	stop_stim
308594.30142422579	1273.69857577	n/a	1423	71	2750	1273.69857577	stim	stop-signal	523	1460812	0.0-21.20-1.20	beast_fmri_test	317	1458164,/,1458843,/,1459523,/,1460202,/,1460891,/,1461561,/	t,t,t,t,t,t	<img class = center src='/static/experiments/beast_fmri_test/images/B.png'></img>	89,71	2750.0	test	<img class = center src='/static/experiments/beast_fmri_test/images/redB.png'></img>	stop	1650.0	1.0	20.0	stop	non-target	B	89,Middle Finger	71,Index Finger	1100.0	1100.0	1650.0	1650.0	0.0	0.0	1100.0	n/a	ITI
311694	500.0	n/a	-1	-1	500	0.0	fixation	poldrack-single-stim	524	1462638	0.0-21.21-0.21	beast_fmri_test	317	1462243,/	t	<div class = centerbox2><div class = fixation>+</div></div>	none	500.0	test	n/a	n/a	n/a	n/a	n/a	n/a	n/a	n/a	n/a	n/a	n/a	n/a	n/a	n/a	n/a	n/a	n/a	n/a	fixation
309554.98698361823	2750.0	n/a	1383	71	2750	2141.01301638	stim	stop-signal	525	1465390	0.0-21.21-1.21	beast_fmri_test	317	1462920,/,1463601,/,1464280,/,1464960,/,1465639,/,1466319,/,1466999,/	t,t,t,t,t,t,t	<img class = center src='/static/experiments/beast_fmri_test/images/V.png'></img>	89,71	2750.0	test	<img class = center src='/static/experiments/beast_fmri_test/images/redV.png'></img>	go	1700.0	1.0	21.0	go	non-target	V	89,Middle Finger	71,Index Finger	1100.0	1050.0	1650.0	1700.0	1.0	n/a	1050.0	1.0	go_stim
312304.98698361823	2141.01301638	n/a	1383	71	2750	2141.01301638	stim	stop-signal	525	1465390	0.0-21.21-1.21	beast_fmri_test	317	1462920,/,1463601,/,1464280,/,1464960,/,1465639,/,1466319,/,1466999,/	t,t,t,t,t,t,t	<img class = center src='/static/experiments/beast_fmri_test/images/V.png'></img>	89,71	2750.0	test	<img class = center src='/static/experiments/beast_fmri_test/images/redV.png'></img>	go	1700.0	1.0	21.0	go	non-target	V	89,Middle Finger	71,Index Finger	1100.0	1050.0	1650.0	1700.0	1.0	n/a	1050.0	1.0	ITI
317142	500.0	n/a	-1	-1	500	0.0	fixation	poldrack-single-stim	526	1468086	0.0-21.22-0.22	beast_fmri_test	317	1467679,/	t	<div class = centerbox2><div class = fixation>+</div></div>	none	500.0	test	n/a	n/a	n/a	n/a	n/a	n/a	n/a	n/a	n/a	n/a	n/a	n/a	n/a	n/a	n/a	n/a	n/a	n/a	fixation
315641.52203541948	2750.0	n/a	1602	71	2750	1501.47796458	stim	stop-signal	527	1470837	0.0-21.22-1.22	beast_fmri_test	317	1468359,/,1469039,/,1469719,/,1470398,/,1471077,/,1471757,/	t,t,t,t,t,t	<img class = center src='/static/experiments/beast_fmri_test/images/D.png'></img>	89,71	2750.0	test	<img class = center src='/static/experiments/beast_fmri_test/images/redD.png'></img>	go	1700.0	1.0	22.0	go	non-target	D	89,Middle Finger	71,Index Finger	1100.0	1050.0	1650.0	1700.0	1.0	n/a	1050.0	1.0	go_stim
