onset	duration	text	rt	key_press	block_duration	timing_post_trial	trial_id	trial_type	trial_index	time_elapsed	internal_node_id	exp_id	subject_id	trigger_times	triggers	stimulus	possible_responses	stim_duration	exp_stage	SS_stimulus	SS_trial_type	SS_duration	load	trial_num	stop_trial_type	adaptive_trial_type	stim	yes_response_key	no_response_key	SSD_target	SSD_non_target	SSTarget	SSNonTarget	go_acc	stop_acc	SS_delay	adaptive_acc	new_trial_type
test	10880	n/a	-1	-1	10880	0.0	practice-no-stop-feedback	poldrack-single-stim	394	1148611	0.0-18.0	beast_fmri_test	387	1137731,/,1138409,/,1139089,/,1139769,/,1140449,/,1141129,/,1141809,/,1142489,/,1143169,/,1143849,/,1144529,/,1145209,/,1145890,/,1146569,/,1147249,/,1147929,/,1148609,/	t,t,t,t,t,t,t,t,t,t,t,t,t,t,t,t,t	"<div class = ""centerbox2_2""><p class = ""block-text2"">Your delay is 2 trials.</p><p class = block-text2>Please wait for the scanner to start the block</p></div>"	77	10880.0	n/a	n/a	n/a	n/a	n/a	n/a	n/a	n/a	n/a	n/a	n/a	n/a	n/a	n/a	n/a	n/a	n/a	n/a	n/a	start_functional_block
11381	500	n/a	-1	-1	500	0.0	fixation	poldrack-single-stim	395	1149112	0.0-19.0-0.0	beast_fmri_test	387	n/a	n/a	<div class = centerbox2><div class = fixation>+</div></div>	none	500.0	test	n/a	n/a	n/a	n/a	n/a	n/a	n/a	n/a	n/a	n/a	n/a	n/a	n/a	n/a	n/a	n/a	n/a	n/a	fixation
11251.826334699988	2750	n/a	1097	71	2750	131.1736653	stim	stop-signal	396	1151864	0.0-19.0-1.0	beast_fmri_test	387	1149289,/,1149969,/,1150649,/,1151329,/	t,t,t,t	<img class = center src='/static/experiments/beast_fmri_test/images/V.png'></img>	89,71	2750.0	test	<img class = center src='/static/experiments/beast_fmri_test/images/redV.png'></img>	go	-1.0	2.0	0.0	go	temp-non-target	V	89,Middle Finger	71,Index Finger	700.0	900.0	2050.0	1900.0	0.0	n/a	n/a	n/a	go_stim
14001.826334699988	131.17366529999998	n/a	1097	71	2750	131.1736653	stim	stop-signal	396	1151864	0.0-19.0-1.0	beast_fmri_test	387	1149289,/,1149969,/,1150649,/,1151329,/	t,t,t,t	<img class = center src='/static/experiments/beast_fmri_test/images/V.png'></img>	89,71	2750.0	test	<img class = center src='/static/experiments/beast_fmri_test/images/redV.png'></img>	go	-1.0	2.0	0.0	go	temp-non-target	V	89,Middle Finger	71,Index Finger	700.0	900.0	2050.0	1900.0	0.0	n/a	n/a	n/a	ITI
14778	500	n/a	-1	-1	500	0.0	fixation	poldrack-single-stim	397	1152509	0.0-19.1-0.1	beast_fmri_test	387	1152009,/	t	<div class = centerbox2><div class = fixation>+</div></div>	none	500.0	test	n/a	n/a	n/a	n/a	n/a	n/a	n/a	n/a	n/a	n/a	n/a	n/a	n/a	n/a	n/a	n/a	n/a	n/a	fixation
14702.176744899945	2750	n/a	701	71	2750	77.8232551	stim	stop-signal	398	1155261	0.0-19.1-1.1	beast_fmri_test	387	1152689,/,1153369,/,1154049,/,1154728,/	t,t,t,t	<img class = center src='/static/experiments/beast_fmri_test/images/B.png'></img>	89,71	2750.0	test	<img class = center src='/static/experiments/beast_fmri_test/images/redB.png'></img>	go	-1.0	2.0	1.0	go	temp-non-target	B	89,Middle Finger	71,Index Finger	700.0	900.0	2050.0	1900.0	0.0	n/a	n/a	n/a	go_stim
17452.176744899945	77.823255099999997	n/a	701	71	2750	77.8232551	stim	stop-signal	398	1155261	0.0-19.1-1.1	beast_fmri_test	387	1152689,/,1153369,/,1154049,/,1154728,/	t,t,t,t	<img class = center src='/static/experiments/beast_fmri_test/images/B.png'></img>	89,71	2750.0	test	<img class = center src='/static/experiments/beast_fmri_test/images/redB.png'></img>	go	-1.0	2.0	1.0	go	temp-non-target	B	89,Middle Finger	71,Index Finger	700.0	900.0	2050.0	1900.0	0.0	n/a	n/a	n/a	ITI
18123	500	n/a	-1	-1	500	0.0	fixation	poldrack-single-stim	399	1155854	0.0-19.2-0.2	beast_fmri_test	387	1155409,/	t	<div class = centerbox2><div class = fixation>+</div></div>	none	500.0	test	n/a	n/a	n/a	n/a	n/a	n/a	n/a	n/a	n/a	n/a	n/a	n/a	n/a	n/a	n/a	n/a	n/a	n/a	fixation
17988.648363699904	2750	n/a	600	89	2750	135.3516363	stim	stop-signal	400	1158605	0.0-19.2-1.2	beast_fmri_test	387	1156089,/,1156769,/,1157449,/,1158129,/	t,t,t,t	<img class = center src='/static/experiments/beast_fmri_test/images/V.png'></img>	89,71	2750.0	test	<img class = center src='/static/experiments/beast_fmri_test/images/redV.png'></img>	go	2050.0	2.0	2.0	go	target	V	89,Middle Finger	71,Index Finger	700.0	900.0	2050.0	1900.0	1.0	n/a	700.0	1.0	go_stim
20738.648363699904	135.35163630000002	n/a	600	89	2750	135.3516363	stim	stop-signal	400	1158605	0.0-19.2-1.2	beast_fmri_test	387	1156089,/,1156769,/,1157449,/,1158129,/	t,t,t,t	<img class = center src='/static/experiments/beast_fmri_test/images/V.png'></img>	89,71	2750.0	test	<img class = center src='/static/experiments/beast_fmri_test/images/redV.png'></img>	go	2050.0	2.0	2.0	go	target	V	89,Middle Finger	71,Index Finger	700.0	900.0	2050.0	1900.0	1.0	n/a	700.0	1.0	ITI
21524	500	n/a	-1	-1	500	0.0	fixation	poldrack-single-stim	401	1159255	0.0-19.3-0.3	beast_fmri_test	387	1158808,/	t	<div class = centerbox2><div class = fixation>+</div></div>	none	500.0	test	n/a	n/a	n/a	n/a	n/a	n/a	n/a	n/a	n/a	n/a	n/a	n/a	n/a	n/a	n/a	n/a	n/a	n/a	fixation
21197.73736150004	2750	n/a	789	71	2750	328.2626385	stim	stop-signal	402	1162007	0.0-19.3-1.3	beast_fmri_test	387	1159489,/,1160169,/,1160849,/,1161528,/,1162208,/	t,t,t,t,t	<img class = center src='/static/experiments/beast_fmri_test/images/V.png'></img>	89,71	2750.0	test	<img class = center src='/static/experiments/beast_fmri_test/images/redV.png'></img>	go	1850.0	2.0	3.0	go	non-target	V	89,Middle Finger	71,Index Finger	700.0	900.0	2050.0	1850.0	1.0	n/a	900.0	1.0	go_stim
23947.73736150004	328.26263849999998	n/a	789	71	2750	328.2626385	stim	stop-signal	402	1162007	0.0-19.3-1.3	beast_fmri_test	387	1159489,/,1160169,/,1160849,/,1161528,/,1162208,/	t,t,t,t,t	<img class = center src='/static/experiments/beast_fmri_test/images/V.png'></img>	89,71	2750.0	test	<img class = center src='/static/experiments/beast_fmri_test/images/redV.png'></img>	go	1850.0	2.0	3.0	go	non-target	V	89,Middle Finger	71,Index Finger	700.0	900.0	2050.0	1850.0	1.0	n/a	900.0	1.0	ITI
25120	500	n/a	-1	-1	500	0.0	fixation	poldrack-single-stim	403	1162851	0.0-19.4-0.4	beast_fmri_test	387	n/a	n/a	<div class = centerbox2><div class = fixation>+</div></div>	none	500.0	test	n/a	n/a	n/a	n/a	n/a	n/a	n/a	n/a	n/a	n/a	n/a	n/a	n/a	n/a	n/a	n/a	n/a	n/a	fixation
23224.372843000107	900.0	n/a	1009	71	2750	1896.627157	stim	stop-signal	404	1165602	0.0-19.4-1.4	beast_fmri_test	387	1162888,/,1163569,/,1164249,/,1164929,/,1165609,/,1166290,/,1166969,/	t,t,t,t,t,t,t	<img class = center src='/static/experiments/beast_fmri_test/images/P.png'></img>	89,71	2750.0	test	<img class = center src='/static/experiments/beast_fmri_test/images/redP.png'></img>	stop	1850.0	2.0	4.0	stop	non-target	P	89,Middle Finger	71,Index Finger	700.0	900.0	2050.0	1850.0	0.0	0.0	900.0	n/a	go_stim
25074.372843000107	1850.0	n/a	1009	71	2750	1896.627157	stim	stop-signal	404	1165602	0.0-19.4-1.4	beast_fmri_test	387	1162888,/,1163569,/,1164249,/,1164929,/,1165609,/,1166290,/,1166969,/	t,t,t,t,t,t,t	<img class = center src='/static/experiments/beast_fmri_test/images/P.png'></img>	89,71	2750.0	test	<img class = center src='/static/experiments/beast_fmri_test/images/redP.png'></img>	stop	1850.0	2.0	4.0	stop	non-target	P	89,Middle Finger	71,Index Finger	700.0	900.0	2050.0	1850.0	0.0	0.0	900.0	n/a	stop_stim
25974.372843000107	1896.6271570000001	n/a	1009	71	2750	1896.627157	stim	stop-signal	404	1165602	0.0-19.4-1.4	beast_fmri_test	387	1162888,/,1163569,/,1164249,/,1164929,/,1165609,/,1166290,/,1166969,/	t,t,t,t,t,t,t	<img class = center src='/static/experiments/beast_fmri_test/images/P.png'></img>	89,71	2750.0	test	<img class = center src='/static/experiments/beast_fmri_test/images/redP.png'></img>	stop	1850.0	2.0	4.0	stop	non-target	P	89,Middle Finger	71,Index Finger	700.0	900.0	2050.0	1850.0	0.0	0.0	900.0	n/a	ITI
30282	500	n/a	-1	-1	500	0.0	fixation	poldrack-single-stim	405	1168013	0.0-19.5-0.5	beast_fmri_test	387	1167649,/	t	<div class = centerbox2><div class = fixation>+</div></div>	none	500.0	test	n/a	n/a	n/a	n/a	n/a	n/a	n/a	n/a	n/a	n/a	n/a	n/a	n/a	n/a	n/a	n/a	n/a	n/a	fixation
29933.164742399938	2750	n/a	729	71	2750	350.8352576	stim	stop-signal	406	1170765	0.0-19.5-1.5	beast_fmri_test	387	1168329,/,1169009,/,1169689,/,1170369,/,1171049,/	t,t,t,t,t	<img class = center src='/static/experiments/beast_fmri_test/images/T.png'></img>	89,71	2750.0	test	<img class = center src='/static/experiments/beast_fmri_test/images/redT.png'></img>	go	1900.0	2.0	5.0	go	non-target	T	89,Middle Finger	71,Index Finger	700.0	850.0	2050.0	1900.0	1.0	n/a	850.0	1.0	go_stim
32683.164742399938	350.83525760000003	n/a	729	71	2750	350.8352576	stim	stop-signal	406	1170765	0.0-19.5-1.5	beast_fmri_test	387	1168329,/,1169009,/,1169689,/,1170369,/,1171049,/	t,t,t,t,t	<img class = center src='/static/experiments/beast_fmri_test/images/T.png'></img>	89,71	2750.0	test	<img class = center src='/static/experiments/beast_fmri_test/images/redT.png'></img>	go	1900.0	2.0	5.0	go	non-target	T	89,Middle Finger	71,Index Finger	700.0	850.0	2050.0	1900.0	1.0	n/a	850.0	1.0	ITI
33903	500	n/a	-1	-1	500	0.0	fixation	poldrack-single-stim	407	1171634	0.0-19.6-0.6	beast_fmri_test	387	n/a	n/a	<div class = centerbox2><div class = fixation>+</div></div>	none	500.0	test	n/a	n/a	n/a	n/a	n/a	n/a	n/a	n/a	n/a	n/a	n/a	n/a	n/a	n/a	n/a	n/a	n/a	n/a	fixation
32889.503294999944	850.0	n/a	870	71	2750	1015.496705	stim	stop-signal	408	1174386	0.0-19.6-1.6	beast_fmri_test	387	1171729,/,1172409,/,1173089,/,1173769,/,1174449,/,1175129,/	t,t,t,t,t,t	<img class = center src='/static/experiments/beast_fmri_test/images/V.png'></img>	89,71	2750.0	test	<img class = center src='/static/experiments/beast_fmri_test/images/redV.png'></img>	stop	1900.0	2.0	6.0	stop	non-target	V	89,Middle Finger	71,Index Finger	700.0	850.0	2050.0	1900.0	0.0	0.0	850.0	n/a	go_stim
34789.503294999944	1900.0	n/a	870	71	2750	1015.496705	stim	stop-signal	408	1174386	0.0-19.6-1.6	beast_fmri_test	387	1171729,/,1172409,/,1173089,/,1173769,/,1174449,/,1175129,/	t,t,t,t,t,t	<img class = center src='/static/experiments/beast_fmri_test/images/V.png'></img>	89,71	2750.0	test	<img class = center src='/static/experiments/beast_fmri_test/images/redV.png'></img>	stop	1900.0	2.0	6.0	stop	non-target	V	89,Middle Finger	71,Index Finger	700.0	850.0	2050.0	1900.0	0.0	0.0	850.0	n/a	stop_stim
35639.503294999944	1015.496705	n/a	870	71	2750	1015.496705	stim	stop-signal	408	1174386	0.0-19.6-1.6	beast_fmri_test	387	1171729,/,1172409,/,1173089,/,1173769,/,1174449,/,1175129,/	t,t,t,t,t,t	<img class = center src='/static/experiments/beast_fmri_test/images/V.png'></img>	89,71	2750.0	test	<img class = center src='/static/experiments/beast_fmri_test/images/redV.png'></img>	stop	1900.0	2.0	6.0	stop	non-target	V	89,Middle Finger	71,Index Finger	700.0	850.0	2050.0	1900.0	0.0	0.0	850.0	n/a	ITI
38185	500	n/a	-1	-1	500	0.0	fixation	poldrack-single-stim	409	1175916	0.0-19.7-0.7	beast_fmri_test	387	1175809,/	t	<div class = centerbox2><div class = fixation>+</div></div>	none	500.0	test	n/a	n/a	n/a	n/a	n/a	n/a	n/a	n/a	n/a	n/a	n/a	n/a	n/a	n/a	n/a	n/a	n/a	n/a	fixation
37902.704233400058	2750	n/a	543	89	2750	285.2957666	stim	stop-signal	410	1178669	0.0-19.7-1.7	beast_fmri_test	387	1176489,/,1177169,/,1177849,/,1178529,/	t,t,t,t	<img class = center src='/static/experiments/beast_fmri_test/images/T.png'></img>	89,71	2750.0	test	<img class = center src='/static/experiments/beast_fmri_test/images/redT.png'></img>	go	2050.0	2.0	7.0	go	target	T	89,Middle Finger	71,Index Finger	700.0	800.0	2050.0	1900.0	1.0	n/a	700.0	1.0	go_stim
40652.704233400058	285.29576660000004	n/a	543	89	2750	285.2957666	stim	stop-signal	410	1178669	0.0-19.7-1.7	beast_fmri_test	387	1176489,/,1177169,/,1177849,/,1178529,/	t,t,t,t	<img class = center src='/static/experiments/beast_fmri_test/images/T.png'></img>	89,71	2750.0	test	<img class = center src='/static/experiments/beast_fmri_test/images/redT.png'></img>	go	2050.0	2.0	7.0	go	target	T	89,Middle Finger	71,Index Finger	700.0	800.0	2050.0	1900.0	1.0	n/a	700.0	1.0	ITI
41740	500	n/a	-1	-1	500	0.0	fixation	poldrack-single-stim	411	1179471	0.0-19.8-0.8	beast_fmri_test	387	1179209,/	t	<div class = centerbox2><div class = fixation>+</div></div>	none	500.0	test	n/a	n/a	n/a	n/a	n/a	n/a	n/a	n/a	n/a	n/a	n/a	n/a	n/a	n/a	n/a	n/a	n/a	n/a	fixation
41158.614167100051	700.0	n/a	931	89	2750	583.3858329	stim	stop-signal	412	1182223	0.0-19.8-1.8	beast_fmri_test	387	1179889,/,1180569,/,1181249,/,1181929,/,1182609,/	t,t,t,t,t	<img class = center src='/static/experiments/beast_fmri_test/images/V.png'></img>	89,71	2750.0	test	<img class = center src='/static/experiments/beast_fmri_test/images/redV.png'></img>	stop	2050.0	2.0	8.0	stop	target	V	89,Middle Finger	71,Index Finger	700.0	800.0	2050.0	1900.0	0.0	0.0	700.0	n/a	go_stim
43208.614167100051	2050.0	n/a	931	89	2750	583.3858329	stim	stop-signal	412	1182223	0.0-19.8-1.8	beast_fmri_test	387	1179889,/,1180569,/,1181249,/,1181929,/,1182609,/	t,t,t,t,t	<img class = center src='/static/experiments/beast_fmri_test/images/V.png'></img>	89,71	2750.0	test	<img class = center src='/static/experiments/beast_fmri_test/images/redV.png'></img>	stop	2050.0	2.0	8.0	stop	target	V	89,Middle Finger	71,Index Finger	700.0	800.0	2050.0	1900.0	0.0	0.0	700.0	n/a	stop_stim
43908.614167100051	583.38583289999997	n/a	931	89	2750	583.3858329	stim	stop-signal	412	1182223	0.0-19.8-1.8	beast_fmri_test	387	1179889,/,1180569,/,1181249,/,1181929,/,1182609,/	t,t,t,t,t	<img class = center src='/static/experiments/beast_fmri_test/images/V.png'></img>	89,71	2750.0	test	<img class = center src='/static/experiments/beast_fmri_test/images/redV.png'></img>	stop	2050.0	2.0	8.0	stop	target	V	89,Middle Finger	71,Index Finger	700.0	800.0	2050.0	1900.0	0.0	0.0	700.0	n/a	ITI
45588	500	n/a	-1	-1	500	0.0	fixation	poldrack-single-stim	413	1183319	0.0-19.9-0.9	beast_fmri_test	387	1183289,/	t	<div class = centerbox2><div class = fixation>+</div></div>	none	500.0	test	n/a	n/a	n/a	n/a	n/a	n/a	n/a	n/a	n/a	n/a	n/a	n/a	n/a	n/a	n/a	n/a	n/a	n/a	fixation
45307.212658700068	800.0	n/a	947	71	2750	282.7873413	stim	stop-signal	414	1186071	0.0-19.9-1.9	beast_fmri_test	387	1183969,/,1184649,/,1185329,/,1186009,/	t,t,t,t	<img class = center src='/static/experiments/beast_fmri_test/images/D.png'></img>	89,71	2750.0	test	<img class = center src='/static/experiments/beast_fmri_test/images/redD.png'></img>	stop	1950.0	2.0	9.0	stop	non-target	D	89,Middle Finger	71,Index Finger	650.0	800.0	2050.0	1950.0	0.0	0.0	800.0	n/a	go_stim
47257.212658700068	1950.0	n/a	947	71	2750	282.7873413	stim	stop-signal	414	1186071	0.0-19.9-1.9	beast_fmri_test	387	1183969,/,1184649,/,1185329,/,1186009,/	t,t,t,t	<img class = center src='/static/experiments/beast_fmri_test/images/D.png'></img>	89,71	2750.0	test	<img class = center src='/static/experiments/beast_fmri_test/images/redD.png'></img>	stop	1950.0	2.0	9.0	stop	non-target	D	89,Middle Finger	71,Index Finger	650.0	800.0	2050.0	1950.0	0.0	0.0	800.0	n/a	stop_stim
48057.212658700068	282.78734130000004	n/a	947	71	2750	282.7873413	stim	stop-signal	414	1186071	0.0-19.9-1.9	beast_fmri_test	387	1183969,/,1184649,/,1185329,/,1186009,/	t,t,t,t	<img class = center src='/static/experiments/beast_fmri_test/images/D.png'></img>	89,71	2750.0	test	<img class = center src='/static/experiments/beast_fmri_test/images/redD.png'></img>	stop	1950.0	2.0	9.0	stop	non-target	D	89,Middle Finger	71,Index Finger	650.0	800.0	2050.0	1950.0	0.0	0.0	800.0	n/a	ITI
49139	500	n/a	-1	-1	500	0.0	fixation	poldrack-single-stim	415	1186870	0.0-19.10-0.10	beast_fmri_test	387	1186689,/	t	<div class = centerbox2><div class = fixation>+</div></div>	none	500.0	test	n/a	n/a	n/a	n/a	n/a	n/a	n/a	n/a	n/a	n/a	n/a	n/a	n/a	n/a	n/a	n/a	n/a	n/a	fixation
48458.199459200026	2750	n/a	1191	71	2750	682.8005408	stim	stop-signal	416	1189622	0.0-19.10-1.10	beast_fmri_test	387	1187369,/,1188049,/,1188728,/,1189408,/,1190088,/	t,t,t,t,t	<img class = center src='/static/experiments/beast_fmri_test/images/T.png'></img>	89,71	2750.0	test	<img class = center src='/static/experiments/beast_fmri_test/images/redT.png'></img>	go	2000.0	2.0	10.0	go	non-target	T	89,Middle Finger	71,Index Finger	650.0	750.0	2050.0	2000.0	1.0	n/a	750.0	1.0	go_stim
51208.199459200026	682.80054080000002	n/a	1191	71	2750	682.8005408	stim	stop-signal	416	1189622	0.0-19.10-1.10	beast_fmri_test	387	1187369,/,1188049,/,1188728,/,1189408,/,1190088,/	t,t,t,t,t	<img class = center src='/static/experiments/beast_fmri_test/images/T.png'></img>	89,71	2750.0	test	<img class = center src='/static/experiments/beast_fmri_test/images/redT.png'></img>	go	2000.0	2.0	10.0	go	non-target	T	89,Middle Finger	71,Index Finger	650.0	750.0	2050.0	2000.0	1.0	n/a	750.0	1.0	ITI
53086	500	n/a	-1	-1	500	0.0	fixation	poldrack-single-stim	417	1190817	0.0-19.11-0.11	beast_fmri_test	387	1190769,/	t	<div class = centerbox2><div class = fixation>+</div></div>	none	500.0	test	n/a	n/a	n/a	n/a	n/a	n/a	n/a	n/a	n/a	n/a	n/a	n/a	n/a	n/a	n/a	n/a	n/a	n/a	fixation
52625.96560580004	750.0	n/a	-1	-1	2750	462.0343942	stim	stop-signal	418	1193569	0.0-19.11-1.11	beast_fmri_test	387	1191449,/,1192128,/,1192808,/,1193489,/	t,t,t,t	<img class = center src='/static/experiments/beast_fmri_test/images/P.png'></img>	89,71	2750.0	test	<img class = center src='/static/experiments/beast_fmri_test/images/redP.png'></img>	stop	2000.0	2.0	11.0	stop	non-target	P	89,Middle Finger	71,Index Finger	650.0	750.0	2050.0	2000.0	0.0	1.0	750.0	n/a	go_stim
54625.96560580004	2000.0	n/a	-1	-1	2750	462.0343942	stim	stop-signal	418	1193569	0.0-19.11-1.11	beast_fmri_test	387	1191449,/,1192128,/,1192808,/,1193489,/	t,t,t,t	<img class = center src='/static/experiments/beast_fmri_test/images/P.png'></img>	89,71	2750.0	test	<img class = center src='/static/experiments/beast_fmri_test/images/redP.png'></img>	stop	2000.0	2.0	11.0	stop	non-target	P	89,Middle Finger	71,Index Finger	650.0	750.0	2050.0	2000.0	0.0	1.0	750.0	n/a	stop_stim
55375.96560580004	462.03439420000001	n/a	-1	-1	2750	462.0343942	stim	stop-signal	418	1193569	0.0-19.11-1.11	beast_fmri_test	387	1191449,/,1192128,/,1192808,/,1193489,/	t,t,t,t	<img class = center src='/static/experiments/beast_fmri_test/images/P.png'></img>	89,71	2750.0	test	<img class = center src='/static/experiments/beast_fmri_test/images/redP.png'></img>	stop	2000.0	2.0	11.0	stop	non-target	P	89,Middle Finger	71,Index Finger	650.0	750.0	2050.0	2000.0	0.0	1.0	750.0	n/a	ITI
56815	500	n/a	-1	-1	500	0.0	fixation	poldrack-single-stim	419	1194546	0.0-19.12-0.12	beast_fmri_test	387	1194169,/	t	<div class = centerbox2><div class = fixation>+</div></div>	none	500.0	test	n/a	n/a	n/a	n/a	n/a	n/a	n/a	n/a	n/a	n/a	n/a	n/a	n/a	n/a	n/a	n/a	n/a	n/a	fixation
56566.400234299945	2750	n/a	756	71	2750	250.5997657	stim	stop-signal	420	1197298	0.0-19.12-1.12	beast_fmri_test	387	1194849,/,1195528,/,1196208,/,1196890,/	t,t,t,t	<img class = center src='/static/experiments/beast_fmri_test/images/V.png'></img>	89,71	2750.0	test	<img class = center src='/static/experiments/beast_fmri_test/images/redV.png'></img>	go	1950.0	2.0	12.0	go	non-target	V	89,Middle Finger	71,Index Finger	650.0	800.0	2050.0	1950.0	1.0	n/a	800.0	1.0	go_stim
59316.400234299945	250.59976569999998	n/a	756	71	2750	250.5997657	stim	stop-signal	420	1197298	0.0-19.12-1.12	beast_fmri_test	387	1194849,/,1195528,/,1196208,/,1196890,/	t,t,t,t	<img class = center src='/static/experiments/beast_fmri_test/images/V.png'></img>	89,71	2750.0	test	<img class = center src='/static/experiments/beast_fmri_test/images/redV.png'></img>	go	1950.0	2.0	12.0	go	non-target	V	89,Middle Finger	71,Index Finger	650.0	800.0	2050.0	1950.0	1.0	n/a	800.0	1.0	ITI
60334	500	n/a	-1	-1	500	0.0	fixation	poldrack-single-stim	421	1198065	0.0-19.13-0.13	beast_fmri_test	387	1197569,/	t	<div class = centerbox2><div class = fixation>+</div></div>	none	500.0	test	n/a	n/a	n/a	n/a	n/a	n/a	n/a	n/a	n/a	n/a	n/a	n/a	n/a	n/a	n/a	n/a	n/a	n/a	fixation
58357.031389999902	800.0	n/a	726	71	2750	1978.96861	stim	stop-signal	422	1200817	0.0-19.13-1.13	beast_fmri_test	387	1198250,/,1198929,/,1199609,/,1200289,/,1200969,/,1201649,/,1202329,/	t,t,t,t,t,t,t	<img class = center src='/static/experiments/beast_fmri_test/images/T.png'></img>	89,71	2750.0	test	<img class = center src='/static/experiments/beast_fmri_test/images/redT.png'></img>	stop	1950.0	2.0	13.0	stop	non-target	T	89,Middle Finger	71,Index Finger	650.0	800.0	2050.0	1950.0	0.0	0.0	800.0	n/a	go_stim
60307.031389999902	1950.0	n/a	726	71	2750	1978.96861	stim	stop-signal	422	1200817	0.0-19.13-1.13	beast_fmri_test	387	1198250,/,1198929,/,1199609,/,1200289,/,1200969,/,1201649,/,1202329,/	t,t,t,t,t,t,t	<img class = center src='/static/experiments/beast_fmri_test/images/T.png'></img>	89,71	2750.0	test	<img class = center src='/static/experiments/beast_fmri_test/images/redT.png'></img>	stop	1950.0	2.0	13.0	stop	non-target	T	89,Middle Finger	71,Index Finger	650.0	800.0	2050.0	1950.0	0.0	0.0	800.0	n/a	stop_stim
61107.031389999902	1978.9686100000001	n/a	726	71	2750	1978.96861	stim	stop-signal	422	1200817	0.0-19.13-1.13	beast_fmri_test	387	1198250,/,1198929,/,1199609,/,1200289,/,1200969,/,1201649,/,1202329,/	t,t,t,t,t,t,t	<img class = center src='/static/experiments/beast_fmri_test/images/T.png'></img>	89,71	2750.0	test	<img class = center src='/static/experiments/beast_fmri_test/images/redT.png'></img>	stop	1950.0	2.0	13.0	stop	non-target	T	89,Middle Finger	71,Index Finger	650.0	800.0	2050.0	1950.0	0.0	0.0	800.0	n/a	ITI
65580	500	n/a	-1	-1	500	0.0	fixation	poldrack-single-stim	423	1203311	0.0-19.14-0.14	beast_fmri_test	387	1203009,/	t	<div class = centerbox2><div class = fixation>+</div></div>	none	500.0	test	n/a	n/a	n/a	n/a	n/a	n/a	n/a	n/a	n/a	n/a	n/a	n/a	n/a	n/a	n/a	n/a	n/a	n/a	fixation
63651.801040000049	2750	n/a	722	71	2750	1930.19896	stim	stop-signal	424	1206063	0.0-19.14-1.14	beast_fmri_test	387	1203689,/,1204369,/,1205049,/,1205729,/,1206409,/,1207090,/,1207769,/	t,t,t,t,t,t,t	<img class = center src='/static/experiments/beast_fmri_test/images/P.png'></img>	89,71	2750.0	test	<img class = center src='/static/experiments/beast_fmri_test/images/redP.png'></img>	go	2000.0	2.0	14.0	go	non-target	P	89,Middle Finger	71,Index Finger	650.0	750.0	2050.0	2000.0	1.0	n/a	750.0	1.0	go_stim
66401.801040000049	1930.1989600000002	n/a	722	71	2750	1930.19896	stim	stop-signal	424	1206063	0.0-19.14-1.14	beast_fmri_test	387	1203689,/,1204369,/,1205049,/,1205729,/,1206409,/,1207090,/,1207769,/	t,t,t,t,t,t,t	<img class = center src='/static/experiments/beast_fmri_test/images/P.png'></img>	89,71	2750.0	test	<img class = center src='/static/experiments/beast_fmri_test/images/redP.png'></img>	go	2000.0	2.0	14.0	go	non-target	P	89,Middle Finger	71,Index Finger	650.0	750.0	2050.0	2000.0	1.0	n/a	750.0	1.0	ITI
70779	500	n/a	-1	-1	500	0.0	fixation	poldrack-single-stim	425	1208510	0.0-19.15-0.15	beast_fmri_test	387	1208449,/	t	<div class = centerbox2><div class = fixation>+</div></div>	none	500.0	test	n/a	n/a	n/a	n/a	n/a	n/a	n/a	n/a	n/a	n/a	n/a	n/a	n/a	n/a	n/a	n/a	n/a	n/a	fixation
69334.336547000101	2750	n/a	865	89	2750	1446.663453	stim	stop-signal	426	1211262	0.0-19.15-1.15	beast_fmri_test	387	1209129,/,1209809,/,1210489,/,1211169,/,1211849,/,1212529,/	t,t,t,t,t,t	<img class = center src='/static/experiments/beast_fmri_test/images/T.png'></img>	89,71	2750.0	test	<img class = center src='/static/experiments/beast_fmri_test/images/redT.png'></img>	go	2100.0	2.0	15.0	go	target	T	89,Middle Finger	71,Index Finger	650.0	750.0	2100.0	2000.0	1.0	n/a	650.0	1.0	go_stim
72084.336547000101	1446.6634529999999	n/a	865	89	2750	1446.663453	stim	stop-signal	426	1211262	0.0-19.15-1.15	beast_fmri_test	387	1209129,/,1209809,/,1210489,/,1211169,/,1211849,/,1212529,/	t,t,t,t,t,t	<img class = center src='/static/experiments/beast_fmri_test/images/T.png'></img>	89,71	2750.0	test	<img class = center src='/static/experiments/beast_fmri_test/images/redT.png'></img>	go	2100.0	2.0	15.0	go	target	T	89,Middle Finger	71,Index Finger	650.0	750.0	2100.0	2000.0	1.0	n/a	650.0	1.0	ITI
75494	500	n/a	-1	-1	500	0.0	fixation	poldrack-single-stim	427	1213225	0.0-19.16-0.16	beast_fmri_test	387	1213209,/	t	<div class = centerbox2><div class = fixation>+</div></div>	none	500.0	test	n/a	n/a	n/a	n/a	n/a	n/a	n/a	n/a	n/a	n/a	n/a	n/a	n/a	n/a	n/a	n/a	n/a	n/a	fixation
73061.911134999944	2750	n/a	877	71	2750	2434.088865	stim	stop-signal	428	1215977	0.0-19.16-1.16	beast_fmri_test	387	1213889,/,1214569,/,1215249,/,1215929,/,1216609,/,1217289,/,1217969,/	t,t,t,t,t,t,t	<img class = center src='/static/experiments/beast_fmri_test/images/T.png'></img>	89,71	2750.0	test	<img class = center src='/static/experiments/beast_fmri_test/images/redT.png'></img>	go	2000.0	2.0	16.0	go	non-target	T	89,Middle Finger	71,Index Finger	650.0	750.0	2100.0	2000.0	1.0	n/a	750.0	1.0	go_stim
75811.911134999944	2434.0888649999997	n/a	877	71	2750	2434.088865	stim	stop-signal	428	1215977	0.0-19.16-1.16	beast_fmri_test	387	1213889,/,1214569,/,1215249,/,1215929,/,1216609,/,1217289,/,1217969,/	t,t,t,t,t,t,t	<img class = center src='/static/experiments/beast_fmri_test/images/T.png'></img>	89,71	2750.0	test	<img class = center src='/static/experiments/beast_fmri_test/images/redT.png'></img>	go	2000.0	2.0	16.0	go	non-target	T	89,Middle Finger	71,Index Finger	650.0	750.0	2100.0	2000.0	1.0	n/a	750.0	1.0	ITI
81196	500	n/a	-1	-1	500	0.0	fixation	poldrack-single-stim	429	1218927	0.0-19.17-0.17	beast_fmri_test	387	1218649,/	t	<div class = centerbox2><div class = fixation>+</div></div>	none	500.0	test	n/a	n/a	n/a	n/a	n/a	n/a	n/a	n/a	n/a	n/a	n/a	n/a	n/a	n/a	n/a	n/a	n/a	n/a	fixation
81022.54081330006	2750	n/a	687	89	2750	175.4591867	stim	stop-signal	430	1221679	0.0-19.17-1.17	beast_fmri_test	387	1219329,/,1220009,/,1220689,/,1221368,/	t,t,t,t	<img class = center src='/static/experiments/beast_fmri_test/images/T.png'></img>	89,71	2750.0	test	<img class = center src='/static/experiments/beast_fmri_test/images/redT.png'></img>	go	2100.0	2.0	17.0	go	target	T	89,Middle Finger	71,Index Finger	650.0	750.0	2100.0	2000.0	1.0	n/a	650.0	1.0	go_stim
83772.54081330006	175.45918669999998	n/a	687	89	2750	175.4591867	stim	stop-signal	430	1221679	0.0-19.17-1.17	beast_fmri_test	387	1219329,/,1220009,/,1220689,/,1221368,/	t,t,t,t	<img class = center src='/static/experiments/beast_fmri_test/images/T.png'></img>	89,71	2750.0	test	<img class = center src='/static/experiments/beast_fmri_test/images/redT.png'></img>	go	2100.0	2.0	17.0	go	target	T	89,Middle Finger	71,Index Finger	650.0	750.0	2100.0	2000.0	1.0	n/a	650.0	1.0	ITI
84640	500	n/a	-1	-1	500	0.0	fixation	poldrack-single-stim	431	1222371	0.0-19.18-0.18	beast_fmri_test	387	1222049,/	t	<div class = centerbox2><div class = fixation>+</div></div>	none	500.0	test	n/a	n/a	n/a	n/a	n/a	n/a	n/a	n/a	n/a	n/a	n/a	n/a	n/a	n/a	n/a	n/a	n/a	n/a	fixation
81495.007167000091	650.0	n/a	900	89	2750	3146.992833	stim	stop-signal	432	1225123	0.0-19.18-1.18	beast_fmri_test	387	1222728,/,1223409,/,1224088,/,1224769,/,1225449,/,1226128,/,1226808,/,1227489,/,1228169,/	t,t,t,t,t,t,t,t,t	<img class = center src='/static/experiments/beast_fmri_test/images/T.png'></img>	89,71	2750.0	test	<img class = center src='/static/experiments/beast_fmri_test/images/redT.png'></img>	stop	2100.0	2.0	18.0	stop	target	T	89,Middle Finger	71,Index Finger	650.0	750.0	2100.0	2000.0	0.0	0.0	650.0	n/a	go_stim
83595.007167000091	2100.0	n/a	900	89	2750	3146.992833	stim	stop-signal	432	1225123	0.0-19.18-1.18	beast_fmri_test	387	1222728,/,1223409,/,1224088,/,1224769,/,1225449,/,1226128,/,1226808,/,1227489,/,1228169,/	t,t,t,t,t,t,t,t,t	<img class = center src='/static/experiments/beast_fmri_test/images/T.png'></img>	89,71	2750.0	test	<img class = center src='/static/experiments/beast_fmri_test/images/redT.png'></img>	stop	2100.0	2.0	18.0	stop	target	T	89,Middle Finger	71,Index Finger	650.0	750.0	2100.0	2000.0	0.0	0.0	650.0	n/a	stop_stim
84245.007167000091	3146.9928329999998	n/a	900	89	2750	3146.992833	stim	stop-signal	432	1225123	0.0-19.18-1.18	beast_fmri_test	387	1222728,/,1223409,/,1224088,/,1224769,/,1225449,/,1226128,/,1226808,/,1227489,/,1228169,/	t,t,t,t,t,t,t,t,t	<img class = center src='/static/experiments/beast_fmri_test/images/T.png'></img>	89,71	2750.0	test	<img class = center src='/static/experiments/beast_fmri_test/images/redT.png'></img>	stop	2100.0	2.0	18.0	stop	target	T	89,Middle Finger	71,Index Finger	650.0	750.0	2100.0	2000.0	0.0	0.0	650.0	n/a	ITI
91054	500	n/a	-1	-1	500	0.0	fixation	poldrack-single-stim	433	1228785	0.0-19.19-0.19	beast_fmri_test	387	n/a	n/a	<div class = centerbox2><div class = fixation>+</div></div>	none	500.0	test	n/a	n/a	n/a	n/a	n/a	n/a	n/a	n/a	n/a	n/a	n/a	n/a	n/a	n/a	n/a	n/a	n/a	n/a	fixation
90776.909531600075	750.0	n/a	1359	71	2750	279.0904684	stim	stop-signal	434	1231537	0.0-19.19-1.19	beast_fmri_test	387	1228849,/,1229530,/,1230209,/,1230889,/,1231569,/	t,t,t,t,t	<img class = center src='/static/experiments/beast_fmri_test/images/V.png'></img>	89,71	2750.0	test	<img class = center src='/static/experiments/beast_fmri_test/images/redV.png'></img>	stop	2000.0	2.0	19.0	stop	non-target	V	89,Middle Finger	71,Index Finger	600.0	750.0	2100.0	2000.0	0.0	0.0	750.0	n/a	go_stim
92776.909531600075	2000.0	n/a	1359	71	2750	279.0904684	stim	stop-signal	434	1231537	0.0-19.19-1.19	beast_fmri_test	387	1228849,/,1229530,/,1230209,/,1230889,/,1231569,/	t,t,t,t,t	<img class = center src='/static/experiments/beast_fmri_test/images/V.png'></img>	89,71	2750.0	test	<img class = center src='/static/experiments/beast_fmri_test/images/redV.png'></img>	stop	2000.0	2.0	19.0	stop	non-target	V	89,Middle Finger	71,Index Finger	600.0	750.0	2100.0	2000.0	0.0	0.0	750.0	n/a	stop_stim
93526.909531600075	279.09046839999996	n/a	1359	71	2750	279.0904684	stim	stop-signal	434	1231537	0.0-19.19-1.19	beast_fmri_test	387	1228849,/,1229530,/,1230209,/,1230889,/,1231569,/	t,t,t,t,t	<img class = center src='/static/experiments/beast_fmri_test/images/V.png'></img>	89,71	2750.0	test	<img class = center src='/static/experiments/beast_fmri_test/images/redV.png'></img>	stop	2000.0	2.0	19.0	stop	non-target	V	89,Middle Finger	71,Index Finger	600.0	750.0	2100.0	2000.0	0.0	0.0	750.0	n/a	ITI
94601	500	n/a	-1	-1	500	0.0	fixation	poldrack-single-stim	435	1232332	0.0-19.20-0.20	beast_fmri_test	387	1232249,/	t	<div class = centerbox2><div class = fixation>+</div></div>	none	500.0	test	n/a	n/a	n/a	n/a	n/a	n/a	n/a	n/a	n/a	n/a	n/a	n/a	n/a	n/a	n/a	n/a	n/a	n/a	fixation
94453.745724099921	2750	n/a	873	71	2750	148.2542759	stim	stop-signal	436	1235083	0.0-19.20-1.20	beast_fmri_test	387	1232929,/,1233609,/,1234289,/,1234969,/	t,t,t,t	<img class = center src='/static/experiments/beast_fmri_test/images/D.png'></img>	89,71	2750.0	test	<img class = center src='/static/experiments/beast_fmri_test/images/redD.png'></img>	go	2050.0	2.0	20.0	go	non-target	D	89,Middle Finger	71,Index Finger	600.0	700.0	2100.0	2050.0	1.0	n/a	700.0	1.0	go_stim
97203.745724099921	148.25427590000001	n/a	873	71	2750	148.2542759	stim	stop-signal	436	1235083	0.0-19.20-1.20	beast_fmri_test	387	1232929,/,1233609,/,1234289,/,1234969,/	t,t,t,t	<img class = center src='/static/experiments/beast_fmri_test/images/D.png'></img>	89,71	2750.0	test	<img class = center src='/static/experiments/beast_fmri_test/images/redD.png'></img>	go	2050.0	2.0	20.0	go	non-target	D	89,Middle Finger	71,Index Finger	600.0	700.0	2100.0	2050.0	1.0	n/a	700.0	1.0	ITI
98014	500	n/a	-1	-1	500	0.0	fixation	poldrack-single-stim	437	1235745	0.0-19.21-0.21	beast_fmri_test	387	1235649,/	t	<div class = centerbox2><div class = fixation>+</div></div>	none	500.0	test	n/a	n/a	n/a	n/a	n/a	n/a	n/a	n/a	n/a	n/a	n/a	n/a	n/a	n/a	n/a	n/a	n/a	n/a	fixation
95916.855095000006	700.0	n/a	-1	-1	2750	2098.144905	stim	stop-signal	438	1238496	0.0-19.21-1.21	beast_fmri_test	387	1236329,/,1237009,/,1237690,/,1238369,/,1239049,/,1239729,/,1240409,/	t,t,t,t,t,t,t	<img class = center src='/static/experiments/beast_fmri_test/images/T.png'></img>	89,71	2750.0	test	<img class = center src='/static/experiments/beast_fmri_test/images/redT.png'></img>	stop	2050.0	2.0	21.0	stop	non-target	T	89,Middle Finger	71,Index Finger	600.0	700.0	2100.0	2050.0	0.0	1.0	700.0	n/a	go_stim
97966.855095000006	2050.0	n/a	-1	-1	2750	2098.144905	stim	stop-signal	438	1238496	0.0-19.21-1.21	beast_fmri_test	387	1236329,/,1237009,/,1237690,/,1238369,/,1239049,/,1239729,/,1240409,/	t,t,t,t,t,t,t	<img class = center src='/static/experiments/beast_fmri_test/images/T.png'></img>	89,71	2750.0	test	<img class = center src='/static/experiments/beast_fmri_test/images/redT.png'></img>	stop	2050.0	2.0	21.0	stop	non-target	T	89,Middle Finger	71,Index Finger	600.0	700.0	2100.0	2050.0	0.0	1.0	700.0	n/a	stop_stim
98666.855095000006	2098.1449050000001	n/a	-1	-1	2750	2098.144905	stim	stop-signal	438	1238496	0.0-19.21-1.21	beast_fmri_test	387	1236329,/,1237009,/,1237690,/,1238369,/,1239049,/,1239729,/,1240409,/	t,t,t,t,t,t,t	<img class = center src='/static/experiments/beast_fmri_test/images/T.png'></img>	89,71	2750.0	test	<img class = center src='/static/experiments/beast_fmri_test/images/redT.png'></img>	stop	2050.0	2.0	21.0	stop	non-target	T	89,Middle Finger	71,Index Finger	600.0	700.0	2100.0	2050.0	0.0	1.0	700.0	n/a	ITI
103381	500	n/a	-1	-1	500	0.0	fixation	poldrack-single-stim	439	1241112	0.0-19.22-0.22	beast_fmri_test	387	1241089,/	t	<div class = centerbox2><div class = fixation>+</div></div>	none	500.0	test	n/a	n/a	n/a	n/a	n/a	n/a	n/a	n/a	n/a	n/a	n/a	n/a	n/a	n/a	n/a	n/a	n/a	n/a	fixation
100490.987311	600.0	n/a	594	89	2750	2892.012689	stim	stop-signal	440	1243864	0.0-19.22-1.22	beast_fmri_test	387	1241769,/,1242449,/,1243129,/,1243809,/,1244489,/,1245169,/,1245849,/,1246529,/	t,t,t,t,t,t,t,t	<img class = center src='/static/experiments/beast_fmri_test/images/D.png'></img>	89,71	2750.0	test	<img class = center src='/static/experiments/beast_fmri_test/images/redD.png'></img>	stop	2150.0	2.0	22.0	stop	target	D	89,Middle Finger	71,Index Finger	600.0	750.0	2150.0	2050.0	0.0	0.0	600.0	n/a	go_stim
102640.987311	2150.0	n/a	594	89	2750	2892.012689	stim	stop-signal	440	1243864	0.0-19.22-1.22	beast_fmri_test	387	1241769,/,1242449,/,1243129,/,1243809,/,1244489,/,1245169,/,1245849,/,1246529,/	t,t,t,t,t,t,t,t	<img class = center src='/static/experiments/beast_fmri_test/images/D.png'></img>	89,71	2750.0	test	<img class = center src='/static/experiments/beast_fmri_test/images/redD.png'></img>	stop	2150.0	2.0	22.0	stop	target	D	89,Middle Finger	71,Index Finger	600.0	750.0	2150.0	2050.0	0.0	0.0	600.0	n/a	stop_stim
103240.987311	2892.0126890000001	n/a	594	89	2750	2892.012689	stim	stop-signal	440	1243864	0.0-19.22-1.22	beast_fmri_test	387	1241769,/,1242449,/,1243129,/,1243809,/,1244489,/,1245169,/,1245849,/,1246529,/	t,t,t,t,t,t,t,t	<img class = center src='/static/experiments/beast_fmri_test/images/D.png'></img>	89,71	2750.0	test	<img class = center src='/static/experiments/beast_fmri_test/images/redD.png'></img>	stop	2150.0	2.0	22.0	stop	target	D	89,Middle Finger	71,Index Finger	600.0	750.0	2150.0	2050.0	0.0	0.0	600.0	n/a	ITI
109540	500	n/a	-1	-1	500	0.0	fixation	poldrack-single-stim	441	1247271	0.0-19.23-0.23	beast_fmri_test	387	1247209,/	t	<div class = centerbox2><div class = fixation>+</div></div>	none	500.0	test	n/a	n/a	n/a	n/a	n/a	n/a	n/a	n/a	n/a	n/a	n/a	n/a	n/a	n/a	n/a	n/a	n/a	n/a	fixation
109158.11381520005	2750	n/a	620	71	2750	383.8861848	stim	stop-signal	442	1250023	0.0-19.23-1.23	beast_fmri_test	387	1247889,/,1248569,/,1249249,/,1249929,/	t,t,t,t	<img class = center src='/static/experiments/beast_fmri_test/images/D.png'></img>	89,71	2750.0	test	<img class = center src='/static/experiments/beast_fmri_test/images/redD.png'></img>	go	2000.0	2.0	23.0	go	non-target	D	89,Middle Finger	71,Index Finger	550.0	750.0	2150.0	2000.0	1.0	n/a	750.0	1.0	go_stim
111908.11381520005	383.88618480000002	n/a	620	71	2750	383.8861848	stim	stop-signal	442	1250023	0.0-19.23-1.23	beast_fmri_test	387	1247889,/,1248569,/,1249249,/,1249929,/	t,t,t,t	<img class = center src='/static/experiments/beast_fmri_test/images/D.png'></img>	89,71	2750.0	test	<img class = center src='/static/experiments/beast_fmri_test/images/redD.png'></img>	go	2000.0	2.0	23.0	go	non-target	D	89,Middle Finger	71,Index Finger	550.0	750.0	2150.0	2000.0	1.0	n/a	750.0	1.0	ITI
113191	500	n/a	-1	-1	500	0.0	fixation	poldrack-single-stim	443	1250922	0.0-19.24-0.24	beast_fmri_test	387	1250609,/	t	<div class = centerbox2><div class = fixation>+</div></div>	none	500.0	test	n/a	n/a	n/a	n/a	n/a	n/a	n/a	n/a	n/a	n/a	n/a	n/a	n/a	n/a	n/a	n/a	n/a	n/a	fixation
112553.20157340006	2750	n/a	1038	71	2750	640.7984266	stim	stop-signal	444	1253675	0.0-19.24-1.24	beast_fmri_test	387	1251289,/,1251969,/,1252648,/,1253328,/,1254008,/	t,t,t,t,t	<img class = center src='/static/experiments/beast_fmri_test/images/P.png'></img>	89,71	2750.0	test	<img class = center src='/static/experiments/beast_fmri_test/images/redP.png'></img>	go	2000.0	2.0	24.0	go	non-target	P	89,Middle Finger	71,Index Finger	550.0	750.0	2150.0	2000.0	1.0	n/a	750.0	1.0	go_stim
115303.20157340006	640.79842659999997	n/a	1038	71	2750	640.7984266	stim	stop-signal	444	1253675	0.0-19.24-1.24	beast_fmri_test	387	1251289,/,1251969,/,1252648,/,1253328,/,1254008,/	t,t,t,t,t	<img class = center src='/static/experiments/beast_fmri_test/images/P.png'></img>	89,71	2750.0	test	<img class = center src='/static/experiments/beast_fmri_test/images/redP.png'></img>	go	2000.0	2.0	24.0	go	non-target	P	89,Middle Finger	71,Index Finger	550.0	750.0	2150.0	2000.0	1.0	n/a	750.0	1.0	ITI
117097	500	n/a	-1	-1	500	0.0	fixation	poldrack-single-stim	445	1254828	0.0-19.25-0.25	beast_fmri_test	387	1254689,/	t	<div class = centerbox2><div class = fixation>+</div></div>	none	500.0	test	n/a	n/a	n/a	n/a	n/a	n/a	n/a	n/a	n/a	n/a	n/a	n/a	n/a	n/a	n/a	n/a	n/a	n/a	fixation
116573.2917057001	2750	n/a	830	71	2750	525.7082943	stim	stop-signal	446	1257580	0.0-19.25-1.25	beast_fmri_test	387	1255368,/,1256049,/,1256728,/,1257408,/,1258090,/	t,t,t,t,t	<img class = center src='/static/experiments/beast_fmri_test/images/T.png'></img>	89,71	2750.0	test	<img class = center src='/static/experiments/beast_fmri_test/images/redT.png'></img>	go	2000.0	2.0	25.0	go	non-target	T	89,Middle Finger	71,Index Finger	550.0	750.0	2150.0	2000.0	1.0	n/a	750.0	1.0	go_stim
119323.2917057001	525.70829430000003	n/a	830	71	2750	525.7082943	stim	stop-signal	446	1257580	0.0-19.25-1.25	beast_fmri_test	387	1255368,/,1256049,/,1256728,/,1257408,/,1258090,/	t,t,t,t,t	<img class = center src='/static/experiments/beast_fmri_test/images/T.png'></img>	89,71	2750.0	test	<img class = center src='/static/experiments/beast_fmri_test/images/redT.png'></img>	go	2000.0	2.0	25.0	go	non-target	T	89,Middle Finger	71,Index Finger	550.0	750.0	2150.0	2000.0	1.0	n/a	750.0	1.0	ITI
120888	500	n/a	-1	-1	500	0.0	fixation	poldrack-single-stim	447	1258619	0.0-19.26-0.26	beast_fmri_test	387	n/a	n/a	<div class = centerbox2><div class = fixation>+</div></div>	none	500.0	test	n/a	n/a	n/a	n/a	n/a	n/a	n/a	n/a	n/a	n/a	n/a	n/a	n/a	n/a	n/a	n/a	n/a	n/a	fixation
120359.91296519991	2750	n/a	1057	89	2750	530.0870348	stim	stop-signal	448	1261371	0.0-19.26-1.26	beast_fmri_test	387	1258768,/,1259449,/,1260128,/,1260808,/,1261488,/	t,t,t,t,t	<img class = center src='/static/experiments/beast_fmri_test/images/P.png'></img>	89,71	2750.0	test	<img class = center src='/static/experiments/beast_fmri_test/images/redP.png'></img>	go	2200.0	2.0	26.0	go	target	P	89,Middle Finger	71,Index Finger	550.0	750.0	2200.0	2000.0	1.0	n/a	550.0	1.0	go_stim
123109.91296519991	530.08703479999997	n/a	1057	89	2750	530.0870348	stim	stop-signal	448	1261371	0.0-19.26-1.26	beast_fmri_test	387	1258768,/,1259449,/,1260128,/,1260808,/,1261488,/	t,t,t,t,t	<img class = center src='/static/experiments/beast_fmri_test/images/P.png'></img>	89,71	2750.0	test	<img class = center src='/static/experiments/beast_fmri_test/images/redP.png'></img>	go	2200.0	2.0	26.0	go	target	P	89,Middle Finger	71,Index Finger	550.0	750.0	2200.0	2000.0	1.0	n/a	550.0	1.0	ITI
124685	500	n/a	-1	-1	500	0.0	fixation	poldrack-single-stim	449	1262416	0.0-19.27-0.27	beast_fmri_test	387	1262169,/	t	<div class = centerbox2><div class = fixation>+</div></div>	none	500.0	test	n/a	n/a	n/a	n/a	n/a	n/a	n/a	n/a	n/a	n/a	n/a	n/a	n/a	n/a	n/a	n/a	n/a	n/a	fixation
124416.44075269997	2750	n/a	669	71	2750	270.5592473	stim	stop-signal	450	1265168	0.0-19.27-1.27	beast_fmri_test	387	1262849,/,1263529,/,1264209,/,1264889,/	t,t,t,t	<img class = center src='/static/experiments/beast_fmri_test/images/V.png'></img>	89,71	2750.0	test	<img class = center src='/static/experiments/beast_fmri_test/images/redV.png'></img>	go	2000.0	2.0	27.0	go	non-target	V	89,Middle Finger	71,Index Finger	550.0	750.0	2200.0	2000.0	1.0	n/a	750.0	1.0	go_stim
127166.44075269997	270.55924730000004	n/a	669	71	2750	270.5592473	stim	stop-signal	450	1265168	0.0-19.27-1.27	beast_fmri_test	387	1262849,/,1263529,/,1264209,/,1264889,/	t,t,t,t	<img class = center src='/static/experiments/beast_fmri_test/images/V.png'></img>	89,71	2750.0	test	<img class = center src='/static/experiments/beast_fmri_test/images/redV.png'></img>	go	2000.0	2.0	27.0	go	non-target	V	89,Middle Finger	71,Index Finger	550.0	750.0	2200.0	2000.0	1.0	n/a	750.0	1.0	ITI
128223	500	n/a	-1	-1	500	0.0	fixation	poldrack-single-stim	451	1265954	0.0-19.28-0.28	beast_fmri_test	387	1265569,/	t	<div class = centerbox2><div class = fixation>+</div></div>	none	500.0	test	n/a	n/a	n/a	n/a	n/a	n/a	n/a	n/a	n/a	n/a	n/a	n/a	n/a	n/a	n/a	n/a	n/a	n/a	fixation
127383.63735389989	2750	n/a	1564	71	2750	841.3626461	stim	stop-signal	452	1268706	0.0-19.28-1.28	beast_fmri_test	387	1266249,/,1266929,/,1267609,/,1268290,/,1268969,/	t,t,t,t,t	<img class = center src='/static/experiments/beast_fmri_test/images/B.png'></img>	89,71	2750.0	test	<img class = center src='/static/experiments/beast_fmri_test/images/redB.png'></img>	go	2000.0	2.0	28.0	go	non-target	B	89,Middle Finger	71,Index Finger	550.0	750.0	2200.0	2000.0	1.0	n/a	750.0	1.0	go_stim
130133.63735389989	841.36264610000012	n/a	1564	71	2750	841.3626461	stim	stop-signal	452	1268706	0.0-19.28-1.28	beast_fmri_test	387	1266249,/,1266929,/,1267609,/,1268290,/,1268969,/	t,t,t,t,t	<img class = center src='/static/experiments/beast_fmri_test/images/B.png'></img>	89,71	2750.0	test	<img class = center src='/static/experiments/beast_fmri_test/images/redB.png'></img>	go	2000.0	2.0	28.0	go	non-target	B	89,Middle Finger	71,Index Finger	550.0	750.0	2200.0	2000.0	1.0	n/a	750.0	1.0	ITI
132330	500	n/a	-1	-1	500	0.0	fixation	poldrack-single-stim	453	1270061	0.0-19.29-0.29	beast_fmri_test	387	1269649,/	t	<div class = centerbox2><div class = fixation>+</div></div>	none	500.0	test	n/a	n/a	n/a	n/a	n/a	n/a	n/a	n/a	n/a	n/a	n/a	n/a	n/a	n/a	n/a	n/a	n/a	n/a	fixation
131845.67542320001	550.0	n/a	-1	-1	2750	485.3245768	stim	stop-signal	454	1272812	0.0-19.29-1.29	beast_fmri_test	387	1270329,/,1271009,/,1271689,/,1272369,/,1273048,/	t,t,t,t,t	<img class = center src='/static/experiments/beast_fmri_test/images/V.png'></img>	89,71	2750.0	test	<img class = center src='/static/experiments/beast_fmri_test/images/redV.png'></img>	stop	2200.0	2.0	29.0	stop	target	V	89,Middle Finger	71,Index Finger	550.0	750.0	2200.0	2000.0	0.0	1.0	550.0	n/a	go_stim
134045.67542320001	2200.0	n/a	-1	-1	2750	485.3245768	stim	stop-signal	454	1272812	0.0-19.29-1.29	beast_fmri_test	387	1270329,/,1271009,/,1271689,/,1272369,/,1273048,/	t,t,t,t,t	<img class = center src='/static/experiments/beast_fmri_test/images/V.png'></img>	89,71	2750.0	test	<img class = center src='/static/experiments/beast_fmri_test/images/redV.png'></img>	stop	2200.0	2.0	29.0	stop	target	V	89,Middle Finger	71,Index Finger	550.0	750.0	2200.0	2000.0	0.0	1.0	550.0	n/a	stop_stim
134595.67542320001	485.32457679999999	n/a	-1	-1	2750	485.3245768	stim	stop-signal	454	1272812	0.0-19.29-1.29	beast_fmri_test	387	1270329,/,1271009,/,1271689,/,1272369,/,1273048,/	t,t,t,t,t	<img class = center src='/static/experiments/beast_fmri_test/images/V.png'></img>	89,71	2750.0	test	<img class = center src='/static/experiments/beast_fmri_test/images/redV.png'></img>	stop	2200.0	2.0	29.0	stop	target	V	89,Middle Finger	71,Index Finger	550.0	750.0	2200.0	2000.0	0.0	1.0	550.0	n/a	ITI
136086	500	n/a	-1	-1	500	0.0	fixation	poldrack-single-stim	455	1273817	0.0-19.30-0.30	beast_fmri_test	387	1273729,/	t	<div class = centerbox2><div class = fixation>+</div></div>	none	500.0	test	n/a	n/a	n/a	n/a	n/a	n/a	n/a	n/a	n/a	n/a	n/a	n/a	n/a	n/a	n/a	n/a	n/a	n/a	fixation
134755.65896299994	2750	n/a	650	71	2750	1332.341037	stim	stop-signal	456	1276569	0.0-19.30-1.30	beast_fmri_test	387	1274409,/,1275088,/,1275769,/,1276448,/,1277129,/,1277809,/	t,t,t,t,t,t	<img class = center src='/static/experiments/beast_fmri_test/images/V.png'></img>	89,71	2750.0	test	<img class = center src='/static/experiments/beast_fmri_test/images/redV.png'></img>	go	2000.0	2.0	30.0	go	non-target	V	89,Middle Finger	71,Index Finger	600.0	750.0	2200.0	2000.0	1.0	n/a	750.0	1.0	go_stim
137505.65896299994	1332.3410369999999	n/a	650	71	2750	1332.341037	stim	stop-signal	456	1276569	0.0-19.30-1.30	beast_fmri_test	387	1274409,/,1275088,/,1275769,/,1276448,/,1277129,/,1277809,/	t,t,t,t,t,t	<img class = center src='/static/experiments/beast_fmri_test/images/V.png'></img>	89,71	2750.0	test	<img class = center src='/static/experiments/beast_fmri_test/images/redV.png'></img>	go	2000.0	2.0	30.0	go	non-target	V	89,Middle Finger	71,Index Finger	600.0	750.0	2200.0	2000.0	1.0	n/a	750.0	1.0	ITI
140688	500	n/a	-1	-1	500	0.0	fixation	poldrack-single-stim	457	1278419	0.0-19.31-0.31	beast_fmri_test	387	n/a	n/a	<div class = centerbox2><div class = fixation>+</div></div>	none	500.0	test	n/a	n/a	n/a	n/a	n/a	n/a	n/a	n/a	n/a	n/a	n/a	n/a	n/a	n/a	n/a	n/a	n/a	n/a	fixation
138706.84953800007	2750	n/a	847	89	2750	1983.150462	stim	stop-signal	458	1281171	0.0-19.31-1.31	beast_fmri_test	387	1278489,/,1279169,/,1279849,/,1280528,/,1281209,/,1281889,/,1282569,/	t,t,t,t,t,t,t	<img class = center src='/static/experiments/beast_fmri_test/images/V.png'></img>	89,71	2750.0	test	<img class = center src='/static/experiments/beast_fmri_test/images/redV.png'></img>	go	2150.0	2.0	31.0	go	target	V	89,Middle Finger	71,Index Finger	600.0	750.0	2150.0	2000.0	1.0	n/a	600.0	1.0	go_stim
141456.84953800007	1983.1504620000001	n/a	847	89	2750	1983.150462	stim	stop-signal	458	1281171	0.0-19.31-1.31	beast_fmri_test	387	1278489,/,1279169,/,1279849,/,1280528,/,1281209,/,1281889,/,1282569,/	t,t,t,t,t,t,t	<img class = center src='/static/experiments/beast_fmri_test/images/V.png'></img>	89,71	2750.0	test	<img class = center src='/static/experiments/beast_fmri_test/images/redV.png'></img>	go	2150.0	2.0	31.0	go	target	V	89,Middle Finger	71,Index Finger	600.0	750.0	2150.0	2000.0	1.0	n/a	600.0	1.0	ITI
145937	500	n/a	-1	-1	500	0.0	fixation	poldrack-single-stim	459	1283668	0.0-19.32-0.32	beast_fmri_test	387	1283249,/	t	<div class = centerbox2><div class = fixation>+</div></div>	none	500.0	test	n/a	n/a	n/a	n/a	n/a	n/a	n/a	n/a	n/a	n/a	n/a	n/a	n/a	n/a	n/a	n/a	n/a	n/a	fixation
145813.56054660003	750.0	n/a	677	71	2750	125.4394534	stim	stop-signal	460	1286420	0.0-19.32-1.32	beast_fmri_test	387	1283929,/,1284609,/,1285289,/,1285969,/	t,t,t,t	<img class = center src='/static/experiments/beast_fmri_test/images/D.png'></img>	89,71	2750.0	test	<img class = center src='/static/experiments/beast_fmri_test/images/redD.png'></img>	stop	2000.0	2.0	32.0	stop	non-target	D	89,Middle Finger	71,Index Finger	600.0	750.0	2150.0	2000.0	0.0	0.0	750.0	n/a	go_stim
147813.56054660003	2000.0	n/a	677	71	2750	125.4394534	stim	stop-signal	460	1286420	0.0-19.32-1.32	beast_fmri_test	387	1283929,/,1284609,/,1285289,/,1285969,/	t,t,t,t	<img class = center src='/static/experiments/beast_fmri_test/images/D.png'></img>	89,71	2750.0	test	<img class = center src='/static/experiments/beast_fmri_test/images/redD.png'></img>	stop	2000.0	2.0	32.0	stop	non-target	D	89,Middle Finger	71,Index Finger	600.0	750.0	2150.0	2000.0	0.0	0.0	750.0	n/a	stop_stim
148563.56054660003	125.4394534	n/a	677	71	2750	125.4394534	stim	stop-signal	460	1286420	0.0-19.32-1.32	beast_fmri_test	387	1283929,/,1284609,/,1285289,/,1285969,/	t,t,t,t	<img class = center src='/static/experiments/beast_fmri_test/images/D.png'></img>	89,71	2750.0	test	<img class = center src='/static/experiments/beast_fmri_test/images/redD.png'></img>	stop	2000.0	2.0	32.0	stop	non-target	D	89,Middle Finger	71,Index Finger	600.0	750.0	2150.0	2000.0	0.0	0.0	750.0	n/a	ITI
149331	500	n/a	-1	-1	500	0.0	fixation	poldrack-single-stim	461	1287062	0.0-19.33-0.33	beast_fmri_test	387	1286648,/	t	<div class = centerbox2><div class = fixation>+</div></div>	none	500.0	test	n/a	n/a	n/a	n/a	n/a	n/a	n/a	n/a	n/a	n/a	n/a	n/a	n/a	n/a	n/a	n/a	n/a	n/a	fixation
148902.64037379995	2750	n/a	968	89	2750	429.3596262	stim	stop-signal	462	1289813	0.0-19.33-1.33	beast_fmri_test	387	1287328,/,1288009,/,1288689,/,1289369,/,1290048,/	t,t,t,t,t	<img class = center src='/static/experiments/beast_fmri_test/images/V.png'></img>	89,71	2750.0	test	<img class = center src='/static/experiments/beast_fmri_test/images/redV.png'></img>	go	2150.0	2.0	33.0	go	target	V	89,Middle Finger	71,Index Finger	600.0	700.0	2150.0	2000.0	1.0	n/a	600.0	1.0	go_stim
151652.64037379995	429.35962620000004	n/a	968	89	2750	429.3596262	stim	stop-signal	462	1289813	0.0-19.33-1.33	beast_fmri_test	387	1287328,/,1288009,/,1288689,/,1289369,/,1290048,/	t,t,t,t,t	<img class = center src='/static/experiments/beast_fmri_test/images/V.png'></img>	89,71	2750.0	test	<img class = center src='/static/experiments/beast_fmri_test/images/redV.png'></img>	go	2150.0	2.0	33.0	go	target	V	89,Middle Finger	71,Index Finger	600.0	700.0	2150.0	2000.0	1.0	n/a	600.0	1.0	ITI
153027	500	n/a	-1	-1	500	0.0	fixation	poldrack-single-stim	463	1290758	0.0-19.34-0.34	beast_fmri_test	387	1290729,/	t	<div class = centerbox2><div class = fixation>+</div></div>	none	500.0	test	n/a	n/a	n/a	n/a	n/a	n/a	n/a	n/a	n/a	n/a	n/a	n/a	n/a	n/a	n/a	n/a	n/a	n/a	fixation
152102.27402970009	2750	n/a	790	71	2750	926.7259703	stim	stop-signal	464	1293510	0.0-19.34-1.34	beast_fmri_test	387	1291408,/,1292090,/,1292768,/,1293448,/,1294128,/	t,t,t,t,t	<img class = center src='/static/experiments/beast_fmri_test/images/T.png'></img>	89,71	2750.0	test	<img class = center src='/static/experiments/beast_fmri_test/images/redT.png'></img>	go	2050.0	2.0	34.0	go	non-target	T	89,Middle Finger	71,Index Finger	600.0	700.0	2150.0	2050.0	1.0	n/a	700.0	1.0	go_stim
154852.27402970009	926.72597029999997	n/a	790	71	2750	926.7259703	stim	stop-signal	464	1293510	0.0-19.34-1.34	beast_fmri_test	387	1291408,/,1292090,/,1292768,/,1293448,/,1294128,/	t,t,t,t,t	<img class = center src='/static/experiments/beast_fmri_test/images/T.png'></img>	89,71	2750.0	test	<img class = center src='/static/experiments/beast_fmri_test/images/redT.png'></img>	go	2050.0	2.0	34.0	go	non-target	T	89,Middle Finger	71,Index Finger	600.0	700.0	2150.0	2050.0	1.0	n/a	700.0	1.0	ITI
157220	500	n/a	-1	-1	500	0.0	fixation	poldrack-single-stim	465	1294951	0.0-19.35-0.35	beast_fmri_test	387	1294809,/	t	<div class = centerbox2><div class = fixation>+</div></div>	none	500.0	test	n/a	n/a	n/a	n/a	n/a	n/a	n/a	n/a	n/a	n/a	n/a	n/a	n/a	n/a	n/a	n/a	n/a	n/a	fixation
156816.92044780008	2750	n/a	714	71	2750	405.0795522	stim	stop-signal	466	1297703	0.0-19.35-1.35	beast_fmri_test	387	1295488,/,1296169,/,1296849,/,1297529,/	t,t,t,t	<img class = center src='/static/experiments/beast_fmri_test/images/B.png'></img>	89,71	2750.0	test	<img class = center src='/static/experiments/beast_fmri_test/images/redB.png'></img>	go	2050.0	2.0	35.0	go	non-target	B	89,Middle Finger	71,Index Finger	600.0	700.0	2150.0	2050.0	1.0	n/a	700.0	1.0	go_stim
159566.92044780008	405.07955219999997	n/a	714	71	2750	405.0795522	stim	stop-signal	466	1297703	0.0-19.35-1.35	beast_fmri_test	387	1295488,/,1296169,/,1296849,/,1297529,/	t,t,t,t	<img class = center src='/static/experiments/beast_fmri_test/images/B.png'></img>	89,71	2750.0	test	<img class = center src='/static/experiments/beast_fmri_test/images/redB.png'></img>	go	2050.0	2.0	35.0	go	non-target	B	89,Middle Finger	71,Index Finger	600.0	700.0	2150.0	2050.0	1.0	n/a	700.0	1.0	ITI
160892	500	n/a	-1	-1	500	0.0	fixation	poldrack-single-stim	467	1298623	0.0-19.36-0.36	beast_fmri_test	387	1298209,/	t	<div class = centerbox2><div class = fixation>+</div></div>	none	500.0	test	n/a	n/a	n/a	n/a	n/a	n/a	n/a	n/a	n/a	n/a	n/a	n/a	n/a	n/a	n/a	n/a	n/a	n/a	fixation
159013.93805900007	2750	n/a	879	71	2750	1880.061941	stim	stop-signal	468	1301375	0.0-19.36-1.36	beast_fmri_test	387	1298890,/,1299569,/,1300249,/,1300929,/,1301609,/,1302289,/,1302969,/	t,t,t,t,t,t,t	<img class = center src='/static/experiments/beast_fmri_test/images/P.png'></img>	89,71	2750.0	test	<img class = center src='/static/experiments/beast_fmri_test/images/redP.png'></img>	go	2050.0	2.0	36.0	go	non-target	P	89,Middle Finger	71,Index Finger	600.0	700.0	2150.0	2050.0	1.0	n/a	700.0	1.0	go_stim
161763.93805900007	1880.0619409999999	n/a	879	71	2750	1880.061941	stim	stop-signal	468	1301375	0.0-19.36-1.36	beast_fmri_test	387	1298890,/,1299569,/,1300249,/,1300929,/,1301609,/,1302289,/,1302969,/	t,t,t,t,t,t,t	<img class = center src='/static/experiments/beast_fmri_test/images/P.png'></img>	89,71	2750.0	test	<img class = center src='/static/experiments/beast_fmri_test/images/redP.png'></img>	go	2050.0	2.0	36.0	go	non-target	P	89,Middle Finger	71,Index Finger	600.0	700.0	2150.0	2050.0	1.0	n/a	700.0	1.0	ITI
166040	500	n/a	-1	-1	500	0.0	fixation	poldrack-single-stim	469	1303771	0.0-19.37-0.37	beast_fmri_test	387	1303649,/	t	<div class = centerbox2><div class = fixation>+</div></div>	none	500.0	test	n/a	n/a	n/a	n/a	n/a	n/a	n/a	n/a	n/a	n/a	n/a	n/a	n/a	n/a	n/a	n/a	n/a	n/a	fixation
164301.41978799994	600.0	n/a	590	89	2750	1740.580212	stim	stop-signal	470	1306523	0.0-19.37-1.37	beast_fmri_test	387	1304329,/,1305009,/,1305689,/,1306369,/,1307049,/,1307729,/	t,t,t,t,t,t	<img class = center src='/static/experiments/beast_fmri_test/images/B.png'></img>	89,71	2750.0	test	<img class = center src='/static/experiments/beast_fmri_test/images/redB.png'></img>	stop	2150.0	2.0	37.0	stop	target	B	89,Middle Finger	71,Index Finger	600.0	700.0	2150.0	2050.0	0.0	0.0	600.0	n/a	go_stim
166451.41978799994	2150.0	n/a	590	89	2750	1740.580212	stim	stop-signal	470	1306523	0.0-19.37-1.37	beast_fmri_test	387	1304329,/,1305009,/,1305689,/,1306369,/,1307049,/,1307729,/	t,t,t,t,t,t	<img class = center src='/static/experiments/beast_fmri_test/images/B.png'></img>	89,71	2750.0	test	<img class = center src='/static/experiments/beast_fmri_test/images/redB.png'></img>	stop	2150.0	2.0	37.0	stop	target	B	89,Middle Finger	71,Index Finger	600.0	700.0	2150.0	2050.0	0.0	0.0	600.0	n/a	stop_stim
167051.41978799994	1740.5802120000001	n/a	590	89	2750	1740.580212	stim	stop-signal	470	1306523	0.0-19.37-1.37	beast_fmri_test	387	1304329,/,1305009,/,1305689,/,1306369,/,1307049,/,1307729,/	t,t,t,t,t,t	<img class = center src='/static/experiments/beast_fmri_test/images/B.png'></img>	89,71	2750.0	test	<img class = center src='/static/experiments/beast_fmri_test/images/redB.png'></img>	stop	2150.0	2.0	37.0	stop	target	B	89,Middle Finger	71,Index Finger	600.0	700.0	2150.0	2050.0	0.0	0.0	600.0	n/a	ITI
171049	500	n/a	-1	-1	500	0.0	fixation	poldrack-single-stim	471	1308780	0.0-19.38-0.38	beast_fmri_test	387	1308409,/	t	<div class = centerbox2><div class = fixation>+</div></div>	none	500.0	test	n/a	n/a	n/a	n/a	n/a	n/a	n/a	n/a	n/a	n/a	n/a	n/a	n/a	n/a	n/a	n/a	n/a	n/a	fixation
170979.48879750003	2750	n/a	1024	89	2750	71.5112025	stim	stop-signal	472	1311532	0.0-19.38-1.38	beast_fmri_test	387	1309090,/,1309769,/,1310449,/,1311129,/	t,t,t,t	<img class = center src='/static/experiments/beast_fmri_test/images/P.png'></img>	89,71	2750.0	test	<img class = center src='/static/experiments/beast_fmri_test/images/redP.png'></img>	go	2200.0	2.0	38.0	go	target	P	89,Middle Finger	71,Index Finger	550.0	700.0	2200.0	2050.0	1.0	n/a	550.0	1.0	go_stim
173729.48879750003	71.511202499999996	n/a	1024	89	2750	71.5112025	stim	stop-signal	472	1311532	0.0-19.38-1.38	beast_fmri_test	387	1309090,/,1309769,/,1310449,/,1311129,/	t,t,t,t	<img class = center src='/static/experiments/beast_fmri_test/images/P.png'></img>	89,71	2750.0	test	<img class = center src='/static/experiments/beast_fmri_test/images/redP.png'></img>	go	2200.0	2.0	38.0	go	target	P	89,Middle Finger	71,Index Finger	550.0	700.0	2200.0	2050.0	1.0	n/a	550.0	1.0	ITI
174388	500	n/a	-1	-1	500	0.0	fixation	poldrack-single-stim	473	1312119	0.0-19.39-0.39	beast_fmri_test	387	1311809,/	t	<div class = centerbox2><div class = fixation>+</div></div>	none	500.0	test	n/a	n/a	n/a	n/a	n/a	n/a	n/a	n/a	n/a	n/a	n/a	n/a	n/a	n/a	n/a	n/a	n/a	n/a	fixation
171582.13558600005	700.0	n/a	871	71	2750	2807.864414	stim	stop-signal	474	1314871	0.0-19.39-1.39	beast_fmri_test	387	1312489,/,1313169,/,1313848,/,1314528,/,1315209,/,1315889,/,1316569,/,1317249,/	t,t,t,t,t,t,t,t	<img class = center src='/static/experiments/beast_fmri_test/images/V.png'></img>	89,71	2750.0	test	<img class = center src='/static/experiments/beast_fmri_test/images/redV.png'></img>	stop	2050.0	2.0	39.0	stop	non-target	V	89,Middle Finger	71,Index Finger	550.0	700.0	2200.0	2050.0	0.0	0.0	700.0	n/a	go_stim
173632.13558600005	2050.0	n/a	871	71	2750	2807.864414	stim	stop-signal	474	1314871	0.0-19.39-1.39	beast_fmri_test	387	1312489,/,1313169,/,1313848,/,1314528,/,1315209,/,1315889,/,1316569,/,1317249,/	t,t,t,t,t,t,t,t	<img class = center src='/static/experiments/beast_fmri_test/images/V.png'></img>	89,71	2750.0	test	<img class = center src='/static/experiments/beast_fmri_test/images/redV.png'></img>	stop	2050.0	2.0	39.0	stop	non-target	V	89,Middle Finger	71,Index Finger	550.0	700.0	2200.0	2050.0	0.0	0.0	700.0	n/a	stop_stim
174332.13558600005	2807.8644140000001	n/a	871	71	2750	2807.864414	stim	stop-signal	474	1314871	0.0-19.39-1.39	beast_fmri_test	387	1312489,/,1313169,/,1313848,/,1314528,/,1315209,/,1315889,/,1316569,/,1317249,/	t,t,t,t,t,t,t,t	<img class = center src='/static/experiments/beast_fmri_test/images/V.png'></img>	89,71	2750.0	test	<img class = center src='/static/experiments/beast_fmri_test/images/redV.png'></img>	stop	2050.0	2.0	39.0	stop	non-target	V	89,Middle Finger	71,Index Finger	550.0	700.0	2200.0	2050.0	0.0	0.0	700.0	n/a	ITI
180465	500	n/a	-1	-1	500	0.0	fixation	poldrack-single-stim	475	1318196	0.0-19.40-0.40	beast_fmri_test	387	1317929,/	t	<div class = centerbox2><div class = fixation>+</div></div>	none	500.0	test	n/a	n/a	n/a	n/a	n/a	n/a	n/a	n/a	n/a	n/a	n/a	n/a	n/a	n/a	n/a	n/a	n/a	n/a	fixation
179824.28787699994	2750	n/a	671	71	2750	642.712123	stim	stop-signal	476	1320948	0.0-19.40-1.40	beast_fmri_test	387	1318609,/,1319289,/,1319968,/,1320649,/,1321328,/	t,t,t,t,t	<img class = center src='/static/experiments/beast_fmri_test/images/T.png'></img>	89,71	2750.0	test	<img class = center src='/static/experiments/beast_fmri_test/images/redT.png'></img>	go	2100.0	2.0	40.0	go	non-target	T	89,Middle Finger	71,Index Finger	550.0	650.0	2200.0	2100.0	1.0	n/a	650.0	1.0	go_stim
182574.28787699994	642.71212300000002	n/a	671	71	2750	642.712123	stim	stop-signal	476	1320948	0.0-19.40-1.40	beast_fmri_test	387	1318609,/,1319289,/,1319968,/,1320649,/,1321328,/	t,t,t,t,t	<img class = center src='/static/experiments/beast_fmri_test/images/T.png'></img>	89,71	2750.0	test	<img class = center src='/static/experiments/beast_fmri_test/images/redT.png'></img>	go	2100.0	2.0	40.0	go	non-target	T	89,Middle Finger	71,Index Finger	550.0	650.0	2200.0	2100.0	1.0	n/a	650.0	1.0	ITI
184379	500	n/a	-1	-1	500	0.0	fixation	poldrack-single-stim	477	1322110	0.0-19.41-0.41	beast_fmri_test	387	1322009,/	t	<div class = centerbox2><div class = fixation>+</div></div>	none	500.0	test	n/a	n/a	n/a	n/a	n/a	n/a	n/a	n/a	n/a	n/a	n/a	n/a	n/a	n/a	n/a	n/a	n/a	n/a	fixation
184044.16830940009	650.0	n/a	712	71	2750	336.8316906	stim	stop-signal	478	1324862	0.0-19.41-1.41	beast_fmri_test	387	1322688,/,1323368,/,1324048,/,1324728,/	t,t,t,t	<img class = center src='/static/experiments/beast_fmri_test/images/D.png'></img>	89,71	2750.0	test	<img class = center src='/static/experiments/beast_fmri_test/images/redD.png'></img>	stop	2100.0	2.0	41.0	stop	non-target	D	89,Middle Finger	71,Index Finger	550.0	650.0	2200.0	2100.0	0.0	0.0	650.0	n/a	go_stim
186144.16830940009	2100.0	n/a	712	71	2750	336.8316906	stim	stop-signal	478	1324862	0.0-19.41-1.41	beast_fmri_test	387	1322688,/,1323368,/,1324048,/,1324728,/	t,t,t,t	<img class = center src='/static/experiments/beast_fmri_test/images/D.png'></img>	89,71	2750.0	test	<img class = center src='/static/experiments/beast_fmri_test/images/redD.png'></img>	stop	2100.0	2.0	41.0	stop	non-target	D	89,Middle Finger	71,Index Finger	550.0	650.0	2200.0	2100.0	0.0	0.0	650.0	n/a	stop_stim
186794.16830940009	336.83169060000006	n/a	712	71	2750	336.8316906	stim	stop-signal	478	1324862	0.0-19.41-1.41	beast_fmri_test	387	1322688,/,1323368,/,1324048,/,1324728,/	t,t,t,t	<img class = center src='/static/experiments/beast_fmri_test/images/D.png'></img>	89,71	2750.0	test	<img class = center src='/static/experiments/beast_fmri_test/images/redD.png'></img>	stop	2100.0	2.0	41.0	stop	non-target	D	89,Middle Finger	71,Index Finger	550.0	650.0	2200.0	2100.0	0.0	0.0	650.0	n/a	ITI
187982	500	n/a	-1	-1	500	0.0	fixation	poldrack-single-stim	479	1325713	0.0-19.42-0.42	beast_fmri_test	387	1325408,/	t	<div class = centerbox2><div class = fixation>+</div></div>	none	500.0	test	n/a	n/a	n/a	n/a	n/a	n/a	n/a	n/a	n/a	n/a	n/a	n/a	n/a	n/a	n/a	n/a	n/a	n/a	fixation
186589.71615800005	2750	n/a	664	89	2750	1395.283842	stim	stop-signal	480	1328466	0.0-19.42-1.42	beast_fmri_test	387	1326089,/,1326768,/,1327448,/,1328128,/,1328808,/,1329490,/	t,t,t,t,t,t	<img class = center src='/static/experiments/beast_fmri_test/images/T.png'></img>	89,71	2750.0	test	<img class = center src='/static/experiments/beast_fmri_test/images/redT.png'></img>	go	2200.0	2.0	42.0	go	target	T	89,Middle Finger	71,Index Finger	550.0	600.0	2200.0	2100.0	1.0	n/a	550.0	1.0	go_stim
189339.71615800005	1395.283842	n/a	664	89	2750	1395.283842	stim	stop-signal	480	1328466	0.0-19.42-1.42	beast_fmri_test	387	1326089,/,1326768,/,1327448,/,1328128,/,1328808,/,1329490,/	t,t,t,t,t,t	<img class = center src='/static/experiments/beast_fmri_test/images/T.png'></img>	89,71	2750.0	test	<img class = center src='/static/experiments/beast_fmri_test/images/redT.png'></img>	go	2200.0	2.0	42.0	go	target	T	89,Middle Finger	71,Index Finger	550.0	600.0	2200.0	2100.0	1.0	n/a	550.0	1.0	ITI
192648	500	n/a	-1	-1	500	0.0	fixation	poldrack-single-stim	481	1330379	0.0-19.43-0.43	beast_fmri_test	387	1330170,/	t	<div class = centerbox2><div class = fixation>+</div></div>	none	500.0	test	n/a	n/a	n/a	n/a	n/a	n/a	n/a	n/a	n/a	n/a	n/a	n/a	n/a	n/a	n/a	n/a	n/a	n/a	fixation
192520.08442769991	2750	n/a	1048	71	2750	129.9155723	stim	stop-signal	482	1333131	0.0-19.43-1.43	beast_fmri_test	387	1330849,/,1331529,/,1332209,/,1332889,/	t,t,t,t	<img class = center src='/static/experiments/beast_fmri_test/images/V.png'></img>	89,71	2750.0	test	<img class = center src='/static/experiments/beast_fmri_test/images/redV.png'></img>	go	2150.0	2.0	43.0	go	non-target	V	89,Middle Finger	71,Index Finger	550.0	600.0	2200.0	2150.0	1.0	n/a	600.0	1.0	go_stim
195270.08442769991	129.91557230000001	n/a	1048	71	2750	129.9155723	stim	stop-signal	482	1333131	0.0-19.43-1.43	beast_fmri_test	387	1330849,/,1331529,/,1332209,/,1332889,/	t,t,t,t	<img class = center src='/static/experiments/beast_fmri_test/images/V.png'></img>	89,71	2750.0	test	<img class = center src='/static/experiments/beast_fmri_test/images/redV.png'></img>	go	2150.0	2.0	43.0	go	non-target	V	89,Middle Finger	71,Index Finger	550.0	600.0	2200.0	2150.0	1.0	n/a	600.0	1.0	ITI
196048	500	n/a	-1	-1	500	0.0	fixation	poldrack-single-stim	483	1333779	0.0-19.44-0.44	beast_fmri_test	387	1333569,/	t	<div class = centerbox2><div class = fixation>+</div></div>	none	500.0	test	n/a	n/a	n/a	n/a	n/a	n/a	n/a	n/a	n/a	n/a	n/a	n/a	n/a	n/a	n/a	n/a	n/a	n/a	fixation
195496.26635739999	2750	n/a	1177	71	2750	554.7336426	stim	stop-signal	484	1336532	0.0-19.44-1.44	beast_fmri_test	387	1334249,/,1334929,/,1335609,/,1336289,/,1336969,/	t,t,t,t,t	<img class = center src='/static/experiments/beast_fmri_test/images/P.png'></img>	89,71	2750.0	test	<img class = center src='/static/experiments/beast_fmri_test/images/redP.png'></img>	go	2150.0	2.0	44.0	go	non-target	P	89,Middle Finger	71,Index Finger	550.0	600.0	2200.0	2150.0	1.0	n/a	600.0	1.0	go_stim
198246.26635739999	554.73364260000005	n/a	1177	71	2750	554.7336426	stim	stop-signal	484	1336532	0.0-19.44-1.44	beast_fmri_test	387	1334249,/,1334929,/,1335609,/,1336289,/,1336969,/	t,t,t,t,t	<img class = center src='/static/experiments/beast_fmri_test/images/P.png'></img>	89,71	2750.0	test	<img class = center src='/static/experiments/beast_fmri_test/images/redP.png'></img>	go	2150.0	2.0	44.0	go	non-target	P	89,Middle Finger	71,Index Finger	550.0	600.0	2200.0	2150.0	1.0	n/a	600.0	1.0	ITI
199870	500	n/a	-1	-1	500	0.0	fixation	poldrack-single-stim	485	1337601	0.0-19.45-0.45	beast_fmri_test	387	n/a	n/a	<div class = centerbox2><div class = fixation>+</div></div>	none	500.0	test	n/a	n/a	n/a	n/a	n/a	n/a	n/a	n/a	n/a	n/a	n/a	n/a	n/a	n/a	n/a	n/a	n/a	n/a	fixation
197971.47186199995	2750	n/a	516	89	2750	1900.528138	stim	stop-signal	486	1340353	0.0-19.45-1.45	beast_fmri_test	387	1337649,/,1338329,/,1339009,/,1339690,/,1340369,/,1341049,/,1341729,/	t,t,t,t,t,t,t	<img class = center src='/static/experiments/beast_fmri_test/images/V.png'></img>	89,71	2750.0	test	<img class = center src='/static/experiments/beast_fmri_test/images/redV.png'></img>	go	2200.0	2.0	45.0	go	target	V	89,Middle Finger	71,Index Finger	550.0	600.0	2200.0	2150.0	1.0	n/a	550.0	1.0	go_stim
200721.47186199995	1900.5281379999999	n/a	516	89	2750	1900.528138	stim	stop-signal	486	1340353	0.0-19.45-1.45	beast_fmri_test	387	1337649,/,1338329,/,1339009,/,1339690,/,1340369,/,1341049,/,1341729,/	t,t,t,t,t,t,t	<img class = center src='/static/experiments/beast_fmri_test/images/V.png'></img>	89,71	2750.0	test	<img class = center src='/static/experiments/beast_fmri_test/images/redV.png'></img>	go	2200.0	2.0	45.0	go	target	V	89,Middle Finger	71,Index Finger	550.0	600.0	2200.0	2150.0	1.0	n/a	550.0	1.0	ITI
205037	500	n/a	-1	-1	500	0.0	fixation	poldrack-single-stim	487	1342768	0.0-19.46-0.46	beast_fmri_test	387	1342409,/	t	<div class = centerbox2><div class = fixation>+</div></div>	none	500.0	test	n/a	n/a	n/a	n/a	n/a	n/a	n/a	n/a	n/a	n/a	n/a	n/a	n/a	n/a	n/a	n/a	n/a	n/a	fixation
204096.44795050006	2750	n/a	646	71	2750	943.5520495	stim	stop-signal	488	1345521	0.0-19.46-1.46	beast_fmri_test	387	1343088,/,1343769,/,1344449,/,1345129,/,1345809,/	t,t,t,t,t	<img class = center src='/static/experiments/beast_fmri_test/images/V.png'></img>	89,71	2750.0	test	<img class = center src='/static/experiments/beast_fmri_test/images/redV.png'></img>	go	2150.0	2.0	46.0	go	non-target	V	89,Middle Finger	71,Index Finger	550.0	600.0	2200.0	2150.0	1.0	n/a	600.0	1.0	go_stim
206846.44795050006	943.55204949999995	n/a	646	71	2750	943.5520495	stim	stop-signal	488	1345521	0.0-19.46-1.46	beast_fmri_test	387	1343088,/,1343769,/,1344449,/,1345129,/,1345809,/	t,t,t,t,t	<img class = center src='/static/experiments/beast_fmri_test/images/V.png'></img>	89,71	2750.0	test	<img class = center src='/static/experiments/beast_fmri_test/images/redV.png'></img>	go	2150.0	2.0	46.0	go	non-target	V	89,Middle Finger	71,Index Finger	550.0	600.0	2200.0	2150.0	1.0	n/a	600.0	1.0	ITI
223749	15000	n/a	-1	-1	15000	0.0	practice-no-stop-feedback	poldrack-single-stim	489	1361480	0.0-20.0	beast_fmri_test	387	1346488,/,1347168,/,1347849,/,1348529,/,1349209,/,1349889,/,1350569,/,1351248,/,1351929,/,1352608,/,1353289,/,1353969,/,1354649,/,1355328,/,1356009,/,1356689,/,1357369,/,1358048,/,1358729,/,1359408,/,1360089,/,1360768,/,1361449,/	t,t,t,t,t,t,t,t,t,t,t,t,t,t,t,t,t,t,t,t,t,t,t	"<div class = ""centerbox2_2""><p class = ""block-text2"">Your delay is 3 trials.</p><p class = block-text2>Please wait for the scanner to start the block</p></div>"	77	15000.0	n/a	n/a	n/a	n/a	n/a	n/a	n/a	n/a	n/a	n/a	n/a	n/a	n/a	n/a	n/a	n/a	n/a	n/a	n/a	practice-no-stop-feedback
224251	500	n/a	-1	-1	500	0.0	fixation	poldrack-single-stim	490	1361982	0.0-21.0-0.0	beast_fmri_test	387	n/a	n/a	<div class = centerbox2><div class = fixation>+</div></div>	none	500.0	test	n/a	n/a	n/a	n/a	n/a	n/a	n/a	n/a	n/a	n/a	n/a	n/a	n/a	n/a	n/a	n/a	n/a	n/a	fixation
223612.5880909001	2750	n/a	743	71	2750	640.4119091	stim	stop-signal	491	1364734	0.0-21.0-1.0	beast_fmri_test	387	1362129,/,1362809,/,1363489,/,1364169,/,1364849,/	t,t,t,t,t	<img class = center src='/static/experiments/beast_fmri_test/images/P.png'></img>	89,71	2750.0	test	<img class = center src='/static/experiments/beast_fmri_test/images/redP.png'></img>	go	-1.0	3.0	0.0	go	temp-non-target	P	89,Middle Finger	71,Index Finger	550.0	600.0	2200.0	2150.0	0.0	n/a	n/a	n/a	go_stim
226362.5880909001	640.4119091	n/a	743	71	2750	640.4119091	stim	stop-signal	491	1364734	0.0-21.0-1.0	beast_fmri_test	387	1362129,/,1362809,/,1363489,/,1364169,/,1364849,/	t,t,t,t,t	<img class = center src='/static/experiments/beast_fmri_test/images/P.png'></img>	89,71	2750.0	test	<img class = center src='/static/experiments/beast_fmri_test/images/redP.png'></img>	go	-1.0	3.0	0.0	go	temp-non-target	P	89,Middle Finger	71,Index Finger	550.0	600.0	2200.0	2150.0	0.0	n/a	n/a	n/a	ITI
228159	500	n/a	-1	-1	500	0.0	fixation	poldrack-single-stim	492	1365890	0.0-21.1-0.1	beast_fmri_test	387	1365529,/	t	<div class = centerbox2><div class = fixation>+</div></div>	none	500.0	test	n/a	n/a	n/a	n/a	n/a	n/a	n/a	n/a	n/a	n/a	n/a	n/a	n/a	n/a	n/a	n/a	n/a	n/a	fixation
226523.50944099994	2750	n/a	737	71	2750	1638.490559	stim	stop-signal	493	1368643	0.0-21.1-1.1	beast_fmri_test	387	1366209,/,1366889,/,1367569,/,1368249,/,1368929,/,1369609,/	t,t,t,t,t,t	<img class = center src='/static/experiments/beast_fmri_test/images/B.png'></img>	89,71	2750.0	test	<img class = center src='/static/experiments/beast_fmri_test/images/redB.png'></img>	go	-1.0	3.0	1.0	go	temp-non-target	B	89,Middle Finger	71,Index Finger	550.0	600.0	2200.0	2150.0	0.0	n/a	n/a	n/a	go_stim
229273.50944099994	1638.4905590000001	n/a	737	71	2750	1638.490559	stim	stop-signal	493	1368643	0.0-21.1-1.1	beast_fmri_test	387	1366209,/,1366889,/,1367569,/,1368249,/,1368929,/,1369609,/	t,t,t,t,t,t	<img class = center src='/static/experiments/beast_fmri_test/images/B.png'></img>	89,71	2750.0	test	<img class = center src='/static/experiments/beast_fmri_test/images/redB.png'></img>	go	-1.0	3.0	1.0	go	temp-non-target	B	89,Middle Finger	71,Index Finger	550.0	600.0	2200.0	2150.0	0.0	n/a	n/a	n/a	ITI
233068	500	n/a	-1	-1	500	0.0	fixation	poldrack-single-stim	494	1370799	0.0-21.2-0.2	beast_fmri_test	387	1370298,/	t	<div class = centerbox2><div class = fixation>+</div></div>	none	500.0	test	n/a	n/a	n/a	n/a	n/a	n/a	n/a	n/a	n/a	n/a	n/a	n/a	n/a	n/a	n/a	n/a	n/a	n/a	fixation
232748.80228090007	temp_go_duration	n/a	1106	71	2750	321.1977191	stim	stop-signal	495	1373551	0.0-21.2-1.2	beast_fmri_test	387	1370969,/,1371649,/,1372329,/,1373009,/,1373689,/	t,t,t,t,t	<img class = center src='/static/experiments/beast_fmri_test/images/B.png'></img>	89,71	2750.0	test	<img class = center src='/static/experiments/beast_fmri_test/images/redB.png'></img>	stop	-1.0	3.0	2.0	stop	temp-non-target	B	89,Middle Finger	71,Index Finger	550.0	600.0	2200.0	2150.0	0.0	0.0	n/a	n/a	go_stim
temp-non-target	temp_stop_duration	n/a	1106	71	2750	321.1977191	stim	stop-signal	495	1373551	0.0-21.2-1.2	beast_fmri_test	387	1370969,/,1371649,/,1372329,/,1373009,/,1373689,/	t,t,t,t,t	<img class = center src='/static/experiments/beast_fmri_test/images/B.png'></img>	89,71	2750.0	test	<img class = center src='/static/experiments/beast_fmri_test/images/redB.png'></img>	stop	-1.0	3.0	2.0	stop	temp-non-target	B	89,Middle Finger	71,Index Finger	550.0	600.0	2200.0	2150.0	0.0	0.0	n/a	n/a	stop_stim
235498.80228090007	321.19771910000003	n/a	1106	71	2750	321.1977191	stim	stop-signal	495	1373551	0.0-21.2-1.2	beast_fmri_test	387	1370969,/,1371649,/,1372329,/,1373009,/,1373689,/	t,t,t,t,t	<img class = center src='/static/experiments/beast_fmri_test/images/B.png'></img>	89,71	2750.0	test	<img class = center src='/static/experiments/beast_fmri_test/images/redB.png'></img>	stop	-1.0	3.0	2.0	stop	temp-non-target	B	89,Middle Finger	71,Index Finger	550.0	600.0	2200.0	2150.0	0.0	0.0	n/a	n/a	ITI
236658	500	n/a	-1	-1	500	0.0	fixation	poldrack-single-stim	496	1374389	0.0-21.3-0.3	beast_fmri_test	387	1374369,/	t	<div class = centerbox2><div class = fixation>+</div></div>	none	500.0	test	n/a	n/a	n/a	n/a	n/a	n/a	n/a	n/a	n/a	n/a	n/a	n/a	n/a	n/a	n/a	n/a	n/a	n/a	fixation
236582.45956254005	600.0	n/a	-1	-1	2750	77.54043746	stim	stop-signal	497	1377141	0.0-21.3-1.3	beast_fmri_test	387	1375049,/,1375729,/,1376409,/,1377089,/	t,t,t,t	<img class = center src='/static/experiments/beast_fmri_test/images/D.png'></img>	89,71	2750.0	test	<img class = center src='/static/experiments/beast_fmri_test/images/redD.png'></img>	stop	2150.0	3.0	3.0	stop	non-target	D	89,Middle Finger	71,Index Finger	550.0	600.0	2200.0	2150.0	0.0	1.0	600.0	n/a	go_stim
238732.45956254005	2150.0	n/a	-1	-1	2750	77.54043746	stim	stop-signal	497	1377141	0.0-21.3-1.3	beast_fmri_test	387	1375049,/,1375729,/,1376409,/,1377089,/	t,t,t,t	<img class = center src='/static/experiments/beast_fmri_test/images/D.png'></img>	89,71	2750.0	test	<img class = center src='/static/experiments/beast_fmri_test/images/redD.png'></img>	stop	2150.0	3.0	3.0	stop	non-target	D	89,Middle Finger	71,Index Finger	550.0	600.0	2200.0	2150.0	0.0	1.0	600.0	n/a	stop_stim
239332.45956254005	77.540437460000007	n/a	-1	-1	2750	77.54043746	stim	stop-signal	497	1377141	0.0-21.3-1.3	beast_fmri_test	387	1375049,/,1375729,/,1376409,/,1377089,/	t,t,t,t	<img class = center src='/static/experiments/beast_fmri_test/images/D.png'></img>	89,71	2750.0	test	<img class = center src='/static/experiments/beast_fmri_test/images/redD.png'></img>	stop	2150.0	3.0	3.0	stop	non-target	D	89,Middle Finger	71,Index Finger	550.0	600.0	2200.0	2150.0	0.0	1.0	600.0	n/a	ITI
240003	500	n/a	-1	-1	500	0.0	fixation	poldrack-single-stim	498	1377734	0.0-21.4-0.4	beast_fmri_test	387	n/a	n/a	<div class = centerbox2><div class = fixation>+</div></div>	none	500.0	test	n/a	n/a	n/a	n/a	n/a	n/a	n/a	n/a	n/a	n/a	n/a	n/a	n/a	n/a	n/a	n/a	n/a	n/a	fixation
239581.26402410003	2750	n/a	2386	71	2750	422.7359759	stim	stop-signal	499	1380485	0.0-21.4-1.4	beast_fmri_test	387	1377769,/,1378449,/,1379129,/,1379809,/,1380489,/	t,t,t,t,t	<img class = center src='/static/experiments/beast_fmri_test/images/V.png'></img>	89,71	2750.0	test	<img class = center src='/static/experiments/beast_fmri_test/images/redV.png'></img>	go	2100.0	3.0	4.0	go	non-target	V	89,Middle Finger	71,Index Finger	550.0	650.0	2200.0	2100.0	1.0	n/a	650.0	1.0	go_stim
242331.26402410003	422.73597589999997	n/a	2386	71	2750	422.7359759	stim	stop-signal	499	1380485	0.0-21.4-1.4	beast_fmri_test	387	1377769,/,1378449,/,1379129,/,1379809,/,1380489,/	t,t,t,t,t	<img class = center src='/static/experiments/beast_fmri_test/images/V.png'></img>	89,71	2750.0	test	<img class = center src='/static/experiments/beast_fmri_test/images/redV.png'></img>	go	2100.0	3.0	4.0	go	non-target	V	89,Middle Finger	71,Index Finger	550.0	650.0	2200.0	2100.0	1.0	n/a	650.0	1.0	ITI
243696	500	n/a	-1	-1	500	0.0	fixation	poldrack-single-stim	500	1381427	0.0-21.5-0.5	beast_fmri_test	387	1381169,/	t	<div class = centerbox2><div class = fixation>+</div></div>	none	500.0	test	n/a	n/a	n/a	n/a	n/a	n/a	n/a	n/a	n/a	n/a	n/a	n/a	n/a	n/a	n/a	n/a	n/a	n/a	fixation
243634.61454963009	2750	n/a	1167	89	2750	62.38545037	stim	stop-signal	501	1384178	0.0-21.5-1.5	beast_fmri_test	387	1381849,/,1382529,/,1383208,/,1383889,/	t,t,t,t	<img class = center src='/static/experiments/beast_fmri_test/images/B.png'></img>	89,71	2750.0	test	<img class = center src='/static/experiments/beast_fmri_test/images/redB.png'></img>	go	2200.0	3.0	5.0	go	target	B	89,Middle Finger	71,Index Finger	550.0	650.0	2200.0	2100.0	1.0	n/a	550.0	1.0	go_stim
246384.61454963009	62.385450370000001	n/a	1167	89	2750	62.38545037	stim	stop-signal	501	1384178	0.0-21.5-1.5	beast_fmri_test	387	1381849,/,1382529,/,1383208,/,1383889,/	t,t,t,t	<img class = center src='/static/experiments/beast_fmri_test/images/B.png'></img>	89,71	2750.0	test	<img class = center src='/static/experiments/beast_fmri_test/images/redB.png'></img>	go	2200.0	3.0	5.0	go	target	B	89,Middle Finger	71,Index Finger	550.0	650.0	2200.0	2100.0	1.0	n/a	550.0	1.0	ITI
247028	500	n/a	-1	-1	500	0.0	fixation	poldrack-single-stim	502	1384759	0.0-21.6-0.6	beast_fmri_test	387	1384569,/	t	<div class = centerbox2><div class = fixation>+</div></div>	none	500.0	test	n/a	n/a	n/a	n/a	n/a	n/a	n/a	n/a	n/a	n/a	n/a	n/a	n/a	n/a	n/a	n/a	n/a	n/a	fixation
246756.0225939001	650.0	n/a	-1	-1	2750	273.9774061	stim	stop-signal	503	1387511	0.0-21.6-1.6	beast_fmri_test	387	1385249,/,1385929,/,1386609,/,1387288,/	t,t,t,t	<img class = center src='/static/experiments/beast_fmri_test/images/T.png'></img>	89,71	2750.0	test	<img class = center src='/static/experiments/beast_fmri_test/images/redT.png'></img>	stop	2100.0	3.0	6.0	stop	non-target	T	89,Middle Finger	71,Index Finger	550.0	650.0	2200.0	2100.0	0.0	1.0	650.0	n/a	go_stim
248856.0225939001	2100.0	n/a	-1	-1	2750	273.9774061	stim	stop-signal	503	1387511	0.0-21.6-1.6	beast_fmri_test	387	1385249,/,1385929,/,1386609,/,1387288,/	t,t,t,t	<img class = center src='/static/experiments/beast_fmri_test/images/T.png'></img>	89,71	2750.0	test	<img class = center src='/static/experiments/beast_fmri_test/images/redT.png'></img>	stop	2100.0	3.0	6.0	stop	non-target	T	89,Middle Finger	71,Index Finger	550.0	650.0	2200.0	2100.0	0.0	1.0	650.0	n/a	stop_stim
249506.0225939001	273.9774061	n/a	-1	-1	2750	273.9774061	stim	stop-signal	503	1387511	0.0-21.6-1.6	beast_fmri_test	387	1385249,/,1385929,/,1386609,/,1387288,/	t,t,t,t	<img class = center src='/static/experiments/beast_fmri_test/images/T.png'></img>	89,71	2750.0	test	<img class = center src='/static/experiments/beast_fmri_test/images/redT.png'></img>	stop	2100.0	3.0	6.0	stop	non-target	T	89,Middle Finger	71,Index Finger	550.0	650.0	2200.0	2100.0	0.0	1.0	650.0	n/a	ITI
250570	500	n/a	-1	-1	500	0.0	fixation	poldrack-single-stim	504	1388301	0.0-21.7-0.7	beast_fmri_test	387	1387969,/	t	<div class = centerbox2><div class = fixation>+</div></div>	none	500.0	test	n/a	n/a	n/a	n/a	n/a	n/a	n/a	n/a	n/a	n/a	n/a	n/a	n/a	n/a	n/a	n/a	n/a	n/a	fixation
245572.0	2750	n/a	1069	71	2750	5000.0	stim	stop-signal	505	1391053	0.0-21.7-1.7	beast_fmri_test	387	1388649,/,1389328,/,1390008,/,1390689,/,1391368,/,1392048,/,1392728,/,1393408,/,1394088,/,1394768,/,1395449,/	t,t,t,t,t,t,t,t,t,t,t	<img class = center src='/static/experiments/beast_fmri_test/images/V.png'></img>	89,71	2750.0	test	<img class = center src='/static/experiments/beast_fmri_test/images/redV.png'></img>	go	2200.0	3.0	7.0	go	target	V	89,Middle Finger	71,Index Finger	550.0	700.0	2200.0	2100.0	0.0	n/a	550.0	0.0	go_stim
248322.0	5000.0	n/a	1069	71	2750	5000.0	stim	stop-signal	505	1391053	0.0-21.7-1.7	beast_fmri_test	387	1388649,/,1389328,/,1390008,/,1390689,/,1391368,/,1392048,/,1392728,/,1393408,/,1394088,/,1394768,/,1395449,/	t,t,t,t,t,t,t,t,t,t,t	<img class = center src='/static/experiments/beast_fmri_test/images/V.png'></img>	89,71	2750.0	test	<img class = center src='/static/experiments/beast_fmri_test/images/redV.png'></img>	go	2200.0	3.0	7.0	go	target	V	89,Middle Finger	71,Index Finger	550.0	700.0	2200.0	2100.0	0.0	n/a	550.0	0.0	ITI
258839	500	n/a	-1	-1	500	0.0	fixation	poldrack-single-stim	506	1396570	0.0-21.8-0.8	beast_fmri_test	387	1396129,/	t	<div class = centerbox2><div class = fixation>+</div></div>	none	500.0	test	n/a	n/a	n/a	n/a	n/a	n/a	n/a	n/a	n/a	n/a	n/a	n/a	n/a	n/a	n/a	n/a	n/a	n/a	fixation
258776.0045829399	700.0	n/a	-1	-1	2750	65.99541706	stim	stop-signal	507	1399323	0.0-21.8-1.8	beast_fmri_test	387	1396809,/,1397489,/,1398169,/,1398849,/	t,t,t,t	<img class = center src='/static/experiments/beast_fmri_test/images/T.png'></img>	89,71	2750.0	test	<img class = center src='/static/experiments/beast_fmri_test/images/redT.png'></img>	stop	2050.0	3.0	8.0	stop	non-target	T	89,Middle Finger	71,Index Finger	550.0	700.0	2200.0	2050.0	0.0	1.0	700.0	n/a	go_stim
260826.0045829399	2050.0	n/a	-1	-1	2750	65.99541706	stim	stop-signal	507	1399323	0.0-21.8-1.8	beast_fmri_test	387	1396809,/,1397489,/,1398169,/,1398849,/	t,t,t,t	<img class = center src='/static/experiments/beast_fmri_test/images/T.png'></img>	89,71	2750.0	test	<img class = center src='/static/experiments/beast_fmri_test/images/redT.png'></img>	stop	2050.0	3.0	8.0	stop	non-target	T	89,Middle Finger	71,Index Finger	550.0	700.0	2200.0	2050.0	0.0	1.0	700.0	n/a	stop_stim
261526.0045829399	65.995417059999994	n/a	-1	-1	2750	65.99541706	stim	stop-signal	507	1399323	0.0-21.8-1.8	beast_fmri_test	387	1396809,/,1397489,/,1398169,/,1398849,/	t,t,t,t	<img class = center src='/static/experiments/beast_fmri_test/images/T.png'></img>	89,71	2750.0	test	<img class = center src='/static/experiments/beast_fmri_test/images/redT.png'></img>	stop	2050.0	3.0	8.0	stop	non-target	T	89,Middle Finger	71,Index Finger	550.0	700.0	2200.0	2050.0	0.0	1.0	700.0	n/a	ITI
262172	500	n/a	-1	-1	500	0.0	fixation	poldrack-single-stim	508	1399903	0.0-21.9-0.9	beast_fmri_test	387	1399529,/	t	<div class = centerbox2><div class = fixation>+</div></div>	none	500.0	test	n/a	n/a	n/a	n/a	n/a	n/a	n/a	n/a	n/a	n/a	n/a	n/a	n/a	n/a	n/a	n/a	n/a	n/a	fixation
261725.21516039991	750.0	n/a	942	71	2750	448.7848396	stim	stop-signal	509	1402655	0.0-21.9-1.9	beast_fmri_test	387	1400209,/,1400889,/,1401569,/,1402249,/,1402929,/	t,t,t,t,t	<img class = center src='/static/experiments/beast_fmri_test/images/P.png'></img>	89,71	2750.0	test	<img class = center src='/static/experiments/beast_fmri_test/images/redP.png'></img>	stop	2000.0	3.0	9.0	stop	non-target	P	89,Middle Finger	71,Index Finger	550.0	750.0	2200.0	2000.0	0.0	0.0	750.0	n/a	go_stim
263725.21516039991	2000.0	n/a	942	71	2750	448.7848396	stim	stop-signal	509	1402655	0.0-21.9-1.9	beast_fmri_test	387	1400209,/,1400889,/,1401569,/,1402249,/,1402929,/	t,t,t,t,t	<img class = center src='/static/experiments/beast_fmri_test/images/P.png'></img>	89,71	2750.0	test	<img class = center src='/static/experiments/beast_fmri_test/images/redP.png'></img>	stop	2000.0	3.0	9.0	stop	non-target	P	89,Middle Finger	71,Index Finger	550.0	750.0	2200.0	2000.0	0.0	0.0	750.0	n/a	stop_stim
264475.21516039991	448.78483960000005	n/a	942	71	2750	448.7848396	stim	stop-signal	509	1402655	0.0-21.9-1.9	beast_fmri_test	387	1400209,/,1400889,/,1401569,/,1402249,/,1402929,/	t,t,t,t,t	<img class = center src='/static/experiments/beast_fmri_test/images/P.png'></img>	89,71	2750.0	test	<img class = center src='/static/experiments/beast_fmri_test/images/redP.png'></img>	stop	2000.0	3.0	9.0	stop	non-target	P	89,Middle Finger	71,Index Finger	550.0	750.0	2200.0	2000.0	0.0	0.0	750.0	n/a	ITI
265887	500	n/a	-1	-1	500	0.0	fixation	poldrack-single-stim	510	1403618	0.0-21.10-0.10	beast_fmri_test	387	1403609,/	t	<div class = centerbox2><div class = fixation>+</div></div>	none	500.0	test	n/a	n/a	n/a	n/a	n/a	n/a	n/a	n/a	n/a	n/a	n/a	n/a	n/a	n/a	n/a	n/a	n/a	n/a	fixation
265492.04552499996	550.0	n/a	-1	-1	2750	396.954475	stim	stop-signal	511	1406370	0.0-21.10-1.10	beast_fmri_test	387	1404289,/,1404969,/,1405649,/,1406329,/	t,t,t,t	<img class = center src='/static/experiments/beast_fmri_test/images/V.png'></img>	89,71	2750.0	test	<img class = center src='/static/experiments/beast_fmri_test/images/redV.png'></img>	stop	2200.0	3.0	10.0	stop	target	V	89,Middle Finger	71,Index Finger	550.0	700.0	2200.0	2000.0	0.0	1.0	550.0	n/a	go_stim
267692.04552499996	2200.0	n/a	-1	-1	2750	396.954475	stim	stop-signal	511	1406370	0.0-21.10-1.10	beast_fmri_test	387	1404289,/,1404969,/,1405649,/,1406329,/	t,t,t,t	<img class = center src='/static/experiments/beast_fmri_test/images/V.png'></img>	89,71	2750.0	test	<img class = center src='/static/experiments/beast_fmri_test/images/redV.png'></img>	stop	2200.0	3.0	10.0	stop	target	V	89,Middle Finger	71,Index Finger	550.0	700.0	2200.0	2000.0	0.0	1.0	550.0	n/a	stop_stim
268242.04552499996	396.954475	n/a	-1	-1	2750	396.954475	stim	stop-signal	511	1406370	0.0-21.10-1.10	beast_fmri_test	387	1404289,/,1404969,/,1405649,/,1406329,/	t,t,t,t	<img class = center src='/static/experiments/beast_fmri_test/images/V.png'></img>	89,71	2750.0	test	<img class = center src='/static/experiments/beast_fmri_test/images/redV.png'></img>	stop	2200.0	3.0	10.0	stop	target	V	89,Middle Finger	71,Index Finger	550.0	700.0	2200.0	2000.0	0.0	1.0	550.0	n/a	ITI
269553	500	n/a	-1	-1	500	0.0	fixation	poldrack-single-stim	512	1407284	0.0-21.11-0.11	beast_fmri_test	387	1407009,/	t	<div class = centerbox2><div class = fixation>+</div></div>	none	500.0	test	n/a	n/a	n/a	n/a	n/a	n/a	n/a	n/a	n/a	n/a	n/a	n/a	n/a	n/a	n/a	n/a	n/a	n/a	fixation
269294.48413689993	2750	n/a	744	89	2750	260.5158631	stim	stop-signal	513	1410036	0.0-21.11-1.11	beast_fmri_test	387	1407689,/,1408369,/,1409049,/,1409729,/	t,t,t,t	<img class = center src='/static/experiments/beast_fmri_test/images/T.png'></img>	89,71	2750.0	test	<img class = center src='/static/experiments/beast_fmri_test/images/redT.png'></img>	go	2150.0	3.0	11.0	go	target	T	89,Middle Finger	71,Index Finger	600.0	700.0	2150.0	2000.0	1.0	n/a	600.0	1.0	go_stim
272044.48413689993	260.51586309999999	n/a	744	89	2750	260.5158631	stim	stop-signal	513	1410036	0.0-21.11-1.11	beast_fmri_test	387	1407689,/,1408369,/,1409049,/,1409729,/	t,t,t,t	<img class = center src='/static/experiments/beast_fmri_test/images/T.png'></img>	89,71	2750.0	test	<img class = center src='/static/experiments/beast_fmri_test/images/redT.png'></img>	go	2150.0	3.0	11.0	go	target	T	89,Middle Finger	71,Index Finger	600.0	700.0	2150.0	2000.0	1.0	n/a	600.0	1.0	ITI
273087	500	n/a	-1	-1	500	0.0	fixation	poldrack-single-stim	514	1410818	0.0-21.12-0.12	beast_fmri_test	387	1410409,/	t	<div class = centerbox2><div class = fixation>+</div></div>	none	500.0	test	n/a	n/a	n/a	n/a	n/a	n/a	n/a	n/a	n/a	n/a	n/a	n/a	n/a	n/a	n/a	n/a	n/a	n/a	fixation
272132.35012879991	2750	n/a	1316	71	2750	956.6498712	stim	stop-signal	515	1413570	0.0-21.12-1.12	beast_fmri_test	387	1411090,/,1411769,/,1412449,/,1413129,/,1413809,/,1414489,/	t,t,t,t,t,t	<img class = center src='/static/experiments/beast_fmri_test/images/P.png'></img>	89,71	2750.0	test	<img class = center src='/static/experiments/beast_fmri_test/images/redP.png'></img>	go	2150.0	3.0	12.0	go	target	P	89,Middle Finger	71,Index Finger	600.0	700.0	2150.0	2000.0	0.0	n/a	600.0	0.0	go_stim
274882.35012879991	956.64987120000012	n/a	1316	71	2750	956.6498712	stim	stop-signal	515	1413570	0.0-21.12-1.12	beast_fmri_test	387	1411090,/,1411769,/,1412449,/,1413129,/,1413809,/,1414489,/	t,t,t,t,t,t	<img class = center src='/static/experiments/beast_fmri_test/images/P.png'></img>	89,71	2750.0	test	<img class = center src='/static/experiments/beast_fmri_test/images/redP.png'></img>	go	2150.0	3.0	12.0	go	target	P	89,Middle Finger	71,Index Finger	600.0	700.0	2150.0	2000.0	0.0	n/a	600.0	0.0	ITI
277315	500	n/a	-1	-1	500	0.0	fixation	poldrack-single-stim	516	1415046	0.0-21.13-0.13	beast_fmri_test	387	n/a	n/a	<div class = centerbox2><div class = fixation>+</div></div>	none	500.0	test	n/a	n/a	n/a	n/a	n/a	n/a	n/a	n/a	n/a	n/a	n/a	n/a	n/a	n/a	n/a	n/a	n/a	n/a	fixation
276846.94258649996	2750	n/a	1981	71	2750	470.0574135	stim	stop-signal	517	1417798	0.0-21.13-1.13	beast_fmri_test	387	1415169,/,1415849,/,1416529,/,1417208,/,1417889,/	t,t,t,t,t	<img class = center src='/static/experiments/beast_fmri_test/images/P.png'></img>	89,71	2750.0	test	<img class = center src='/static/experiments/beast_fmri_test/images/redP.png'></img>	go	2050.0	3.0	13.0	go	non-target	P	89,Middle Finger	71,Index Finger	600.0	700.0	2150.0	2050.0	1.0	n/a	700.0	1.0	go_stim
279596.94258649996	470.0574135	n/a	1981	71	2750	470.0574135	stim	stop-signal	517	1417798	0.0-21.13-1.13	beast_fmri_test	387	1415169,/,1415849,/,1416529,/,1417208,/,1417889,/	t,t,t,t,t	<img class = center src='/static/experiments/beast_fmri_test/images/P.png'></img>	89,71	2750.0	test	<img class = center src='/static/experiments/beast_fmri_test/images/redP.png'></img>	go	2050.0	3.0	13.0	go	non-target	P	89,Middle Finger	71,Index Finger	600.0	700.0	2150.0	2050.0	1.0	n/a	700.0	1.0	ITI
281057	500	n/a	-1	-1	500	0.0	fixation	poldrack-single-stim	518	1418788	0.0-21.14-0.14	beast_fmri_test	387	1418569,/	t	<div class = centerbox2><div class = fixation>+</div></div>	none	500.0	test	n/a	n/a	n/a	n/a	n/a	n/a	n/a	n/a	n/a	n/a	n/a	n/a	n/a	n/a	n/a	n/a	n/a	n/a	fixation
280283.37204500008	700.0	n/a	-1	-1	2750	775.627955	stim	stop-signal	519	1421540	0.0-21.14-1.14	beast_fmri_test	387	1419249,/,1419928,/,1420609,/,1421289,/,1421968,/	t,t,t,t,t	<img class = center src='/static/experiments/beast_fmri_test/images/P.png'></img>	89,71	2750.0	test	<img class = center src='/static/experiments/beast_fmri_test/images/redP.png'></img>	stop	2050.0	3.0	14.0	stop	non-target	P	89,Middle Finger	71,Index Finger	600.0	700.0	2150.0	2050.0	0.0	1.0	700.0	n/a	go_stim
282333.37204500008	2050.0	n/a	-1	-1	2750	775.627955	stim	stop-signal	519	1421540	0.0-21.14-1.14	beast_fmri_test	387	1419249,/,1419928,/,1420609,/,1421289,/,1421968,/	t,t,t,t,t	<img class = center src='/static/experiments/beast_fmri_test/images/P.png'></img>	89,71	2750.0	test	<img class = center src='/static/experiments/beast_fmri_test/images/redP.png'></img>	stop	2050.0	3.0	14.0	stop	non-target	P	89,Middle Finger	71,Index Finger	600.0	700.0	2150.0	2050.0	0.0	1.0	700.0	n/a	stop_stim
283033.37204500008	775.62795499999993	n/a	-1	-1	2750	775.627955	stim	stop-signal	519	1421540	0.0-21.14-1.14	beast_fmri_test	387	1419249,/,1419928,/,1420609,/,1421289,/,1421968,/	t,t,t,t,t	<img class = center src='/static/experiments/beast_fmri_test/images/P.png'></img>	89,71	2750.0	test	<img class = center src='/static/experiments/beast_fmri_test/images/redP.png'></img>	stop	2050.0	3.0	14.0	stop	non-target	P	89,Middle Finger	71,Index Finger	600.0	700.0	2150.0	2050.0	0.0	1.0	700.0	n/a	ITI
285100	500	n/a	-1	-1	500	0.0	fixation	poldrack-single-stim	520	1422831	0.0-21.15-0.15	beast_fmri_test	387	1422648,/	t	<div class = centerbox2><div class = fixation>+</div></div>	none	500.0	test	n/a	n/a	n/a	n/a	n/a	n/a	n/a	n/a	n/a	n/a	n/a	n/a	n/a	n/a	n/a	n/a	n/a	n/a	fixation
284967.08515150007	2750	n/a	1385	71	2750	134.9148485	stim	stop-signal	521	1425583	0.0-21.15-1.15	beast_fmri_test	387	1423329,/,1424008,/,1424688,/,1425368,/	t,t,t,t	<img class = center src='/static/experiments/beast_fmri_test/images/V.png'></img>	89,71	2750.0	test	<img class = center src='/static/experiments/beast_fmri_test/images/redV.png'></img>	go	2000.0	3.0	15.0	go	non-target	V	89,Middle Finger	71,Index Finger	600.0	750.0	2150.0	2000.0	1.0	n/a	750.0	1.0	go_stim
287717.08515150007	134.91484850000001	n/a	1385	71	2750	134.9148485	stim	stop-signal	521	1425583	0.0-21.15-1.15	beast_fmri_test	387	1423329,/,1424008,/,1424688,/,1425368,/	t,t,t,t	<img class = center src='/static/experiments/beast_fmri_test/images/V.png'></img>	89,71	2750.0	test	<img class = center src='/static/experiments/beast_fmri_test/images/redV.png'></img>	go	2000.0	3.0	15.0	go	non-target	V	89,Middle Finger	71,Index Finger	600.0	750.0	2150.0	2000.0	1.0	n/a	750.0	1.0	ITI
288503	500	n/a	-1	-1	500	0.0	fixation	poldrack-single-stim	522	1426234	0.0-21.16-0.16	beast_fmri_test	387	1426049,/	t	<div class = centerbox2><div class = fixation>+</div></div>	none	500.0	test	n/a	n/a	n/a	n/a	n/a	n/a	n/a	n/a	n/a	n/a	n/a	n/a	n/a	n/a	n/a	n/a	n/a	n/a	fixation
285938.89315199992	600.0	n/a	681	89	2750	2566.106848	stim	stop-signal	523	1428986	0.0-21.16-1.16	beast_fmri_test	387	1426729,/,1427409,/,1428089,/,1428769,/,1429449,/,1430129,/,1430809,/,1431490,/	t,t,t,t,t,t,t,t	<img class = center src='/static/experiments/beast_fmri_test/images/P.png'></img>	89,71	2750.0	test	<img class = center src='/static/experiments/beast_fmri_test/images/redP.png'></img>	stop	2150.0	3.0	16.0	stop	target	P	89,Middle Finger	71,Index Finger	600.0	750.0	2150.0	2000.0	0.0	0.0	600.0	n/a	go_stim
288088.89315199992	2150.0	n/a	681	89	2750	2566.106848	stim	stop-signal	523	1428986	0.0-21.16-1.16	beast_fmri_test	387	1426729,/,1427409,/,1428089,/,1428769,/,1429449,/,1430129,/,1430809,/,1431490,/	t,t,t,t,t,t,t,t	<img class = center src='/static/experiments/beast_fmri_test/images/P.png'></img>	89,71	2750.0	test	<img class = center src='/static/experiments/beast_fmri_test/images/redP.png'></img>	stop	2150.0	3.0	16.0	stop	target	P	89,Middle Finger	71,Index Finger	600.0	750.0	2150.0	2000.0	0.0	0.0	600.0	n/a	stop_stim
288688.89315199992	2566.1068479999999	n/a	681	89	2750	2566.106848	stim	stop-signal	523	1428986	0.0-21.16-1.16	beast_fmri_test	387	1426729,/,1427409,/,1428089,/,1428769,/,1429449,/,1430129,/,1430809,/,1431490,/	t,t,t,t,t,t,t,t	<img class = center src='/static/experiments/beast_fmri_test/images/P.png'></img>	89,71	2750.0	test	<img class = center src='/static/experiments/beast_fmri_test/images/redP.png'></img>	stop	2150.0	3.0	16.0	stop	target	P	89,Middle Finger	71,Index Finger	600.0	750.0	2150.0	2000.0	0.0	0.0	600.0	n/a	ITI
294338	500	n/a	-1	-1	500	0.0	fixation	poldrack-single-stim	524	1432069	0.0-21.17-0.17	beast_fmri_test	387	n/a	n/a	<div class = centerbox2><div class = fixation>+</div></div>	none	500.0	test	n/a	n/a	n/a	n/a	n/a	n/a	n/a	n/a	n/a	n/a	n/a	n/a	n/a	n/a	n/a	n/a	n/a	n/a	fixation
291548.73521699989	2750	n/a	970	71	2750	2792.264783	stim	stop-signal	525	1434822	0.0-21.17-1.17	beast_fmri_test	387	1432169,/,1432849,/,1433529,/,1434209,/,1434889,/,1435569,/,1436249,/,1436929,/,1437609,/	t,t,t,t,t,t,t,t,t	<img class = center src='/static/experiments/beast_fmri_test/images/D.png'></img>	89,71	2750.0	test	<img class = center src='/static/experiments/beast_fmri_test/images/redD.png'></img>	go	2000.0	3.0	17.0	go	non-target	D	89,Middle Finger	71,Index Finger	550.0	750.0	2150.0	2000.0	1.0	n/a	750.0	1.0	go_stim
294298.73521699989	2792.2647829999996	n/a	970	71	2750	2792.264783	stim	stop-signal	525	1434822	0.0-21.17-1.17	beast_fmri_test	387	1432169,/,1432849,/,1433529,/,1434209,/,1434889,/,1435569,/,1436249,/,1436929,/,1437609,/	t,t,t,t,t,t,t,t,t	<img class = center src='/static/experiments/beast_fmri_test/images/D.png'></img>	89,71	2750.0	test	<img class = center src='/static/experiments/beast_fmri_test/images/redD.png'></img>	go	2000.0	3.0	17.0	go	non-target	D	89,Middle Finger	71,Index Finger	550.0	750.0	2150.0	2000.0	1.0	n/a	750.0	1.0	ITI
300398	500	n/a	-1	-1	500	0.0	fixation	poldrack-single-stim	526	1438129	0.0-21.18-0.18	beast_fmri_test	387	n/a	n/a	<div class = centerbox2><div class = fixation>+</div></div>	none	500.0	test	n/a	n/a	n/a	n/a	n/a	n/a	n/a	n/a	n/a	n/a	n/a	n/a	n/a	n/a	n/a	n/a	n/a	n/a	fixation
300145.32667839993	2750	n/a	1049	71	2750	254.6733216	stim	stop-signal	527	1440881	0.0-21.18-1.18	beast_fmri_test	387	1438289,/,1438969,/,1439649,/,1440328,/,1441009,/	t,t,t,t,t	<img class = center src='/static/experiments/beast_fmri_test/images/T.png'></img>	89,71	2750.0	test	<img class = center src='/static/experiments/beast_fmri_test/images/redT.png'></img>	go	2000.0	3.0	18.0	go	non-target	T	89,Middle Finger	71,Index Finger	550.0	750.0	2150.0	2000.0	1.0	n/a	750.0	1.0	go_stim
302895.32667839993	254.67332160000001	n/a	1049	71	2750	254.6733216	stim	stop-signal	527	1440881	0.0-21.18-1.18	beast_fmri_test	387	1438289,/,1438969,/,1439649,/,1440328,/,1441009,/	t,t,t,t,t	<img class = center src='/static/experiments/beast_fmri_test/images/T.png'></img>	89,71	2750.0	test	<img class = center src='/static/experiments/beast_fmri_test/images/redT.png'></img>	go	2000.0	3.0	18.0	go	non-target	T	89,Middle Finger	71,Index Finger	550.0	750.0	2150.0	2000.0	1.0	n/a	750.0	1.0	ITI
303921	500	n/a	-1	-1	500	0.0	fixation	poldrack-single-stim	528	1441652	0.0-21.19-0.19	beast_fmri_test	387	n/a	n/a	<div class = centerbox2><div class = fixation>+</div></div>	none	500.0	test	n/a	n/a	n/a	n/a	n/a	n/a	n/a	n/a	n/a	n/a	n/a	n/a	n/a	n/a	n/a	n/a	n/a	n/a	fixation
303822.92499030009	2750	n/a	1219	71	2750	100.0750097	stim	stop-signal	529	1444404	0.0-21.19-1.19	beast_fmri_test	387	1441689,/,1442369,/,1443049,/,1443729,/,1444409,/	t,t,t,t,t	<img class = center src='/static/experiments/beast_fmri_test/images/T.png'></img>	89,71	2750.0	test	<img class = center src='/static/experiments/beast_fmri_test/images/redT.png'></img>	go	2000.0	3.0	19.0	go	non-target	T	89,Middle Finger	71,Index Finger	550.0	750.0	2150.0	2000.0	1.0	n/a	750.0	1.0	go_stim
306572.92499030009	100.07500970000001	n/a	1219	71	2750	100.0750097	stim	stop-signal	529	1444404	0.0-21.19-1.19	beast_fmri_test	387	1441689,/,1442369,/,1443049,/,1443729,/,1444409,/	t,t,t,t,t	<img class = center src='/static/experiments/beast_fmri_test/images/T.png'></img>	89,71	2750.0	test	<img class = center src='/static/experiments/beast_fmri_test/images/redT.png'></img>	go	2000.0	3.0	19.0	go	non-target	T	89,Middle Finger	71,Index Finger	550.0	750.0	2150.0	2000.0	1.0	n/a	750.0	1.0	ITI
307294	500	n/a	-1	-1	500	0.0	fixation	poldrack-single-stim	530	1445025	0.0-21.20-0.20	beast_fmri_test	387	n/a	n/a	<div class = centerbox2><div class = fixation>+</div></div>	none	500.0	test	n/a	n/a	n/a	n/a	n/a	n/a	n/a	n/a	n/a	n/a	n/a	n/a	n/a	n/a	n/a	n/a	n/a	n/a	fixation
307295.99834192591	2750	n/a	1235	89	2750	0.001658074	stim	stop-signal	531	1447777	0.0-21.20-1.20	beast_fmri_test	387	1445089,/,1445769,/,1446449,/,1447129,/	t,t,t,t	<img class = center src='/static/experiments/beast_fmri_test/images/V.png'></img>	89,71	2750.0	test	<img class = center src='/static/experiments/beast_fmri_test/images/redV.png'></img>	go	2000.0	3.0	20.0	go	non-target	V	89,Middle Finger	71,Index Finger	550.0	750.0	2150.0	2000.0	0.0	n/a	750.0	0.0	go_stim
310045.99834192591	0.001658074	n/a	1235	89	2750	0.001658074	stim	stop-signal	531	1447777	0.0-21.20-1.20	beast_fmri_test	387	1445089,/,1445769,/,1446449,/,1447129,/	t,t,t,t	<img class = center src='/static/experiments/beast_fmri_test/images/V.png'></img>	89,71	2750.0	test	<img class = center src='/static/experiments/beast_fmri_test/images/redV.png'></img>	go	2000.0	3.0	20.0	go	non-target	V	89,Middle Finger	71,Index Finger	550.0	750.0	2150.0	2000.0	0.0	n/a	750.0	0.0	ITI
310566	500	n/a	-1	-1	500	0.0	fixation	poldrack-single-stim	532	1448297	0.0-21.21-0.21	beast_fmri_test	387	1447808,/	t	<div class = centerbox2><div class = fixation>+</div></div>	none	500.0	test	n/a	n/a	n/a	n/a	n/a	n/a	n/a	n/a	n/a	n/a	n/a	n/a	n/a	n/a	n/a	n/a	n/a	n/a	fixation
309775.69477239996	2750	n/a	1257	71	2750	791.3052276	stim	stop-signal	533	1451048	0.0-21.21-1.21	beast_fmri_test	387	1448488,/,1449169,/,1449848,/,1450529,/,1451208,/	t,t,t,t,t	<img class = center src='/static/experiments/beast_fmri_test/images/P.png'></img>	89,71	2750.0	test	<img class = center src='/static/experiments/beast_fmri_test/images/redP.png'></img>	go	2000.0	3.0	21.0	go	non-target	P	89,Middle Finger	71,Index Finger	550.0	750.0	2150.0	2000.0	1.0	n/a	750.0	1.0	go_stim
312525.69477239996	791.30522760000008	n/a	1257	71	2750	791.3052276	stim	stop-signal	533	1451048	0.0-21.21-1.21	beast_fmri_test	387	1448488,/,1449169,/,1449848,/,1450529,/,1451208,/	t,t,t,t,t	<img class = center src='/static/experiments/beast_fmri_test/images/P.png'></img>	89,71	2750.0	test	<img class = center src='/static/experiments/beast_fmri_test/images/redP.png'></img>	go	2000.0	3.0	21.0	go	non-target	P	89,Middle Finger	71,Index Finger	550.0	750.0	2150.0	2000.0	1.0	n/a	750.0	1.0	ITI
314631	500	n/a	-1	-1	500	0.0	fixation	poldrack-single-stim	534	1452362	0.0-21.22-0.22	beast_fmri_test	387	1451890,/	t	<div class = centerbox2><div class = fixation>+</div></div>	none	500.0	test	n/a	n/a	n/a	n/a	n/a	n/a	n/a	n/a	n/a	n/a	n/a	n/a	n/a	n/a	n/a	n/a	n/a	n/a	fixation
