onset	duration	text	rt	key_press	block_duration	timing_post_trial	trial_id	trial_type	trial_index	time_elapsed	internal_node_id	exp_id	subject_id	trigger_times	triggers	stimulus	possible_responses	stim_duration	exp_stage	SS_stimulus	SS_trial_type	SS_duration	load	trial_num	stop_trial_type	adaptive_trial_type	stim	yes_response_key	no_response_key	SSD_target	SSD_non_target	SSTarget	SSNonTarget	go_acc	stop_acc	SS_delay	adaptive_acc	new_trial_type
test	10880	n/a	-1	-1	10880	0.0	practice-no-stop-feedback	poldrack-single-stim	6	164908	0.0-6.0	beast_fmri_test	387	154028,/,154707,/,155387,/,156067,/,156747,/,157427,/,158107,/,158787,/,159467,/,160147,/,160827,/,161508,/,162187,/,162867,/,163547,/,164227,/,164907,/	t,t,t,t,t,t,t,t,t,t,t,t,t,t,t,t,t	"<div class = ""centerbox2_2""><p class = ""block-text2"">Your delay is 2 trials.</p><p class = block-text2>Please wait for the scanner to start the block</p></div>"	77	10880.0	n/a	n/a	n/a	n/a	n/a	n/a	n/a	n/a	n/a	n/a	n/a	n/a	n/a	n/a	n/a	n/a	n/a	n/a	n/a	start_functional_block
11383	500	n/a	-1	-1	500	0.0	fixation	poldrack-single-stim	7	165411	0.0-7.0-0.0	beast_fmri_test	387	n/a	n/a	<div class = centerbox2><div class = fixation>+</div></div>	none	500.0	test	n/a	n/a	n/a	n/a	n/a	n/a	n/a	n/a	n/a	n/a	n/a	n/a	n/a	n/a	n/a	n/a	n/a	n/a	fixation
9688.079155000014	temp_go_duration	n/a	856	71	2750	1698.920845	stim	stop-signal	8	168165	0.0-7.0-1.0	beast_fmri_test	387	165587,/,166267,/,166947,/,167627,/,168307,/,168987,/,169667,/	t,t,t,t,t,t,t	<img class = center src='/static/experiments/beast_fmri_test/images/D.png'></img>	89,71	2750.0	test	<img class = center src='/static/experiments/beast_fmri_test/images/redD.png'></img>	stop	-1.0	2.0	0.0	stop	temp-non-target	D	89,Middle Finger	71,Index Finger	500.0	500.0	0.0	0.0	0.0	0.0	n/a	n/a	go_stim
temp-non-target	temp_stop_duration	n/a	856	71	2750	1698.920845	stim	stop-signal	8	168165	0.0-7.0-1.0	beast_fmri_test	387	165587,/,166267,/,166947,/,167627,/,168307,/,168987,/,169667,/	t,t,t,t,t,t,t	<img class = center src='/static/experiments/beast_fmri_test/images/D.png'></img>	89,71	2750.0	test	<img class = center src='/static/experiments/beast_fmri_test/images/redD.png'></img>	stop	-1.0	2.0	0.0	stop	temp-non-target	D	89,Middle Finger	71,Index Finger	500.0	500.0	0.0	0.0	0.0	0.0	n/a	n/a	stop_stim
12438.079155000014	1698.9208449999999	n/a	856	71	2750	1698.920845	stim	stop-signal	8	168165	0.0-7.0-1.0	beast_fmri_test	387	165587,/,166267,/,166947,/,167627,/,168307,/,168987,/,169667,/	t,t,t,t,t,t,t	<img class = center src='/static/experiments/beast_fmri_test/images/D.png'></img>	89,71	2750.0	test	<img class = center src='/static/experiments/beast_fmri_test/images/redD.png'></img>	stop	-1.0	2.0	0.0	stop	temp-non-target	D	89,Middle Finger	71,Index Finger	500.0	500.0	0.0	0.0	0.0	0.0	n/a	n/a	ITI
16340	500	n/a	-1	-1	500	0.0	fixation	poldrack-single-stim	9	170368	0.0-7.1-0.1	beast_fmri_test	387	170347,/	t	<div class = centerbox2><div class = fixation>+</div></div>	none	500.0	test	n/a	n/a	n/a	n/a	n/a	n/a	n/a	n/a	n/a	n/a	n/a	n/a	n/a	n/a	n/a	n/a	n/a	n/a	fixation
14528.968022999994	2750	n/a	951	71	2750	1813.031977	stim	stop-signal	10	173120	0.0-7.1-1.1	beast_fmri_test	387	171027,/,171707,/,172386,/,173066,/,173746,/,174426,/	t,t,t,t,t,t	<img class = center src='/static/experiments/beast_fmri_test/images/D.png'></img>	89,71	2750.0	test	<img class = center src='/static/experiments/beast_fmri_test/images/redD.png'></img>	go	-1.0	2.0	1.0	go	temp-non-target	D	89,Middle Finger	71,Index Finger	500.0	500.0	0.0	0.0	0.0	n/a	n/a	n/a	go_stim
17278.968022999994	1813.0319769999999	n/a	951	71	2750	1813.031977	stim	stop-signal	10	173120	0.0-7.1-1.1	beast_fmri_test	387	171027,/,171707,/,172386,/,173066,/,173746,/,174426,/	t,t,t,t,t,t	<img class = center src='/static/experiments/beast_fmri_test/images/D.png'></img>	89,71	2750.0	test	<img class = center src='/static/experiments/beast_fmri_test/images/redD.png'></img>	go	-1.0	2.0	1.0	go	temp-non-target	D	89,Middle Finger	71,Index Finger	500.0	500.0	0.0	0.0	0.0	n/a	n/a	n/a	ITI
21409	500	n/a	-1	-1	500	0.0	fixation	poldrack-single-stim	11	175437	0.0-7.2-0.2	beast_fmri_test	387	175107,/	t	<div class = centerbox2><div class = fixation>+</div></div>	none	500.0	test	n/a	n/a	n/a	n/a	n/a	n/a	n/a	n/a	n/a	n/a	n/a	n/a	n/a	n/a	n/a	n/a	n/a	n/a	fixation
18554.308427999989	2750	n/a	874	71	2750	2857.691572	stim	stop-signal	12	178190	0.0-7.2-1.2	beast_fmri_test	387	175787,/,176467,/,177146,/,177827,/,178506,/,179187,/,179868,/,180547,/	t,t,t,t,t,t,t,t	<img class = center src='/static/experiments/beast_fmri_test/images/V.png'></img>	89,71	2750.0	test	<img class = center src='/static/experiments/beast_fmri_test/images/redV.png'></img>	go	2250.0	2.0	2.0	go	non-target	V	89,Middle Finger	71,Index Finger	500.0	500.0	0.0	2250.0	1.0	n/a	500.0	1.0	go_stim
21304.308427999989	2857.6915719999997	n/a	874	71	2750	2857.691572	stim	stop-signal	12	178190	0.0-7.2-1.2	beast_fmri_test	387	175787,/,176467,/,177146,/,177827,/,178506,/,179187,/,179868,/,180547,/	t,t,t,t,t,t,t,t	<img class = center src='/static/experiments/beast_fmri_test/images/V.png'></img>	89,71	2750.0	test	<img class = center src='/static/experiments/beast_fmri_test/images/redV.png'></img>	go	2250.0	2.0	2.0	go	non-target	V	89,Middle Finger	71,Index Finger	500.0	500.0	0.0	2250.0	1.0	n/a	500.0	1.0	ITI
27523	500	n/a	-1	-1	500	0.0	fixation	poldrack-single-stim	13	181551	0.0-7.3-0.3	beast_fmri_test	387	181227,/	t	<div class = centerbox2><div class = fixation>+</div></div>	none	500.0	test	n/a	n/a	n/a	n/a	n/a	n/a	n/a	n/a	n/a	n/a	n/a	n/a	n/a	n/a	n/a	n/a	n/a	n/a	fixation
27449.895992059988	500.0	n/a	756	71	2750	75.10400794	stim	stop-signal	14	184303	0.0-7.3-1.3	beast_fmri_test	387	181908,/,182587,/,183268,/,183947,/	t,t,t,t	<img class = center src='/static/experiments/beast_fmri_test/images/B.png'></img>	89,71	2750.0	test	<img class = center src='/static/experiments/beast_fmri_test/images/redB.png'></img>	stop	2250.0	2.0	3.0	stop	non-target	B	89,Middle Finger	71,Index Finger	500.0	500.0	0.0	2250.0	0.0	0.0	500.0	n/a	go_stim
29699.895992059988	2250.0	n/a	756	71	2750	75.10400794	stim	stop-signal	14	184303	0.0-7.3-1.3	beast_fmri_test	387	181908,/,182587,/,183268,/,183947,/	t,t,t,t	<img class = center src='/static/experiments/beast_fmri_test/images/B.png'></img>	89,71	2750.0	test	<img class = center src='/static/experiments/beast_fmri_test/images/redB.png'></img>	stop	2250.0	2.0	3.0	stop	non-target	B	89,Middle Finger	71,Index Finger	500.0	500.0	0.0	2250.0	0.0	0.0	500.0	n/a	stop_stim
30199.895992059988	75.104007940000002	n/a	756	71	2750	75.10400794	stim	stop-signal	14	184303	0.0-7.3-1.3	beast_fmri_test	387	181908,/,182587,/,183268,/,183947,/	t,t,t,t	<img class = center src='/static/experiments/beast_fmri_test/images/B.png'></img>	89,71	2750.0	test	<img class = center src='/static/experiments/beast_fmri_test/images/redB.png'></img>	stop	2250.0	2.0	3.0	stop	non-target	B	89,Middle Finger	71,Index Finger	500.0	500.0	0.0	2250.0	0.0	0.0	500.0	n/a	ITI
30854	500	n/a	-1	-1	500	0.0	fixation	poldrack-single-stim	15	184882	0.0-7.4-0.4	beast_fmri_test	387	184628,/	t	<div class = centerbox2><div class = fixation>+</div></div>	none	500.0	test	n/a	n/a	n/a	n/a	n/a	n/a	n/a	n/a	n/a	n/a	n/a	n/a	n/a	n/a	n/a	n/a	n/a	n/a	fixation
28927.386832999997	450.0	n/a	802	71	2750	1929.613167	stim	stop-signal	16	187635	0.0-7.4-1.4	beast_fmri_test	387	185307,/,185987,/,186667,/,187347,/,188027,/,188707,/,189387,/	t,t,t,t,t,t,t	<img class = center src='/static/experiments/beast_fmri_test/images/T.png'></img>	89,71	2750.0	test	<img class = center src='/static/experiments/beast_fmri_test/images/redT.png'></img>	stop	2300.0	2.0	4.0	stop	non-target	T	89,Middle Finger	71,Index Finger	500.0	450.0	0.0	2300.0	0.0	0.0	450.0	n/a	go_stim
31227.386832999997	2300.0	n/a	802	71	2750	1929.613167	stim	stop-signal	16	187635	0.0-7.4-1.4	beast_fmri_test	387	185307,/,185987,/,186667,/,187347,/,188027,/,188707,/,189387,/	t,t,t,t,t,t,t	<img class = center src='/static/experiments/beast_fmri_test/images/T.png'></img>	89,71	2750.0	test	<img class = center src='/static/experiments/beast_fmri_test/images/redT.png'></img>	stop	2300.0	2.0	4.0	stop	non-target	T	89,Middle Finger	71,Index Finger	500.0	450.0	0.0	2300.0	0.0	0.0	450.0	n/a	stop_stim
31677.386832999997	1929.6131670000002	n/a	802	71	2750	1929.613167	stim	stop-signal	16	187635	0.0-7.4-1.4	beast_fmri_test	387	185307,/,185987,/,186667,/,187347,/,188027,/,188707,/,189387,/	t,t,t,t,t,t,t	<img class = center src='/static/experiments/beast_fmri_test/images/T.png'></img>	89,71	2750.0	test	<img class = center src='/static/experiments/beast_fmri_test/images/redT.png'></img>	stop	2300.0	2.0	4.0	stop	non-target	T	89,Middle Finger	71,Index Finger	500.0	450.0	0.0	2300.0	0.0	0.0	450.0	n/a	ITI
36040	500	n/a	-1	-1	500	0.0	fixation	poldrack-single-stim	17	190068	0.0-7.5-0.5	beast_fmri_test	387	190067,/	t	<div class = centerbox2><div class = fixation>+</div></div>	none	500.0	test	n/a	n/a	n/a	n/a	n/a	n/a	n/a	n/a	n/a	n/a	n/a	n/a	n/a	n/a	n/a	n/a	n/a	n/a	fixation
34927.473472000012	400.0	n/a	-1	-1	2750	1114.526528	stim	stop-signal	18	192820	0.0-7.5-1.5	beast_fmri_test	387	190747,/,191427,/,192108,/,192787,/,193467,/	t,t,t,t,t	<img class = center src='/static/experiments/beast_fmri_test/images/P.png'></img>	89,71	2750.0	test	<img class = center src='/static/experiments/beast_fmri_test/images/redP.png'></img>	stop	2350.0	2.0	5.0	stop	non-target	P	89,Middle Finger	71,Index Finger	500.0	400.0	0.0	2350.0	0.0	1.0	400.0	n/a	go_stim
37277.473472000012	2350.0	n/a	-1	-1	2750	1114.526528	stim	stop-signal	18	192820	0.0-7.5-1.5	beast_fmri_test	387	190747,/,191427,/,192108,/,192787,/,193467,/	t,t,t,t,t	<img class = center src='/static/experiments/beast_fmri_test/images/P.png'></img>	89,71	2750.0	test	<img class = center src='/static/experiments/beast_fmri_test/images/redP.png'></img>	stop	2350.0	2.0	5.0	stop	non-target	P	89,Middle Finger	71,Index Finger	500.0	400.0	0.0	2350.0	0.0	1.0	400.0	n/a	stop_stim
37677.473472000012	1114.5265279999999	n/a	-1	-1	2750	1114.526528	stim	stop-signal	18	192820	0.0-7.5-1.5	beast_fmri_test	387	190747,/,191427,/,192108,/,192787,/,193467,/	t,t,t,t,t	<img class = center src='/static/experiments/beast_fmri_test/images/P.png'></img>	89,71	2750.0	test	<img class = center src='/static/experiments/beast_fmri_test/images/redP.png'></img>	stop	2350.0	2.0	5.0	stop	non-target	P	89,Middle Finger	71,Index Finger	500.0	400.0	0.0	2350.0	0.0	1.0	400.0	n/a	ITI
40410	500	n/a	-1	-1	500	0.0	fixation	poldrack-single-stim	19	194438	0.0-7.6-0.6	beast_fmri_test	387	194147,/	t	<div class = centerbox2><div class = fixation>+</div></div>	none	500.0	test	n/a	n/a	n/a	n/a	n/a	n/a	n/a	n/a	n/a	n/a	n/a	n/a	n/a	n/a	n/a	n/a	n/a	n/a	fixation
39041.603570000007	500.0	n/a	827	89	2750	1370.39643	stim	stop-signal	20	197190	0.0-7.6-1.6	beast_fmri_test	387	194827,/,195507,/,196187,/,196867,/,197547,/,198227,/	t,t,t,t,t,t	<img class = center src='/static/experiments/beast_fmri_test/images/T.png'></img>	89,71	2750.0	test	<img class = center src='/static/experiments/beast_fmri_test/images/redT.png'></img>	stop	2250.0	2.0	6.0	stop	target	T	89,Middle Finger	71,Index Finger	500.0	450.0	2250.0	2350.0	0.0	0.0	500.0	n/a	go_stim
41291.603570000007	2250.0	n/a	827	89	2750	1370.39643	stim	stop-signal	20	197190	0.0-7.6-1.6	beast_fmri_test	387	194827,/,195507,/,196187,/,196867,/,197547,/,198227,/	t,t,t,t,t,t	<img class = center src='/static/experiments/beast_fmri_test/images/T.png'></img>	89,71	2750.0	test	<img class = center src='/static/experiments/beast_fmri_test/images/redT.png'></img>	stop	2250.0	2.0	6.0	stop	target	T	89,Middle Finger	71,Index Finger	500.0	450.0	2250.0	2350.0	0.0	0.0	500.0	n/a	stop_stim
41791.603570000007	1370.39643	n/a	827	89	2750	1370.39643	stim	stop-signal	20	197190	0.0-7.6-1.6	beast_fmri_test	387	194827,/,195507,/,196187,/,196867,/,197547,/,198227,/	t,t,t,t,t,t	<img class = center src='/static/experiments/beast_fmri_test/images/T.png'></img>	89,71	2750.0	test	<img class = center src='/static/experiments/beast_fmri_test/images/redT.png'></img>	stop	2250.0	2.0	6.0	stop	target	T	89,Middle Finger	71,Index Finger	500.0	450.0	2250.0	2350.0	0.0	0.0	500.0	n/a	ITI
45037	500	n/a	-1	-1	500	0.0	fixation	poldrack-single-stim	21	199065	0.0-7.7-0.7	beast_fmri_test	387	198907,/	t	<div class = centerbox2><div class = fixation>+</div></div>	none	500.0	test	n/a	n/a	n/a	n/a	n/a	n/a	n/a	n/a	n/a	n/a	n/a	n/a	n/a	n/a	n/a	n/a	n/a	n/a	fixation
42226.99768	2750	n/a	808	71	2750	2812.00232	stim	stop-signal	22	201817	0.0-7.7-1.7	beast_fmri_test	387	199587,/,200267,/,200947,/,201627,/,202308,/,202987,/,203666,/,204346,/	t,t,t,t,t,t,t,t	<img class = center src='/static/experiments/beast_fmri_test/images/P.png'></img>	89,71	2750.0	test	<img class = center src='/static/experiments/beast_fmri_test/images/redP.png'></img>	go	2300.0	2.0	7.0	go	target	P	89,Middle Finger	71,Index Finger	450.0	450.0	2300.0	2350.0	0.0	n/a	450.0	0.0	go_stim
44976.99768	2812.0023200000001	n/a	808	71	2750	2812.00232	stim	stop-signal	22	201817	0.0-7.7-1.7	beast_fmri_test	387	199587,/,200267,/,200947,/,201627,/,202308,/,202987,/,203666,/,204346,/	t,t,t,t,t,t,t,t	<img class = center src='/static/experiments/beast_fmri_test/images/P.png'></img>	89,71	2750.0	test	<img class = center src='/static/experiments/beast_fmri_test/images/redP.png'></img>	go	2300.0	2.0	7.0	go	target	P	89,Middle Finger	71,Index Finger	450.0	450.0	2300.0	2350.0	0.0	n/a	450.0	0.0	ITI
51106	500	n/a	-1	-1	500	0.0	fixation	poldrack-single-stim	23	205134	0.0-7.8-0.8	beast_fmri_test	387	205027,/	t	<div class = centerbox2><div class = fixation>+</div></div>	none	500.0	test	n/a	n/a	n/a	n/a	n/a	n/a	n/a	n/a	n/a	n/a	n/a	n/a	n/a	n/a	n/a	n/a	n/a	n/a	fixation
49167.626271999994	2750	n/a	969	89	2750	1940.373728	stim	stop-signal	24	207886	0.0-7.8-1.8	beast_fmri_test	387	205706,/,206387,/,207067,/,207746,/,208426,/,209107,/,209786,/	t,t,t,t,t,t,t	<img class = center src='/static/experiments/beast_fmri_test/images/T.png'></img>	89,71	2750.0	test	<img class = center src='/static/experiments/beast_fmri_test/images/redT.png'></img>	go	2300.0	2.0	8.0	go	target	T	89,Middle Finger	71,Index Finger	450.0	450.0	2300.0	2350.0	1.0	n/a	450.0	1.0	go_stim
51917.626271999994	1940.373728	n/a	969	89	2750	1940.373728	stim	stop-signal	24	207886	0.0-7.8-1.8	beast_fmri_test	387	205706,/,206387,/,207067,/,207746,/,208426,/,209107,/,209786,/	t,t,t,t,t,t,t	<img class = center src='/static/experiments/beast_fmri_test/images/T.png'></img>	89,71	2750.0	test	<img class = center src='/static/experiments/beast_fmri_test/images/redT.png'></img>	go	2300.0	2.0	8.0	go	target	T	89,Middle Finger	71,Index Finger	450.0	450.0	2300.0	2350.0	1.0	n/a	450.0	1.0	ITI
56301	500	n/a	-1	-1	500	0.0	fixation	poldrack-single-stim	25	210329	0.0-7.9-0.9	beast_fmri_test	387	n/a	n/a	<div class = centerbox2><div class = fixation>+</div></div>	none	500.0	test	n/a	n/a	n/a	n/a	n/a	n/a	n/a	n/a	n/a	n/a	n/a	n/a	n/a	n/a	n/a	n/a	n/a	n/a	fixation
55286.952438000008	450.0	n/a	-1	-1	2750	1016.047562	stim	stop-signal	26	213081	0.0-7.9-1.9	beast_fmri_test	387	210467,/,211146,/,211826,/,212507,/,213188,/,213866,/	t,t,t,t,t,t	<img class = center src='/static/experiments/beast_fmri_test/images/T.png'></img>	89,71	2750.0	test	<img class = center src='/static/experiments/beast_fmri_test/images/redT.png'></img>	stop	2300.0	2.0	9.0	stop	non-target	T	89,Middle Finger	71,Index Finger	450.0	450.0	2300.0	2300.0	0.0	1.0	450.0	n/a	go_stim
57586.952438000008	2300.0	n/a	-1	-1	2750	1016.047562	stim	stop-signal	26	213081	0.0-7.9-1.9	beast_fmri_test	387	210467,/,211146,/,211826,/,212507,/,213188,/,213866,/	t,t,t,t,t,t	<img class = center src='/static/experiments/beast_fmri_test/images/T.png'></img>	89,71	2750.0	test	<img class = center src='/static/experiments/beast_fmri_test/images/redT.png'></img>	stop	2300.0	2.0	9.0	stop	non-target	T	89,Middle Finger	71,Index Finger	450.0	450.0	2300.0	2300.0	0.0	1.0	450.0	n/a	stop_stim
58036.952438000008	1016.047562	n/a	-1	-1	2750	1016.047562	stim	stop-signal	26	213081	0.0-7.9-1.9	beast_fmri_test	387	210467,/,211146,/,211826,/,212507,/,213188,/,213866,/	t,t,t,t,t,t	<img class = center src='/static/experiments/beast_fmri_test/images/T.png'></img>	89,71	2750.0	test	<img class = center src='/static/experiments/beast_fmri_test/images/redT.png'></img>	stop	2300.0	2.0	9.0	stop	non-target	T	89,Middle Finger	71,Index Finger	450.0	450.0	2300.0	2300.0	0.0	1.0	450.0	n/a	ITI
60573	500	n/a	-1	-1	500	0.0	fixation	poldrack-single-stim	27	214601	0.0-7.10-0.10	beast_fmri_test	387	214548,/	t	<div class = centerbox2><div class = fixation>+</div></div>	none	500.0	test	n/a	n/a	n/a	n/a	n/a	n/a	n/a	n/a	n/a	n/a	n/a	n/a	n/a	n/a	n/a	n/a	n/a	n/a	fixation
60120.031975299993	2750	n/a	668	71	2750	454.9680247	stim	stop-signal	28	217353	0.0-7.10-1.10	beast_fmri_test	387	215227,/,215908,/,216587,/,217267,/	t,t,t,t	<img class = center src='/static/experiments/beast_fmri_test/images/V.png'></img>	89,71	2750.0	test	<img class = center src='/static/experiments/beast_fmri_test/images/redV.png'></img>	go	2250.0	2.0	10.0	go	non-target	V	89,Middle Finger	71,Index Finger	450.0	500.0	2300.0	2250.0	1.0	n/a	500.0	1.0	go_stim
62870.031975299993	454.96802469999994	n/a	668	71	2750	454.9680247	stim	stop-signal	28	217353	0.0-7.10-1.10	beast_fmri_test	387	215227,/,215908,/,216587,/,217267,/	t,t,t,t	<img class = center src='/static/experiments/beast_fmri_test/images/V.png'></img>	89,71	2750.0	test	<img class = center src='/static/experiments/beast_fmri_test/images/redV.png'></img>	go	2250.0	2.0	10.0	go	non-target	V	89,Middle Finger	71,Index Finger	450.0	500.0	2300.0	2250.0	1.0	n/a	500.0	1.0	ITI
64284	500	n/a	-1	-1	500	0.0	fixation	poldrack-single-stim	29	218312	0.0-7.11-0.11	beast_fmri_test	387	217948,/	t	<div class = centerbox2><div class = fixation>+</div></div>	none	500.0	test	n/a	n/a	n/a	n/a	n/a	n/a	n/a	n/a	n/a	n/a	n/a	n/a	n/a	n/a	n/a	n/a	n/a	n/a	fixation
63474.361829300004	2750	n/a	864	89	2750	811.6381707	stim	stop-signal	30	221064	0.0-7.11-1.11	beast_fmri_test	387	218628,/,219307,/,219987,/,220667,/,221347,/	t,t,t,t,t	<img class = center src='/static/experiments/beast_fmri_test/images/T.png'></img>	89,71	2750.0	test	<img class = center src='/static/experiments/beast_fmri_test/images/redT.png'></img>	go	2300.0	2.0	11.0	go	target	T	89,Middle Finger	71,Index Finger	450.0	500.0	2300.0	2250.0	1.0	n/a	450.0	1.0	go_stim
66224.361829300004	811.63817070000005	n/a	864	89	2750	811.6381707	stim	stop-signal	30	221064	0.0-7.11-1.11	beast_fmri_test	387	218628,/,219307,/,219987,/,220667,/,221347,/	t,t,t,t,t	<img class = center src='/static/experiments/beast_fmri_test/images/T.png'></img>	89,71	2750.0	test	<img class = center src='/static/experiments/beast_fmri_test/images/redT.png'></img>	go	2300.0	2.0	11.0	go	target	T	89,Middle Finger	71,Index Finger	450.0	500.0	2300.0	2250.0	1.0	n/a	450.0	1.0	ITI
68352	500	n/a	-1	-1	500	0.0	fixation	poldrack-single-stim	31	222380	0.0-7.12-0.12	beast_fmri_test	387	222027,/	t	<div class = centerbox2><div class = fixation>+</div></div>	none	500.0	test	n/a	n/a	n/a	n/a	n/a	n/a	n/a	n/a	n/a	n/a	n/a	n/a	n/a	n/a	n/a	n/a	n/a	n/a	fixation
68303.386497360014	2750	n/a	909	71	2750	49.61350264	stim	stop-signal	32	225131	0.0-7.12-1.12	beast_fmri_test	387	222708,/,223387,/,224067,/,224747,/	t,t,t,t	<img class = center src='/static/experiments/beast_fmri_test/images/D.png'></img>	89,71	2750.0	test	<img class = center src='/static/experiments/beast_fmri_test/images/redD.png'></img>	go	2250.0	2.0	12.0	go	non-target	D	89,Middle Finger	71,Index Finger	450.0	500.0	2300.0	2250.0	1.0	n/a	500.0	1.0	go_stim
71053.386497360014	49.61350264	n/a	909	71	2750	49.61350264	stim	stop-signal	32	225131	0.0-7.12-1.12	beast_fmri_test	387	222708,/,223387,/,224067,/,224747,/	t,t,t,t	<img class = center src='/static/experiments/beast_fmri_test/images/D.png'></img>	89,71	2750.0	test	<img class = center src='/static/experiments/beast_fmri_test/images/redD.png'></img>	go	2250.0	2.0	12.0	go	non-target	D	89,Middle Finger	71,Index Finger	450.0	500.0	2300.0	2250.0	1.0	n/a	500.0	1.0	ITI
71657	500	n/a	-1	-1	500	0.0	fixation	poldrack-single-stim	33	225685	0.0-7.13-0.13	beast_fmri_test	387	225427,/	t	<div class = centerbox2><div class = fixation>+</div></div>	none	500.0	test	n/a	n/a	n/a	n/a	n/a	n/a	n/a	n/a	n/a	n/a	n/a	n/a	n/a	n/a	n/a	n/a	n/a	n/a	fixation
68215.534867999988	500.0	n/a	-1	-1	2750	3443.465132	stim	stop-signal	34	228437	0.0-7.13-1.13	beast_fmri_test	387	226107,/,226787,/,227467,/,228147,/,228827,/,229507,/,230187,/,230867,/,231547,/	t,t,t,t,t,t,t,t,t	<img class = center src='/static/experiments/beast_fmri_test/images/P.png'></img>	89,71	2750.0	test	<img class = center src='/static/experiments/beast_fmri_test/images/redP.png'></img>	stop	2250.0	2.0	13.0	stop	non-target	P	89,Middle Finger	71,Index Finger	450.0	500.0	2300.0	2250.0	0.0	1.0	500.0	n/a	go_stim
70465.534867999988	2250.0	n/a	-1	-1	2750	3443.465132	stim	stop-signal	34	228437	0.0-7.13-1.13	beast_fmri_test	387	226107,/,226787,/,227467,/,228147,/,228827,/,229507,/,230187,/,230867,/,231547,/	t,t,t,t,t,t,t,t,t	<img class = center src='/static/experiments/beast_fmri_test/images/P.png'></img>	89,71	2750.0	test	<img class = center src='/static/experiments/beast_fmri_test/images/redP.png'></img>	stop	2250.0	2.0	13.0	stop	non-target	P	89,Middle Finger	71,Index Finger	450.0	500.0	2300.0	2250.0	0.0	1.0	500.0	n/a	stop_stim
70965.534867999988	3443.4651319999998	n/a	-1	-1	2750	3443.465132	stim	stop-signal	34	228437	0.0-7.13-1.13	beast_fmri_test	387	226107,/,226787,/,227467,/,228147,/,228827,/,229507,/,230187,/,230867,/,231547,/	t,t,t,t,t,t,t,t,t	<img class = center src='/static/experiments/beast_fmri_test/images/P.png'></img>	89,71	2750.0	test	<img class = center src='/static/experiments/beast_fmri_test/images/redP.png'></img>	stop	2250.0	2.0	13.0	stop	non-target	P	89,Middle Finger	71,Index Finger	450.0	500.0	2300.0	2250.0	0.0	1.0	500.0	n/a	ITI
78356	500	n/a	-1	-1	500	0.0	fixation	poldrack-single-stim	35	232384	0.0-7.14-0.14	beast_fmri_test	387	232227,/	t	<div class = centerbox2><div class = fixation>+</div></div>	none	500.0	test	n/a	n/a	n/a	n/a	n/a	n/a	n/a	n/a	n/a	n/a	n/a	n/a	n/a	n/a	n/a	n/a	n/a	n/a	fixation
76787.653179999994	2750	n/a	642	89	2750	1570.34682	stim	stop-signal	36	235136	0.0-7.14-1.14	beast_fmri_test	387	232908,/,233587,/,234267,/,234947,/,235627,/,236307,/	t,t,t,t,t,t	<img class = center src='/static/experiments/beast_fmri_test/images/D.png'></img>	89,71	2750.0	test	<img class = center src='/static/experiments/beast_fmri_test/images/redD.png'></img>	go	2300.0	2.0	14.0	go	target	D	89,Middle Finger	71,Index Finger	450.0	550.0	2300.0	2250.0	1.0	n/a	450.0	1.0	go_stim
79537.653179999994	1570.34682	n/a	642	89	2750	1570.34682	stim	stop-signal	36	235136	0.0-7.14-1.14	beast_fmri_test	387	232908,/,233587,/,234267,/,234947,/,235627,/,236307,/	t,t,t,t,t,t	<img class = center src='/static/experiments/beast_fmri_test/images/D.png'></img>	89,71	2750.0	test	<img class = center src='/static/experiments/beast_fmri_test/images/redD.png'></img>	go	2300.0	2.0	14.0	go	target	D	89,Middle Finger	71,Index Finger	450.0	550.0	2300.0	2250.0	1.0	n/a	450.0	1.0	ITI
83182	500	n/a	-1	-1	500	0.0	fixation	poldrack-single-stim	37	237210	0.0-7.15-0.15	beast_fmri_test	387	236987,/	t	<div class = centerbox2><div class = fixation>+</div></div>	none	500.0	test	n/a	n/a	n/a	n/a	n/a	n/a	n/a	n/a	n/a	n/a	n/a	n/a	n/a	n/a	n/a	n/a	n/a	n/a	fixation
80112.370859999995	2750	n/a	1160	71	2750	3071.62914	stim	stop-signal	38	239962	0.0-7.15-1.15	beast_fmri_test	387	237667,/,238347,/,239027,/,239707,/,240386,/,241067,/,241747,/,242426,/	t,t,t,t,t,t,t,t	<img class = center src='/static/experiments/beast_fmri_test/images/T.png'></img>	89,71	2750.0	test	<img class = center src='/static/experiments/beast_fmri_test/images/redT.png'></img>	go	2200.0	2.0	15.0	go	non-target	T	89,Middle Finger	71,Index Finger	450.0	550.0	2300.0	2200.0	1.0	n/a	550.0	1.0	go_stim
82862.370859999995	3071.62914	n/a	1160	71	2750	3071.62914	stim	stop-signal	38	239962	0.0-7.15-1.15	beast_fmri_test	387	237667,/,238347,/,239027,/,239707,/,240386,/,241067,/,241747,/,242426,/	t,t,t,t,t,t,t,t	<img class = center src='/static/experiments/beast_fmri_test/images/T.png'></img>	89,71	2750.0	test	<img class = center src='/static/experiments/beast_fmri_test/images/redT.png'></img>	go	2200.0	2.0	15.0	go	non-target	T	89,Middle Finger	71,Index Finger	450.0	550.0	2300.0	2200.0	1.0	n/a	550.0	1.0	ITI
89511	500	n/a	-1	-1	500	0.0	fixation	poldrack-single-stim	39	243539	0.0-7.16-0.16	beast_fmri_test	387	243108,/	t	<div class = centerbox2><div class = fixation>+</div></div>	none	500.0	test	n/a	n/a	n/a	n/a	n/a	n/a	n/a	n/a	n/a	n/a	n/a	n/a	n/a	n/a	n/a	n/a	n/a	n/a	fixation
88652.009740000009	2750	n/a	1517	71	2750	860.99026	stim	stop-signal	40	246291	0.0-7.16-1.16	beast_fmri_test	387	243786,/,244467,/,245146,/,245826,/,246508,/	t,t,t,t,t	<img class = center src='/static/experiments/beast_fmri_test/images/T.png'></img>	89,71	2750.0	test	<img class = center src='/static/experiments/beast_fmri_test/images/redT.png'></img>	go	2200.0	2.0	16.0	go	non-target	T	89,Middle Finger	71,Index Finger	450.0	550.0	2300.0	2200.0	1.0	n/a	550.0	1.0	go_stim
91402.009740000009	860.99025999999992	n/a	1517	71	2750	860.99026	stim	stop-signal	40	246291	0.0-7.16-1.16	beast_fmri_test	387	243786,/,244467,/,245146,/,245826,/,246508,/	t,t,t,t,t	<img class = center src='/static/experiments/beast_fmri_test/images/T.png'></img>	89,71	2750.0	test	<img class = center src='/static/experiments/beast_fmri_test/images/redT.png'></img>	go	2200.0	2.0	16.0	go	non-target	T	89,Middle Finger	71,Index Finger	450.0	550.0	2300.0	2200.0	1.0	n/a	550.0	1.0	ITI
93628	500	n/a	-1	-1	500	0.0	fixation	poldrack-single-stim	41	247656	0.0-7.17-0.17	beast_fmri_test	387	247187,/	t	<div class = centerbox2><div class = fixation>+</div></div>	none	500.0	test	n/a	n/a	n/a	n/a	n/a	n/a	n/a	n/a	n/a	n/a	n/a	n/a	n/a	n/a	n/a	n/a	n/a	n/a	fixation
91735.965630999999	2750	n/a	872	71	2750	1894.034369	stim	stop-signal	42	250408	0.0-7.17-1.17	beast_fmri_test	387	247867,/,248547,/,249227,/,249907,/,250587,/,251267,/,251947,/	t,t,t,t,t,t,t	<img class = center src='/static/experiments/beast_fmri_test/images/B.png'></img>	89,71	2750.0	test	<img class = center src='/static/experiments/beast_fmri_test/images/redB.png'></img>	go	2200.0	2.0	17.0	go	non-target	B	89,Middle Finger	71,Index Finger	450.0	550.0	2300.0	2200.0	1.0	n/a	550.0	1.0	go_stim
94485.965630999999	1894.0343690000002	n/a	872	71	2750	1894.034369	stim	stop-signal	42	250408	0.0-7.17-1.17	beast_fmri_test	387	247867,/,248547,/,249227,/,249907,/,250587,/,251267,/,251947,/	t,t,t,t,t,t,t	<img class = center src='/static/experiments/beast_fmri_test/images/B.png'></img>	89,71	2750.0	test	<img class = center src='/static/experiments/beast_fmri_test/images/redB.png'></img>	go	2200.0	2.0	17.0	go	non-target	B	89,Middle Finger	71,Index Finger	450.0	550.0	2300.0	2200.0	1.0	n/a	550.0	1.0	ITI
98779	500	n/a	-1	-1	500	0.0	fixation	poldrack-single-stim	43	252807	0.0-7.18-0.18	beast_fmri_test	387	252627,/	t	<div class = centerbox2><div class = fixation>+</div></div>	none	500.0	test	n/a	n/a	n/a	n/a	n/a	n/a	n/a	n/a	n/a	n/a	n/a	n/a	n/a	n/a	n/a	n/a	n/a	n/a	fixation
98010.720281999995	550.0	n/a	721	71	2750	771.279718	stim	stop-signal	44	255560	0.0-7.18-1.18	beast_fmri_test	387	253309,/,253987,/,254667,/,255347,/,256027,/	t,t,t,t,t	<img class = center src='/static/experiments/beast_fmri_test/images/D.png'></img>	89,71	2750.0	test	<img class = center src='/static/experiments/beast_fmri_test/images/redD.png'></img>	stop	2200.0	2.0	18.0	stop	non-target	D	89,Middle Finger	71,Index Finger	450.0	550.0	2300.0	2200.0	0.0	0.0	550.0	n/a	go_stim
100210.72028199999	2200.0	n/a	721	71	2750	771.279718	stim	stop-signal	44	255560	0.0-7.18-1.18	beast_fmri_test	387	253309,/,253987,/,254667,/,255347,/,256027,/	t,t,t,t,t	<img class = center src='/static/experiments/beast_fmri_test/images/D.png'></img>	89,71	2750.0	test	<img class = center src='/static/experiments/beast_fmri_test/images/redD.png'></img>	stop	2200.0	2.0	18.0	stop	non-target	D	89,Middle Finger	71,Index Finger	450.0	550.0	2300.0	2200.0	0.0	0.0	550.0	n/a	stop_stim
100760.72028199999	771.279718	n/a	721	71	2750	771.279718	stim	stop-signal	44	255560	0.0-7.18-1.18	beast_fmri_test	387	253309,/,253987,/,254667,/,255347,/,256027,/	t,t,t,t,t	<img class = center src='/static/experiments/beast_fmri_test/images/D.png'></img>	89,71	2750.0	test	<img class = center src='/static/experiments/beast_fmri_test/images/redD.png'></img>	stop	2200.0	2.0	18.0	stop	non-target	D	89,Middle Finger	71,Index Finger	450.0	550.0	2300.0	2200.0	0.0	0.0	550.0	n/a	ITI
102807	500	n/a	-1	-1	500	0.0	fixation	poldrack-single-stim	45	256835	0.0-7.19-0.19	beast_fmri_test	387	256707,/	t	<div class = centerbox2><div class = fixation>+</div></div>	none	500.0	test	n/a	n/a	n/a	n/a	n/a	n/a	n/a	n/a	n/a	n/a	n/a	n/a	n/a	n/a	n/a	n/a	n/a	n/a	fixation
97809.0	2750	n/a	906	71	2750	5000.0	stim	stop-signal	46	259587	0.0-7.19-1.19	beast_fmri_test	387	257387,/,258067,/,258747,/,259427,/,260107,/,260787,/,261467,/,262147,/,262827,/,263508,/,264187,/	t,t,t,t,t,t,t,t,t,t,t	<img class = center src='/static/experiments/beast_fmri_test/images/P.png'></img>	89,71	2750.0	test	<img class = center src='/static/experiments/beast_fmri_test/images/redP.png'></img>	go	2250.0	2.0	19.0	go	non-target	P	89,Middle Finger	71,Index Finger	450.0	500.0	2300.0	2250.0	1.0	n/a	500.0	1.0	go_stim
100559.0	5000.0	n/a	906	71	2750	5000.0	stim	stop-signal	46	259587	0.0-7.19-1.19	beast_fmri_test	387	257387,/,258067,/,258747,/,259427,/,260107,/,260787,/,261467,/,262147,/,262827,/,263508,/,264187,/	t,t,t,t,t,t,t,t,t,t,t	<img class = center src='/static/experiments/beast_fmri_test/images/P.png'></img>	89,71	2750.0	test	<img class = center src='/static/experiments/beast_fmri_test/images/redP.png'></img>	go	2250.0	2.0	19.0	go	non-target	P	89,Middle Finger	71,Index Finger	450.0	500.0	2300.0	2250.0	1.0	n/a	500.0	1.0	ITI
111064	500	n/a	-1	-1	500	0.0	fixation	poldrack-single-stim	47	265092	0.0-7.20-0.20	beast_fmri_test	387	264867,/	t	<div class = centerbox2><div class = fixation>+</div></div>	none	500.0	test	n/a	n/a	n/a	n/a	n/a	n/a	n/a	n/a	n/a	n/a	n/a	n/a	n/a	n/a	n/a	n/a	n/a	n/a	fixation
110621.98293439997	450.0	n/a	-1	-1	2750	444.0170656	stim	stop-signal	48	267844	0.0-7.20-1.20	beast_fmri_test	387	265547,/,266227,/,266907,/,267587,/,268267,/	t,t,t,t,t	<img class = center src='/static/experiments/beast_fmri_test/images/D.png'></img>	89,71	2750.0	test	<img class = center src='/static/experiments/beast_fmri_test/images/redD.png'></img>	stop	2300.0	2.0	20.0	stop	target	D	89,Middle Finger	71,Index Finger	450.0	500.0	2300.0	2250.0	0.0	1.0	450.0	n/a	go_stim
112921.98293439997	2300.0	n/a	-1	-1	2750	444.0170656	stim	stop-signal	48	267844	0.0-7.20-1.20	beast_fmri_test	387	265547,/,266227,/,266907,/,267587,/,268267,/	t,t,t,t,t	<img class = center src='/static/experiments/beast_fmri_test/images/D.png'></img>	89,71	2750.0	test	<img class = center src='/static/experiments/beast_fmri_test/images/redD.png'></img>	stop	2300.0	2.0	20.0	stop	target	D	89,Middle Finger	71,Index Finger	450.0	500.0	2300.0	2250.0	0.0	1.0	450.0	n/a	stop_stim
113371.98293439997	444.01706560000002	n/a	-1	-1	2750	444.0170656	stim	stop-signal	48	267844	0.0-7.20-1.20	beast_fmri_test	387	265547,/,266227,/,266907,/,267587,/,268267,/	t,t,t,t,t	<img class = center src='/static/experiments/beast_fmri_test/images/D.png'></img>	89,71	2750.0	test	<img class = center src='/static/experiments/beast_fmri_test/images/redD.png'></img>	stop	2300.0	2.0	20.0	stop	target	D	89,Middle Finger	71,Index Finger	450.0	500.0	2300.0	2250.0	0.0	1.0	450.0	n/a	ITI
114764	500	n/a	-1	-1	500	0.0	fixation	poldrack-single-stim	49	268792	0.0-7.21-0.21	beast_fmri_test	387	n/a	n/a	<div class = centerbox2><div class = fixation>+</div></div>	none	500.0	test	n/a	n/a	n/a	n/a	n/a	n/a	n/a	n/a	n/a	n/a	n/a	n/a	n/a	n/a	n/a	n/a	n/a	n/a	fixation
114257.07637329999	500.0	n/a	-1	-1	2750	508.9236267	stim	stop-signal	50	271544	0.0-7.21-1.21	beast_fmri_test	387	268947,/,269627,/,270307,/,270987,/,271666,/	t,t,t,t,t	<img class = center src='/static/experiments/beast_fmri_test/images/P.png'></img>	89,71	2750.0	test	<img class = center src='/static/experiments/beast_fmri_test/images/redP.png'></img>	stop	2250.0	2.0	21.0	stop	target	P	89,Middle Finger	71,Index Finger	500.0	500.0	2250.0	2250.0	0.0	1.0	500.0	n/a	go_stim
116507.07637329999	2250.0	n/a	-1	-1	2750	508.9236267	stim	stop-signal	50	271544	0.0-7.21-1.21	beast_fmri_test	387	268947,/,269627,/,270307,/,270987,/,271666,/	t,t,t,t,t	<img class = center src='/static/experiments/beast_fmri_test/images/P.png'></img>	89,71	2750.0	test	<img class = center src='/static/experiments/beast_fmri_test/images/redP.png'></img>	stop	2250.0	2.0	21.0	stop	target	P	89,Middle Finger	71,Index Finger	500.0	500.0	2250.0	2250.0	0.0	1.0	500.0	n/a	stop_stim
117007.07637329999	508.9236267	n/a	-1	-1	2750	508.9236267	stim	stop-signal	50	271544	0.0-7.21-1.21	beast_fmri_test	387	268947,/,269627,/,270307,/,270987,/,271666,/	t,t,t,t,t	<img class = center src='/static/experiments/beast_fmri_test/images/P.png'></img>	89,71	2750.0	test	<img class = center src='/static/experiments/beast_fmri_test/images/redP.png'></img>	stop	2250.0	2.0	21.0	stop	target	P	89,Middle Finger	71,Index Finger	500.0	500.0	2250.0	2250.0	0.0	1.0	500.0	n/a	ITI
118529	500	n/a	-1	-1	500	0.0	fixation	poldrack-single-stim	51	272557	0.0-7.22-0.22	beast_fmri_test	387	272347,/	t	<div class = centerbox2><div class = fixation>+</div></div>	none	500.0	test	n/a	n/a	n/a	n/a	n/a	n/a	n/a	n/a	n/a	n/a	n/a	n/a	n/a	n/a	n/a	n/a	n/a	n/a	fixation
118045.3436506	2750	n/a	818	89	2750	485.6563494	stim	stop-signal	52	275309	0.0-7.22-1.22	beast_fmri_test	387	273027,/,273708,/,274386,/,275067,/,275747,/	t,t,t,t,t	<img class = center src='/static/experiments/beast_fmri_test/images/D.png'></img>	89,71	2750.0	test	<img class = center src='/static/experiments/beast_fmri_test/images/redD.png'></img>	go	2200.0	2.0	22.0	go	target	D	89,Middle Finger	71,Index Finger	550.0	500.0	2200.0	2250.0	1.0	n/a	550.0	1.0	go_stim
120795.3436506	485.65634940000001	n/a	818	89	2750	485.6563494	stim	stop-signal	52	275309	0.0-7.22-1.22	beast_fmri_test	387	273027,/,273708,/,274386,/,275067,/,275747,/	t,t,t,t,t	<img class = center src='/static/experiments/beast_fmri_test/images/D.png'></img>	89,71	2750.0	test	<img class = center src='/static/experiments/beast_fmri_test/images/redD.png'></img>	go	2200.0	2.0	22.0	go	target	D	89,Middle Finger	71,Index Finger	550.0	500.0	2200.0	2250.0	1.0	n/a	550.0	1.0	ITI
122272	500	n/a	-1	-1	500	0.0	fixation	poldrack-single-stim	53	276300	0.0-7.23-0.23	beast_fmri_test	387	n/a	n/a	<div class = centerbox2><div class = fixation>+</div></div>	none	500.0	test	n/a	n/a	n/a	n/a	n/a	n/a	n/a	n/a	n/a	n/a	n/a	n/a	n/a	n/a	n/a	n/a	n/a	n/a	fixation
121313.52324309997	2750	n/a	886	71	2750	960.4767569	stim	stop-signal	54	279052	0.0-7.23-1.23	beast_fmri_test	387	276427,/,277107,/,277787,/,278466,/,279146,/,279827,/	t,t,t,t,t,t	<img class = center src='/static/experiments/beast_fmri_test/images/P.png'></img>	89,71	2750.0	test	<img class = center src='/static/experiments/beast_fmri_test/images/redP.png'></img>	go	2200.0	2.0	23.0	go	target	P	89,Middle Finger	71,Index Finger	550.0	500.0	2200.0	2250.0	0.0	n/a	550.0	0.0	go_stim
124063.52324309997	960.47675690000005	n/a	886	71	2750	960.4767569	stim	stop-signal	54	279052	0.0-7.23-1.23	beast_fmri_test	387	276427,/,277107,/,277787,/,278466,/,279146,/,279827,/	t,t,t,t,t,t	<img class = center src='/static/experiments/beast_fmri_test/images/P.png'></img>	89,71	2750.0	test	<img class = center src='/static/experiments/beast_fmri_test/images/redP.png'></img>	go	2200.0	2.0	23.0	go	target	P	89,Middle Finger	71,Index Finger	550.0	500.0	2200.0	2250.0	0.0	n/a	550.0	0.0	ITI
126489	500	n/a	-1	-1	500	0.0	fixation	poldrack-single-stim	55	280517	0.0-7.24-0.24	beast_fmri_test	387	280508,/	t	<div class = centerbox2><div class = fixation>+</div></div>	none	500.0	test	n/a	n/a	n/a	n/a	n/a	n/a	n/a	n/a	n/a	n/a	n/a	n/a	n/a	n/a	n/a	n/a	n/a	n/a	fixation
124864.43426200002	2750	n/a	1169	71	2750	1626.565738	stim	stop-signal	56	283269	0.0-7.24-1.24	beast_fmri_test	387	281188,/,281868,/,282547,/,283227,/,283909,/,284587,/	t,t,t,t,t,t	<img class = center src='/static/experiments/beast_fmri_test/images/P.png'></img>	89,71	2750.0	test	<img class = center src='/static/experiments/beast_fmri_test/images/redP.png'></img>	go	2250.0	2.0	24.0	go	non-target	P	89,Middle Finger	71,Index Finger	550.0	500.0	2200.0	2250.0	1.0	n/a	500.0	1.0	go_stim
127614.43426200002	1626.565738	n/a	1169	71	2750	1626.565738	stim	stop-signal	56	283269	0.0-7.24-1.24	beast_fmri_test	387	281188,/,281868,/,282547,/,283227,/,283909,/,284587,/	t,t,t,t,t,t	<img class = center src='/static/experiments/beast_fmri_test/images/P.png'></img>	89,71	2750.0	test	<img class = center src='/static/experiments/beast_fmri_test/images/redP.png'></img>	go	2250.0	2.0	24.0	go	non-target	P	89,Middle Finger	71,Index Finger	550.0	500.0	2200.0	2250.0	1.0	n/a	500.0	1.0	ITI
131371	500	n/a	-1	-1	500	0.0	fixation	poldrack-single-stim	57	285399	0.0-7.25-0.25	beast_fmri_test	387	285267,/	t	<div class = centerbox2><div class = fixation>+</div></div>	none	500.0	test	n/a	n/a	n/a	n/a	n/a	n/a	n/a	n/a	n/a	n/a	n/a	n/a	n/a	n/a	n/a	n/a	n/a	n/a	fixation
126375.95368600002	2750	n/a	569	89	2750	4997.046314	stim	stop-signal	58	288151	0.0-7.25-1.25	beast_fmri_test	387	285948,/,286628,/,287308,/,287987,/,288667,/,289347,/,290027,/,290707,/,291387,/,292067,/,292747,/	t,t,t,t,t,t,t,t,t,t,t	<img class = center src='/static/experiments/beast_fmri_test/images/P.png'></img>	89,71	2750.0	test	<img class = center src='/static/experiments/beast_fmri_test/images/redP.png'></img>	go	2200.0	2.0	25.0	go	target	P	89,Middle Finger	71,Index Finger	550.0	500.0	2200.0	2250.0	1.0	n/a	550.0	1.0	go_stim
129125.95368600002	4997.0463140000002	n/a	569	89	2750	4997.046314	stim	stop-signal	58	288151	0.0-7.25-1.25	beast_fmri_test	387	285948,/,286628,/,287308,/,287987,/,288667,/,289347,/,290027,/,290707,/,291387,/,292067,/,292747,/	t,t,t,t,t,t,t,t,t,t,t	<img class = center src='/static/experiments/beast_fmri_test/images/P.png'></img>	89,71	2750.0	test	<img class = center src='/static/experiments/beast_fmri_test/images/redP.png'></img>	go	2200.0	2.0	25.0	go	target	P	89,Middle Finger	71,Index Finger	550.0	500.0	2200.0	2250.0	1.0	n/a	550.0	1.0	ITI
139626	500	n/a	-1	-1	500	0.0	fixation	poldrack-single-stim	59	293654	0.0-7.26-0.26	beast_fmri_test	387	293427,/	t	<div class = centerbox2><div class = fixation>+</div></div>	none	500.0	test	n/a	n/a	n/a	n/a	n/a	n/a	n/a	n/a	n/a	n/a	n/a	n/a	n/a	n/a	n/a	n/a	n/a	n/a	fixation
139242.15851340001	500.0	n/a	-1	-1	2750	386.8414866	stim	stop-signal	60	296407	0.0-7.26-1.26	beast_fmri_test	387	294108,/,294787,/,295467,/,296147,/	t,t,t,t	<img class = center src='/static/experiments/beast_fmri_test/images/V.png'></img>	89,71	2750.0	test	<img class = center src='/static/experiments/beast_fmri_test/images/redV.png'></img>	stop	2250.0	2.0	26.0	stop	non-target	V	89,Middle Finger	71,Index Finger	550.0	500.0	2200.0	2250.0	0.0	1.0	500.0	n/a	go_stim
141492.15851340001	2250.0	n/a	-1	-1	2750	386.8414866	stim	stop-signal	60	296407	0.0-7.26-1.26	beast_fmri_test	387	294108,/,294787,/,295467,/,296147,/	t,t,t,t	<img class = center src='/static/experiments/beast_fmri_test/images/V.png'></img>	89,71	2750.0	test	<img class = center src='/static/experiments/beast_fmri_test/images/redV.png'></img>	stop	2250.0	2.0	26.0	stop	non-target	V	89,Middle Finger	71,Index Finger	550.0	500.0	2200.0	2250.0	0.0	1.0	500.0	n/a	stop_stim
141992.15851340001	386.84148660000005	n/a	-1	-1	2750	386.8414866	stim	stop-signal	60	296407	0.0-7.26-1.26	beast_fmri_test	387	294108,/,294787,/,295467,/,296147,/	t,t,t,t	<img class = center src='/static/experiments/beast_fmri_test/images/V.png'></img>	89,71	2750.0	test	<img class = center src='/static/experiments/beast_fmri_test/images/redV.png'></img>	stop	2250.0	2.0	26.0	stop	non-target	V	89,Middle Finger	71,Index Finger	550.0	500.0	2200.0	2250.0	0.0	1.0	500.0	n/a	ITI
143271	500	n/a	-1	-1	500	0.0	fixation	poldrack-single-stim	61	297299	0.0-7.27-0.27	beast_fmri_test	387	296827,/	t	<div class = centerbox2><div class = fixation>+</div></div>	none	500.0	test	n/a	n/a	n/a	n/a	n/a	n/a	n/a	n/a	n/a	n/a	n/a	n/a	n/a	n/a	n/a	n/a	n/a	n/a	fixation
139405.39447900001	550.0	n/a	727	71	2750	3867.605521	stim	stop-signal	62	300051	0.0-7.27-1.27	beast_fmri_test	387	297507,/,298187,/,298867,/,299546,/,300227,/,300907,/,301587,/,302267,/,302946,/,303626,/	t,t,t,t,t,t,t,t,t,t	<img class = center src='/static/experiments/beast_fmri_test/images/B.png'></img>	89,71	2750.0	test	<img class = center src='/static/experiments/beast_fmri_test/images/redB.png'></img>	stop	2200.0	2.0	27.0	stop	non-target	B	89,Middle Finger	71,Index Finger	550.0	550.0	2200.0	2200.0	0.0	0.0	550.0	n/a	go_stim
141605.39447900001	2200.0	n/a	727	71	2750	3867.605521	stim	stop-signal	62	300051	0.0-7.27-1.27	beast_fmri_test	387	297507,/,298187,/,298867,/,299546,/,300227,/,300907,/,301587,/,302267,/,302946,/,303626,/	t,t,t,t,t,t,t,t,t,t	<img class = center src='/static/experiments/beast_fmri_test/images/B.png'></img>	89,71	2750.0	test	<img class = center src='/static/experiments/beast_fmri_test/images/redB.png'></img>	stop	2200.0	2.0	27.0	stop	non-target	B	89,Middle Finger	71,Index Finger	550.0	550.0	2200.0	2200.0	0.0	0.0	550.0	n/a	stop_stim
142155.39447900001	3867.605521	n/a	727	71	2750	3867.605521	stim	stop-signal	62	300051	0.0-7.27-1.27	beast_fmri_test	387	297507,/,298187,/,298867,/,299546,/,300227,/,300907,/,301587,/,302267,/,302946,/,303626,/	t,t,t,t,t,t,t,t,t,t	<img class = center src='/static/experiments/beast_fmri_test/images/B.png'></img>	89,71	2750.0	test	<img class = center src='/static/experiments/beast_fmri_test/images/redB.png'></img>	stop	2200.0	2.0	27.0	stop	non-target	B	89,Middle Finger	71,Index Finger	550.0	550.0	2200.0	2200.0	0.0	0.0	550.0	n/a	ITI
150395	500	n/a	-1	-1	500	0.0	fixation	poldrack-single-stim	63	304423	0.0-7.28-0.28	beast_fmri_test	387	304307,/	t	<div class = centerbox2><div class = fixation>+</div></div>	none	500.0	test	n/a	n/a	n/a	n/a	n/a	n/a	n/a	n/a	n/a	n/a	n/a	n/a	n/a	n/a	n/a	n/a	n/a	n/a	fixation
150186.85806529998	2750	n/a	949	71	2750	210.1419347	stim	stop-signal	64	307175	0.0-7.28-1.28	beast_fmri_test	387	304987,/,305666,/,306347,/,307026,/	t,t,t,t	<img class = center src='/static/experiments/beast_fmri_test/images/B.png'></img>	89,71	2750.0	test	<img class = center src='/static/experiments/beast_fmri_test/images/redB.png'></img>	go	2250.0	2.0	28.0	go	non-target	B	89,Middle Finger	71,Index Finger	550.0	500.0	2200.0	2250.0	1.0	n/a	500.0	1.0	go_stim
152936.85806529998	210.14193470000001	n/a	949	71	2750	210.1419347	stim	stop-signal	64	307175	0.0-7.28-1.28	beast_fmri_test	387	304987,/,305666,/,306347,/,307026,/	t,t,t,t	<img class = center src='/static/experiments/beast_fmri_test/images/B.png'></img>	89,71	2750.0	test	<img class = center src='/static/experiments/beast_fmri_test/images/redB.png'></img>	go	2250.0	2.0	28.0	go	non-target	B	89,Middle Finger	71,Index Finger	550.0	500.0	2200.0	2250.0	1.0	n/a	500.0	1.0	ITI
153863	500	n/a	-1	-1	500	0.0	fixation	poldrack-single-stim	65	307891	0.0-7.29-0.29	beast_fmri_test	387	307707,/	t	<div class = centerbox2><div class = fixation>+</div></div>	none	500.0	test	n/a	n/a	n/a	n/a	n/a	n/a	n/a	n/a	n/a	n/a	n/a	n/a	n/a	n/a	n/a	n/a	n/a	n/a	fixation
153797.52132397	2750	n/a	729	89	2750	67.47867603	stim	stop-signal	66	310643	0.0-7.29-1.29	beast_fmri_test	387	308386,/,309066,/,309747,/,310427,/	t,t,t,t	<img class = center src='/static/experiments/beast_fmri_test/images/B.png'></img>	89,71	2750.0	test	<img class = center src='/static/experiments/beast_fmri_test/images/redB.png'></img>	go	2200.0	2.0	29.0	go	target	B	89,Middle Finger	71,Index Finger	550.0	500.0	2200.0	2250.0	1.0	n/a	550.0	1.0	go_stim
156547.52132397	67.478676030000003	n/a	729	89	2750	67.47867603	stim	stop-signal	66	310643	0.0-7.29-1.29	beast_fmri_test	387	308386,/,309066,/,309747,/,310427,/	t,t,t,t	<img class = center src='/static/experiments/beast_fmri_test/images/B.png'></img>	89,71	2750.0	test	<img class = center src='/static/experiments/beast_fmri_test/images/redB.png'></img>	go	2200.0	2.0	29.0	go	target	B	89,Middle Finger	71,Index Finger	550.0	500.0	2200.0	2250.0	1.0	n/a	550.0	1.0	ITI
157187	500	n/a	-1	-1	500	0.0	fixation	poldrack-single-stim	67	311215	0.0-7.30-0.30	beast_fmri_test	387	311106,/	t	<div class = centerbox2><div class = fixation>+</div></div>	none	500.0	test	n/a	n/a	n/a	n/a	n/a	n/a	n/a	n/a	n/a	n/a	n/a	n/a	n/a	n/a	n/a	n/a	n/a	n/a	fixation
156851.27758649999	550.0	n/a	-1	-1	2750	337.7224135	stim	stop-signal	68	313967	0.0-7.30-1.30	beast_fmri_test	387	311787,/,312466,/,313148,/,313828,/	t,t,t,t	<img class = center src='/static/experiments/beast_fmri_test/images/B.png'></img>	89,71	2750.0	test	<img class = center src='/static/experiments/beast_fmri_test/images/redB.png'></img>	stop	2200.0	2.0	30.0	stop	target	B	89,Middle Finger	71,Index Finger	550.0	500.0	2200.0	2250.0	0.0	1.0	550.0	n/a	go_stim
159051.27758649999	2200.0	n/a	-1	-1	2750	337.7224135	stim	stop-signal	68	313967	0.0-7.30-1.30	beast_fmri_test	387	311787,/,312466,/,313148,/,313828,/	t,t,t,t	<img class = center src='/static/experiments/beast_fmri_test/images/B.png'></img>	89,71	2750.0	test	<img class = center src='/static/experiments/beast_fmri_test/images/redB.png'></img>	stop	2200.0	2.0	30.0	stop	target	B	89,Middle Finger	71,Index Finger	550.0	500.0	2200.0	2250.0	0.0	1.0	550.0	n/a	stop_stim
159601.27758649999	337.72241349999996	n/a	-1	-1	2750	337.7224135	stim	stop-signal	68	313967	0.0-7.30-1.30	beast_fmri_test	387	311787,/,312466,/,313148,/,313828,/	t,t,t,t	<img class = center src='/static/experiments/beast_fmri_test/images/B.png'></img>	89,71	2750.0	test	<img class = center src='/static/experiments/beast_fmri_test/images/redB.png'></img>	stop	2200.0	2.0	30.0	stop	target	B	89,Middle Finger	71,Index Finger	550.0	500.0	2200.0	2250.0	0.0	1.0	550.0	n/a	ITI
160781	500	n/a	-1	-1	500	0.0	fixation	poldrack-single-stim	69	314809	0.0-7.31-0.31	beast_fmri_test	387	314509,/	t	<div class = centerbox2><div class = fixation>+</div></div>	none	500.0	test	n/a	n/a	n/a	n/a	n/a	n/a	n/a	n/a	n/a	n/a	n/a	n/a	n/a	n/a	n/a	n/a	n/a	n/a	fixation
158735.91280699999	2750	n/a	757	71	2750	2047.087193	stim	stop-signal	70	317561	0.0-7.31-1.31	beast_fmri_test	387	315187,/,315867,/,316547,/,317227,/,317907,/,318587,/,319267,/	t,t,t,t,t,t,t	<img class = center src='/static/experiments/beast_fmri_test/images/V.png'></img>	89,71	2750.0	test	<img class = center src='/static/experiments/beast_fmri_test/images/redV.png'></img>	go	2250.0	2.0	31.0	go	non-target	V	89,Middle Finger	71,Index Finger	600.0	500.0	2200.0	2250.0	1.0	n/a	500.0	1.0	go_stim
161485.91280699999	2047.0871930000001	n/a	757	71	2750	2047.087193	stim	stop-signal	70	317561	0.0-7.31-1.31	beast_fmri_test	387	315187,/,315867,/,316547,/,317227,/,317907,/,318587,/,319267,/	t,t,t,t,t,t,t	<img class = center src='/static/experiments/beast_fmri_test/images/V.png'></img>	89,71	2750.0	test	<img class = center src='/static/experiments/beast_fmri_test/images/redV.png'></img>	go	2250.0	2.0	31.0	go	non-target	V	89,Middle Finger	71,Index Finger	600.0	500.0	2200.0	2250.0	1.0	n/a	500.0	1.0	ITI
166085	500	n/a	-1	-1	500	0.0	fixation	poldrack-single-stim	71	320113	0.0-7.32-0.32	beast_fmri_test	387	319947,/	t	<div class = centerbox2><div class = fixation>+</div></div>	none	500.0	test	n/a	n/a	n/a	n/a	n/a	n/a	n/a	n/a	n/a	n/a	n/a	n/a	n/a	n/a	n/a	n/a	n/a	n/a	fixation
165327.0226118	2750	n/a	924	71	2750	759.9773882	stim	stop-signal	72	322865	0.0-7.32-1.32	beast_fmri_test	387	320627,/,321307,/,321987,/,322667,/,323347,/	t,t,t,t,t	<img class = center src='/static/experiments/beast_fmri_test/images/T.png'></img>	89,71	2750.0	test	<img class = center src='/static/experiments/beast_fmri_test/images/redT.png'></img>	go	2250.0	2.0	32.0	go	non-target	T	89,Middle Finger	71,Index Finger	600.0	500.0	2200.0	2250.0	1.0	n/a	500.0	1.0	go_stim
168077.0226118	759.97738820000006	n/a	924	71	2750	759.9773882	stim	stop-signal	72	322865	0.0-7.32-1.32	beast_fmri_test	387	320627,/,321307,/,321987,/,322667,/,323347,/	t,t,t,t,t	<img class = center src='/static/experiments/beast_fmri_test/images/T.png'></img>	89,71	2750.0	test	<img class = center src='/static/experiments/beast_fmri_test/images/redT.png'></img>	go	2250.0	2.0	32.0	go	non-target	T	89,Middle Finger	71,Index Finger	600.0	500.0	2200.0	2250.0	1.0	n/a	500.0	1.0	ITI
170101	500	n/a	-1	-1	500	0.0	fixation	poldrack-single-stim	73	324129	0.0-7.33-0.33	beast_fmri_test	387	324027,/	t	<div class = centerbox2><div class = fixation>+</div></div>	none	500.0	test	n/a	n/a	n/a	n/a	n/a	n/a	n/a	n/a	n/a	n/a	n/a	n/a	n/a	n/a	n/a	n/a	n/a	n/a	fixation
169292.45269940002	500.0	n/a	-1	-1	2750	810.5473006	stim	stop-signal	74	326881	0.0-7.33-1.33	beast_fmri_test	387	324708,/,325387,/,326067,/,326747,/,327427,/	t,t,t,t,t	<img class = center src='/static/experiments/beast_fmri_test/images/B.png'></img>	89,71	2750.0	test	<img class = center src='/static/experiments/beast_fmri_test/images/redB.png'></img>	stop	2250.0	2.0	33.0	stop	non-target	B	89,Middle Finger	71,Index Finger	600.0	500.0	2200.0	2250.0	0.0	1.0	500.0	n/a	go_stim
171542.45269940002	2250.0	n/a	-1	-1	2750	810.5473006	stim	stop-signal	74	326881	0.0-7.33-1.33	beast_fmri_test	387	324708,/,325387,/,326067,/,326747,/,327427,/	t,t,t,t,t	<img class = center src='/static/experiments/beast_fmri_test/images/B.png'></img>	89,71	2750.0	test	<img class = center src='/static/experiments/beast_fmri_test/images/redB.png'></img>	stop	2250.0	2.0	33.0	stop	non-target	B	89,Middle Finger	71,Index Finger	600.0	500.0	2200.0	2250.0	0.0	1.0	500.0	n/a	stop_stim
172042.45269940002	810.54730059999997	n/a	-1	-1	2750	810.5473006	stim	stop-signal	74	326881	0.0-7.33-1.33	beast_fmri_test	387	324708,/,325387,/,326067,/,326747,/,327427,/	t,t,t,t,t	<img class = center src='/static/experiments/beast_fmri_test/images/B.png'></img>	89,71	2750.0	test	<img class = center src='/static/experiments/beast_fmri_test/images/redB.png'></img>	stop	2250.0	2.0	33.0	stop	non-target	B	89,Middle Finger	71,Index Finger	600.0	500.0	2200.0	2250.0	0.0	1.0	500.0	n/a	ITI
174168	500	n/a	-1	-1	500	0.0	fixation	poldrack-single-stim	75	328196	0.0-7.34-0.34	beast_fmri_test	387	328107,/	t	<div class = centerbox2><div class = fixation>+</div></div>	none	500.0	test	n/a	n/a	n/a	n/a	n/a	n/a	n/a	n/a	n/a	n/a	n/a	n/a	n/a	n/a	n/a	n/a	n/a	n/a	fixation
174031.14497640001	550.0	n/a	693	71	2750	138.8550236	stim	stop-signal	76	330948	0.0-7.34-1.34	beast_fmri_test	387	328787,/,329467,/,330147,/,330827,/	t,t,t,t	<img class = center src='/static/experiments/beast_fmri_test/images/P.png'></img>	89,71	2750.0	test	<img class = center src='/static/experiments/beast_fmri_test/images/redP.png'></img>	stop	2200.0	2.0	34.0	stop	non-target	P	89,Middle Finger	71,Index Finger	600.0	550.0	2200.0	2200.0	0.0	0.0	550.0	n/a	go_stim
176231.14497640001	2200.0	n/a	693	71	2750	138.8550236	stim	stop-signal	76	330948	0.0-7.34-1.34	beast_fmri_test	387	328787,/,329467,/,330147,/,330827,/	t,t,t,t	<img class = center src='/static/experiments/beast_fmri_test/images/P.png'></img>	89,71	2750.0	test	<img class = center src='/static/experiments/beast_fmri_test/images/redP.png'></img>	stop	2200.0	2.0	34.0	stop	non-target	P	89,Middle Finger	71,Index Finger	600.0	550.0	2200.0	2200.0	0.0	0.0	550.0	n/a	stop_stim
176781.14497640001	138.85502360000001	n/a	693	71	2750	138.8550236	stim	stop-signal	76	330948	0.0-7.34-1.34	beast_fmri_test	387	328787,/,329467,/,330147,/,330827,/	t,t,t,t	<img class = center src='/static/experiments/beast_fmri_test/images/P.png'></img>	89,71	2750.0	test	<img class = center src='/static/experiments/beast_fmri_test/images/redP.png'></img>	stop	2200.0	2.0	34.0	stop	non-target	P	89,Middle Finger	71,Index Finger	600.0	550.0	2200.0	2200.0	0.0	0.0	550.0	n/a	ITI
177564	500	n/a	-1	-1	500	0.0	fixation	poldrack-single-stim	77	331592	0.0-7.35-0.35	beast_fmri_test	387	331507,/	t	<div class = centerbox2><div class = fixation>+</div></div>	none	500.0	test	n/a	n/a	n/a	n/a	n/a	n/a	n/a	n/a	n/a	n/a	n/a	n/a	n/a	n/a	n/a	n/a	n/a	n/a	fixation
177460.77276359999	2750	n/a	977	71	2750	106.2272364	stim	stop-signal	78	334345	0.0-7.35-1.35	beast_fmri_test	387	332187,/,332867,/,333547,/,334226,/	t,t,t,t	<img class = center src='/static/experiments/beast_fmri_test/images/T.png'></img>	89,71	2750.0	test	<img class = center src='/static/experiments/beast_fmri_test/images/redT.png'></img>	go	2250.0	2.0	35.0	go	non-target	T	89,Middle Finger	71,Index Finger	600.0	500.0	2200.0	2250.0	1.0	n/a	500.0	1.0	go_stim
180210.77276359999	106.22723640000001	n/a	977	71	2750	106.2272364	stim	stop-signal	78	334345	0.0-7.35-1.35	beast_fmri_test	387	332187,/,332867,/,333547,/,334226,/	t,t,t,t	<img class = center src='/static/experiments/beast_fmri_test/images/T.png'></img>	89,71	2750.0	test	<img class = center src='/static/experiments/beast_fmri_test/images/redT.png'></img>	go	2250.0	2.0	35.0	go	non-target	T	89,Middle Finger	71,Index Finger	600.0	500.0	2200.0	2250.0	1.0	n/a	500.0	1.0	ITI
180928	500	n/a	-1	-1	500	0.0	fixation	poldrack-single-stim	79	334956	0.0-7.36-0.36	beast_fmri_test	387	334908,/	t	<div class = centerbox2><div class = fixation>+</div></div>	none	500.0	test	n/a	n/a	n/a	n/a	n/a	n/a	n/a	n/a	n/a	n/a	n/a	n/a	n/a	n/a	n/a	n/a	n/a	n/a	fixation
178361.24162300001	600.0	n/a	-1	-1	2750	2567.758377	stim	stop-signal	80	337707	0.0-7.36-1.36	beast_fmri_test	387	335587,/,336267,/,336947,/,337627,/,338306,/,338987,/,339666,/	t,t,t,t,t,t,t	<img class = center src='/static/experiments/beast_fmri_test/images/P.png'></img>	89,71	2750.0	test	<img class = center src='/static/experiments/beast_fmri_test/images/redP.png'></img>	stop	2150.0	2.0	36.0	stop	target	P	89,Middle Finger	71,Index Finger	600.0	500.0	2150.0	2250.0	0.0	1.0	600.0	n/a	go_stim
180511.24162300001	2150.0	n/a	-1	-1	2750	2567.758377	stim	stop-signal	80	337707	0.0-7.36-1.36	beast_fmri_test	387	335587,/,336267,/,336947,/,337627,/,338306,/,338987,/,339666,/	t,t,t,t,t,t,t	<img class = center src='/static/experiments/beast_fmri_test/images/P.png'></img>	89,71	2750.0	test	<img class = center src='/static/experiments/beast_fmri_test/images/redP.png'></img>	stop	2150.0	2.0	36.0	stop	target	P	89,Middle Finger	71,Index Finger	600.0	500.0	2150.0	2250.0	0.0	1.0	600.0	n/a	stop_stim
181111.24162300001	2567.7583770000001	n/a	-1	-1	2750	2567.758377	stim	stop-signal	80	337707	0.0-7.36-1.36	beast_fmri_test	387	335587,/,336267,/,336947,/,337627,/,338306,/,338987,/,339666,/	t,t,t,t,t,t,t	<img class = center src='/static/experiments/beast_fmri_test/images/P.png'></img>	89,71	2750.0	test	<img class = center src='/static/experiments/beast_fmri_test/images/redP.png'></img>	stop	2150.0	2.0	36.0	stop	target	P	89,Middle Finger	71,Index Finger	600.0	500.0	2150.0	2250.0	0.0	1.0	600.0	n/a	ITI
186753	500	n/a	-1	-1	500	0.0	fixation	poldrack-single-stim	81	340781	0.0-7.37-0.37	beast_fmri_test	387	340347,/	t	<div class = centerbox2><div class = fixation>+</div></div>	none	500.0	test	n/a	n/a	n/a	n/a	n/a	n/a	n/a	n/a	n/a	n/a	n/a	n/a	n/a	n/a	n/a	n/a	n/a	n/a	fixation
186529.57988239999	2750	n/a	679	71	2750	225.4201176	stim	stop-signal	82	343533	0.0-7.37-1.37	beast_fmri_test	387	341027,/,341707,/,342386,/,343067,/,343746,/	t,t,t,t,t	<img class = center src='/static/experiments/beast_fmri_test/images/B.png'></img>	89,71	2750.0	test	<img class = center src='/static/experiments/beast_fmri_test/images/redB.png'></img>	go	2250.0	2.0	37.0	go	non-target	B	89,Middle Finger	71,Index Finger	650.0	500.0	2150.0	2250.0	1.0	n/a	500.0	1.0	go_stim
189279.57988239999	225.4201176	n/a	679	71	2750	225.4201176	stim	stop-signal	82	343533	0.0-7.37-1.37	beast_fmri_test	387	341027,/,341707,/,342386,/,343067,/,343746,/	t,t,t,t,t	<img class = center src='/static/experiments/beast_fmri_test/images/B.png'></img>	89,71	2750.0	test	<img class = center src='/static/experiments/beast_fmri_test/images/redB.png'></img>	go	2250.0	2.0	37.0	go	non-target	B	89,Middle Finger	71,Index Finger	650.0	500.0	2150.0	2250.0	1.0	n/a	500.0	1.0	ITI
190236	500	n/a	-1	-1	500	0.0	fixation	poldrack-single-stim	83	344264	0.0-7.38-0.38	beast_fmri_test	387	n/a	n/a	<div class = centerbox2><div class = fixation>+</div></div>	none	500.0	test	n/a	n/a	n/a	n/a	n/a	n/a	n/a	n/a	n/a	n/a	n/a	n/a	n/a	n/a	n/a	n/a	n/a	n/a	fixation
188150.79991499998	2750	n/a	1065	71	2750	2087.200085	stim	stop-signal	84	347016	0.0-7.38-1.38	beast_fmri_test	387	344426,/,345109,/,345787,/,346467,/,347147,/,347827,/,348507,/	t,t,t,t,t,t,t	<img class = center src='/static/experiments/beast_fmri_test/images/B.png'></img>	89,71	2750.0	test	<img class = center src='/static/experiments/beast_fmri_test/images/redB.png'></img>	go	2250.0	2.0	38.0	go	non-target	B	89,Middle Finger	71,Index Finger	650.0	500.0	2150.0	2250.0	1.0	n/a	500.0	1.0	go_stim
190900.79991499998	2087.2000849999999	n/a	1065	71	2750	2087.200085	stim	stop-signal	84	347016	0.0-7.38-1.38	beast_fmri_test	387	344426,/,345109,/,345787,/,346467,/,347147,/,347827,/,348507,/	t,t,t,t,t,t,t	<img class = center src='/static/experiments/beast_fmri_test/images/B.png'></img>	89,71	2750.0	test	<img class = center src='/static/experiments/beast_fmri_test/images/redB.png'></img>	go	2250.0	2.0	38.0	go	non-target	B	89,Middle Finger	71,Index Finger	650.0	500.0	2150.0	2250.0	1.0	n/a	500.0	1.0	ITI
195581	500	n/a	-1	-1	500	0.0	fixation	poldrack-single-stim	85	349609	0.0-7.39-0.39	beast_fmri_test	387	349187,/	t	<div class = centerbox2><div class = fixation>+</div></div>	none	500.0	test	n/a	n/a	n/a	n/a	n/a	n/a	n/a	n/a	n/a	n/a	n/a	n/a	n/a	n/a	n/a	n/a	n/a	n/a	fixation
194844.56635340001	2750	n/a	900	71	2750	739.4336466	stim	stop-signal	86	352362	0.0-7.39-1.39	beast_fmri_test	387	349867,/,350547,/,351227,/,351907,/,352587,/	t,t,t,t,t	<img class = center src='/static/experiments/beast_fmri_test/images/V.png'></img>	89,71	2750.0	test	<img class = center src='/static/experiments/beast_fmri_test/images/redV.png'></img>	go	2250.0	2.0	39.0	go	non-target	V	89,Middle Finger	71,Index Finger	650.0	500.0	2150.0	2250.0	1.0	n/a	500.0	1.0	go_stim
197594.56635340001	739.43364659999997	n/a	900	71	2750	739.4336466	stim	stop-signal	86	352362	0.0-7.39-1.39	beast_fmri_test	387	349867,/,350547,/,351227,/,351907,/,352587,/	t,t,t,t,t	<img class = center src='/static/experiments/beast_fmri_test/images/V.png'></img>	89,71	2750.0	test	<img class = center src='/static/experiments/beast_fmri_test/images/redV.png'></img>	go	2250.0	2.0	39.0	go	non-target	V	89,Middle Finger	71,Index Finger	650.0	500.0	2150.0	2250.0	1.0	n/a	500.0	1.0	ITI
199578	500	n/a	-1	-1	500	0.0	fixation	poldrack-single-stim	87	353606	0.0-7.40-0.40	beast_fmri_test	387	353267,/	t	<div class = centerbox2><div class = fixation>+</div></div>	none	500.0	test	n/a	n/a	n/a	n/a	n/a	n/a	n/a	n/a	n/a	n/a	n/a	n/a	n/a	n/a	n/a	n/a	n/a	n/a	fixation
199539.66785203002	2750	n/a	1454	71	2750	39.33214797	stim	stop-signal	88	356357	0.0-7.40-1.40	beast_fmri_test	387	353947,/,354627,/,355307,/,355987,/	t,t,t,t	<img class = center src='/static/experiments/beast_fmri_test/images/D.png'></img>	89,71	2750.0	test	<img class = center src='/static/experiments/beast_fmri_test/images/redD.png'></img>	go	2250.0	2.0	40.0	go	non-target	D	89,Middle Finger	71,Index Finger	650.0	500.0	2150.0	2250.0	1.0	n/a	500.0	1.0	go_stim
202289.66785203002	39.332147970000001	n/a	1454	71	2750	39.33214797	stim	stop-signal	88	356357	0.0-7.40-1.40	beast_fmri_test	387	353947,/,354627,/,355307,/,355987,/	t,t,t,t	<img class = center src='/static/experiments/beast_fmri_test/images/D.png'></img>	89,71	2750.0	test	<img class = center src='/static/experiments/beast_fmri_test/images/redD.png'></img>	go	2250.0	2.0	40.0	go	non-target	D	89,Middle Finger	71,Index Finger	650.0	500.0	2150.0	2250.0	1.0	n/a	500.0	1.0	ITI
202875	500	n/a	-1	-1	500	0.0	fixation	poldrack-single-stim	89	356903	0.0-7.41-0.41	beast_fmri_test	387	356667,/	t	<div class = centerbox2><div class = fixation>+</div></div>	none	500.0	test	n/a	n/a	n/a	n/a	n/a	n/a	n/a	n/a	n/a	n/a	n/a	n/a	n/a	n/a	n/a	n/a	n/a	n/a	fixation
202394.17561119999	2750	n/a	963	89	2750	482.8243888	stim	stop-signal	90	359655	0.0-7.41-1.41	beast_fmri_test	387	357347,/,358027,/,358707,/,359387,/,360067,/	t,t,t,t,t	<img class = center src='/static/experiments/beast_fmri_test/images/V.png'></img>	89,71	2750.0	test	<img class = center src='/static/experiments/beast_fmri_test/images/redV.png'></img>	go	2100.0	2.0	41.0	go	target	V	89,Middle Finger	71,Index Finger	650.0	500.0	2100.0	2250.0	1.0	n/a	650.0	1.0	go_stim
205144.17561119999	482.82438880000001	n/a	963	89	2750	482.8243888	stim	stop-signal	90	359655	0.0-7.41-1.41	beast_fmri_test	387	357347,/,358027,/,358707,/,359387,/,360067,/	t,t,t,t,t	<img class = center src='/static/experiments/beast_fmri_test/images/V.png'></img>	89,71	2750.0	test	<img class = center src='/static/experiments/beast_fmri_test/images/redV.png'></img>	go	2100.0	2.0	41.0	go	target	V	89,Middle Finger	71,Index Finger	650.0	500.0	2100.0	2250.0	1.0	n/a	650.0	1.0	ITI
206615	500	n/a	-1	-1	500	0.0	fixation	poldrack-single-stim	91	360643	0.0-7.42-0.42	beast_fmri_test	387	n/a	n/a	<div class = centerbox2><div class = fixation>+</div></div>	none	500.0	test	n/a	n/a	n/a	n/a	n/a	n/a	n/a	n/a	n/a	n/a	n/a	n/a	n/a	n/a	n/a	n/a	n/a	n/a	fixation
206463.40332550002	2750	n/a	1086	71	2750	153.5966745	stim	stop-signal	92	363395	0.0-7.42-1.42	beast_fmri_test	387	360747,/,361427,/,362107,/,362787,/,363467,/	t,t,t,t,t	<img class = center src='/static/experiments/beast_fmri_test/images/P.png'></img>	89,71	2750.0	test	<img class = center src='/static/experiments/beast_fmri_test/images/redP.png'></img>	go	2250.0	2.0	42.0	go	non-target	P	89,Middle Finger	71,Index Finger	650.0	500.0	2100.0	2250.0	1.0	n/a	500.0	1.0	go_stim
209213.40332550002	153.59667450000001	n/a	1086	71	2750	153.5966745	stim	stop-signal	92	363395	0.0-7.42-1.42	beast_fmri_test	387	360747,/,361427,/,362107,/,362787,/,363467,/	t,t,t,t,t	<img class = center src='/static/experiments/beast_fmri_test/images/P.png'></img>	89,71	2750.0	test	<img class = center src='/static/experiments/beast_fmri_test/images/redP.png'></img>	go	2250.0	2.0	42.0	go	non-target	P	89,Middle Finger	71,Index Finger	650.0	500.0	2100.0	2250.0	1.0	n/a	500.0	1.0	ITI
210027	500	n/a	-1	-1	500	0.0	fixation	poldrack-single-stim	93	364055	0.0-7.43-0.43	beast_fmri_test	387	n/a	n/a	<div class = centerbox2><div class = fixation>+</div></div>	none	500.0	test	n/a	n/a	n/a	n/a	n/a	n/a	n/a	n/a	n/a	n/a	n/a	n/a	n/a	n/a	n/a	n/a	n/a	n/a	fixation
209008.19662499998	2750	n/a	893	71	2750	1020.803375	stim	stop-signal	94	366807	0.0-7.43-1.43	beast_fmri_test	387	364147,/,364827,/,365507,/,366187,/,366867,/,367547,/	t,t,t,t,t,t	<img class = center src='/static/experiments/beast_fmri_test/images/T.png'></img>	89,71	2750.0	test	<img class = center src='/static/experiments/beast_fmri_test/images/redT.png'></img>	go	2250.0	2.0	43.0	go	non-target	T	89,Middle Finger	71,Index Finger	650.0	500.0	2100.0	2250.0	1.0	n/a	500.0	1.0	go_stim
211758.19662499998	1020.803375	n/a	893	71	2750	1020.803375	stim	stop-signal	94	366807	0.0-7.43-1.43	beast_fmri_test	387	364147,/,364827,/,365507,/,366187,/,366867,/,367547,/	t,t,t,t,t,t	<img class = center src='/static/experiments/beast_fmri_test/images/T.png'></img>	89,71	2750.0	test	<img class = center src='/static/experiments/beast_fmri_test/images/redT.png'></img>	go	2250.0	2.0	43.0	go	non-target	T	89,Middle Finger	71,Index Finger	650.0	500.0	2100.0	2250.0	1.0	n/a	500.0	1.0	ITI
214304	500	n/a	-1	-1	500	0.0	fixation	poldrack-single-stim	95	368332	0.0-7.44-0.44	beast_fmri_test	387	368226,/	t	<div class = centerbox2><div class = fixation>+</div></div>	none	500.0	test	n/a	n/a	n/a	n/a	n/a	n/a	n/a	n/a	n/a	n/a	n/a	n/a	n/a	n/a	n/a	n/a	n/a	n/a	fixation
209306.0	2750	n/a	942	71	2750	5000.0	stim	stop-signal	96	371084	0.0-7.44-1.44	beast_fmri_test	387	368906,/,369586,/,370267,/,370947,/,371627,/,372307,/,372990,/,373666,/,374346,/,375026,/,375707,/	t,t,t,t,t,t,t,t,t,t,t	<img class = center src='/static/experiments/beast_fmri_test/images/D.png'></img>	89,71	2750.0	test	<img class = center src='/static/experiments/beast_fmri_test/images/redD.png'></img>	go	2250.0	2.0	44.0	go	non-target	D	89,Middle Finger	71,Index Finger	650.0	500.0	2100.0	2250.0	1.0	n/a	500.0	1.0	go_stim
212056.0	5000.0	n/a	942	71	2750	5000.0	stim	stop-signal	96	371084	0.0-7.44-1.44	beast_fmri_test	387	368906,/,369586,/,370267,/,370947,/,371627,/,372307,/,372990,/,373666,/,374346,/,375026,/,375707,/	t,t,t,t,t,t,t,t,t,t,t	<img class = center src='/static/experiments/beast_fmri_test/images/D.png'></img>	89,71	2750.0	test	<img class = center src='/static/experiments/beast_fmri_test/images/redD.png'></img>	go	2250.0	2.0	44.0	go	non-target	D	89,Middle Finger	71,Index Finger	650.0	500.0	2100.0	2250.0	1.0	n/a	500.0	1.0	ITI
222563	500	n/a	-1	-1	500	0.0	fixation	poldrack-single-stim	97	376591	0.0-7.45-0.45	beast_fmri_test	387	376387,/	t	<div class = centerbox2><div class = fixation>+</div></div>	none	500.0	test	n/a	n/a	n/a	n/a	n/a	n/a	n/a	n/a	n/a	n/a	n/a	n/a	n/a	n/a	n/a	n/a	n/a	n/a	fixation
222005.98828240001	2750	n/a	790	89	2750	558.0117176	stim	stop-signal	98	379342	0.0-7.45-1.45	beast_fmri_test	387	377067,/,377747,/,378426,/,379107,/,379787,/	t,t,t,t,t	<img class = center src='/static/experiments/beast_fmri_test/images/T.png'></img>	89,71	2750.0	test	<img class = center src='/static/experiments/beast_fmri_test/images/redT.png'></img>	go	2100.0	2.0	45.0	go	target	T	89,Middle Finger	71,Index Finger	650.0	500.0	2100.0	2250.0	1.0	n/a	650.0	1.0	go_stim
224755.98828240001	558.0117176	n/a	790	89	2750	558.0117176	stim	stop-signal	98	379342	0.0-7.45-1.45	beast_fmri_test	387	377067,/,377747,/,378426,/,379107,/,379787,/	t,t,t,t,t	<img class = center src='/static/experiments/beast_fmri_test/images/T.png'></img>	89,71	2750.0	test	<img class = center src='/static/experiments/beast_fmri_test/images/redT.png'></img>	go	2100.0	2.0	45.0	go	target	T	89,Middle Finger	71,Index Finger	650.0	500.0	2100.0	2250.0	1.0	n/a	650.0	1.0	ITI
226379	500	n/a	-1	-1	500	0.0	fixation	poldrack-single-stim	99	380407	0.0-7.46-0.46	beast_fmri_test	387	n/a	n/a	<div class = centerbox2><div class = fixation>+</div></div>	none	500.0	test	n/a	n/a	n/a	n/a	n/a	n/a	n/a	n/a	n/a	n/a	n/a	n/a	n/a	n/a	n/a	n/a	n/a	n/a	fixation
225516.59819609998	2750	n/a	678	71	2750	864.4018039	stim	stop-signal	100	383159	0.0-7.46-1.46	beast_fmri_test	387	380467,/,381147,/,381827,/,382507,/,383187,/,383867,/	t,t,t,t,t,t	<img class = center src='/static/experiments/beast_fmri_test/images/P.png'></img>	89,71	2750.0	test	<img class = center src='/static/experiments/beast_fmri_test/images/redP.png'></img>	go	2250.0	2.0	46.0	go	non-target	P	89,Middle Finger	71,Index Finger	650.0	500.0	2100.0	2250.0	1.0	n/a	500.0	1.0	go_stim
228266.59819609998	864.40180389999989	n/a	678	71	2750	864.4018039	stim	stop-signal	100	383159	0.0-7.46-1.46	beast_fmri_test	387	380467,/,381147,/,381827,/,382507,/,383187,/,383867,/	t,t,t,t,t,t	<img class = center src='/static/experiments/beast_fmri_test/images/P.png'></img>	89,71	2750.0	test	<img class = center src='/static/experiments/beast_fmri_test/images/redP.png'></img>	go	2250.0	2.0	46.0	go	non-target	P	89,Middle Finger	71,Index Finger	650.0	500.0	2100.0	2250.0	1.0	n/a	500.0	1.0	ITI
245000	15000	n/a	-1	-1	15000	0.0	practice-no-stop-feedback	poldrack-single-stim	101	399028	0.0-8.0	beast_fmri_test	387	384547,/,385227,/,385908,/,386587,/,387267,/,387947,/,388627,/,389307,/,389987,/,390667,/,391347,/,392027,/,392707,/,393387,/,394067,/,394747,/,395427,/,396108,/,396787,/,397467,/,398147,/,398827,/	t,t,t,t,t,t,t,t,t,t,t,t,t,t,t,t,t,t,t,t,t,t	"<div class = ""centerbox2_2""><p class = ""block-text2"">Your delay is 3 trials.</p><p class = block-text2>Please wait for the scanner to start the block</p></div>"	77	15000.0	n/a	n/a	n/a	n/a	n/a	n/a	n/a	n/a	n/a	n/a	n/a	n/a	n/a	n/a	n/a	n/a	n/a	n/a	n/a	practice-no-stop-feedback
245502	500	n/a	-1	-1	500	0.0	fixation	poldrack-single-stim	102	399530	0.0-9.0-0.0	beast_fmri_test	387	399507,/	t	<div class = centerbox2><div class = fixation>+</div></div>	none	500.0	test	n/a	n/a	n/a	n/a	n/a	n/a	n/a	n/a	n/a	n/a	n/a	n/a	n/a	n/a	n/a	n/a	n/a	n/a	fixation
245227.85462130001	2750	n/a	768	71	2750	276.1453787	stim	stop-signal	103	402282	0.0-9.0-1.0	beast_fmri_test	387	400186,/,400866,/,401547,/,402227,/	t,t,t,t	<img class = center src='/static/experiments/beast_fmri_test/images/D.png'></img>	89,71	2750.0	test	<img class = center src='/static/experiments/beast_fmri_test/images/redD.png'></img>	go	-1.0	3.0	0.0	go	temp-non-target	D	89,Middle Finger	71,Index Finger	650.0	500.0	2100.0	2250.0	0.0	n/a	n/a	n/a	go_stim
247977.85462130001	276.14537869999998	n/a	768	71	2750	276.1453787	stim	stop-signal	103	402282	0.0-9.0-1.0	beast_fmri_test	387	400186,/,400866,/,401547,/,402227,/	t,t,t,t	<img class = center src='/static/experiments/beast_fmri_test/images/D.png'></img>	89,71	2750.0	test	<img class = center src='/static/experiments/beast_fmri_test/images/redD.png'></img>	go	-1.0	3.0	0.0	go	temp-non-target	D	89,Middle Finger	71,Index Finger	650.0	500.0	2100.0	2250.0	0.0	n/a	n/a	n/a	ITI
249035	500	n/a	-1	-1	500	0.0	fixation	poldrack-single-stim	104	403063	0.0-9.1-0.1	beast_fmri_test	387	402906,/	t	<div class = centerbox2><div class = fixation>+</div></div>	none	500.0	test	n/a	n/a	n/a	n/a	n/a	n/a	n/a	n/a	n/a	n/a	n/a	n/a	n/a	n/a	n/a	n/a	n/a	n/a	fixation
248005.95056000003	temp_go_duration	n/a	916	71	2750	1031.04944	stim	stop-signal	105	405815	0.0-9.1-1.1	beast_fmri_test	387	403587,/,404266,/,404947,/,405626,/,406308,/	t,t,t,t,t	<img class = center src='/static/experiments/beast_fmri_test/images/P.png'></img>	89,71	2750.0	test	<img class = center src='/static/experiments/beast_fmri_test/images/redP.png'></img>	stop	-1.0	3.0	1.0	stop	temp-non-target	P	89,Middle Finger	71,Index Finger	650.0	500.0	2100.0	2250.0	0.0	0.0	n/a	n/a	go_stim
temp-non-target	temp_stop_duration	n/a	916	71	2750	1031.04944	stim	stop-signal	105	405815	0.0-9.1-1.1	beast_fmri_test	387	403587,/,404266,/,404947,/,405626,/,406308,/	t,t,t,t,t	<img class = center src='/static/experiments/beast_fmri_test/images/P.png'></img>	89,71	2750.0	test	<img class = center src='/static/experiments/beast_fmri_test/images/redP.png'></img>	stop	-1.0	3.0	1.0	stop	temp-non-target	P	89,Middle Finger	71,Index Finger	650.0	500.0	2100.0	2250.0	0.0	0.0	n/a	n/a	stop_stim
250755.95056000003	1031.04944	n/a	916	71	2750	1031.04944	stim	stop-signal	105	405815	0.0-9.1-1.1	beast_fmri_test	387	403587,/,404266,/,404947,/,405626,/,406308,/	t,t,t,t,t	<img class = center src='/static/experiments/beast_fmri_test/images/P.png'></img>	89,71	2750.0	test	<img class = center src='/static/experiments/beast_fmri_test/images/redP.png'></img>	stop	-1.0	3.0	1.0	stop	temp-non-target	P	89,Middle Finger	71,Index Finger	650.0	500.0	2100.0	2250.0	0.0	0.0	n/a	n/a	ITI
253325	500	n/a	-1	-1	500	0.0	fixation	poldrack-single-stim	106	407353	0.0-9.2-0.2	beast_fmri_test	387	406987,/	t	<div class = centerbox2><div class = fixation>+</div></div>	none	500.0	test	n/a	n/a	n/a	n/a	n/a	n/a	n/a	n/a	n/a	n/a	n/a	n/a	n/a	n/a	n/a	n/a	n/a	n/a	fixation
252981.54388239997	temp_go_duration	n/a	1510	71	2750	345.4561176	stim	stop-signal	107	410105	0.0-9.2-1.2	beast_fmri_test	387	407667,/,408347,/,409027,/,409706,/,410387,/	t,t,t,t,t	<img class = center src='/static/experiments/beast_fmri_test/images/P.png'></img>	89,71	2750.0	test	<img class = center src='/static/experiments/beast_fmri_test/images/redP.png'></img>	stop	-1.0	3.0	2.0	stop	temp-non-target	P	89,Middle Finger	71,Index Finger	650.0	500.0	2100.0	2250.0	0.0	0.0	n/a	n/a	go_stim
temp-non-target	temp_stop_duration	n/a	1510	71	2750	345.4561176	stim	stop-signal	107	410105	0.0-9.2-1.2	beast_fmri_test	387	407667,/,408347,/,409027,/,409706,/,410387,/	t,t,t,t,t	<img class = center src='/static/experiments/beast_fmri_test/images/P.png'></img>	89,71	2750.0	test	<img class = center src='/static/experiments/beast_fmri_test/images/redP.png'></img>	stop	-1.0	3.0	2.0	stop	temp-non-target	P	89,Middle Finger	71,Index Finger	650.0	500.0	2100.0	2250.0	0.0	0.0	n/a	n/a	stop_stim
255731.54388239997	345.45611760000003	n/a	1510	71	2750	345.4561176	stim	stop-signal	107	410105	0.0-9.2-1.2	beast_fmri_test	387	407667,/,408347,/,409027,/,409706,/,410387,/	t,t,t,t,t	<img class = center src='/static/experiments/beast_fmri_test/images/P.png'></img>	89,71	2750.0	test	<img class = center src='/static/experiments/beast_fmri_test/images/redP.png'></img>	stop	-1.0	3.0	2.0	stop	temp-non-target	P	89,Middle Finger	71,Index Finger	650.0	500.0	2100.0	2250.0	0.0	0.0	n/a	n/a	ITI
256929	500	n/a	-1	-1	500	0.0	fixation	poldrack-single-stim	108	410957	0.0-9.3-0.3	beast_fmri_test	387	n/a	n/a	<div class = centerbox2><div class = fixation>+</div></div>	none	500.0	test	n/a	n/a	n/a	n/a	n/a	n/a	n/a	n/a	n/a	n/a	n/a	n/a	n/a	n/a	n/a	n/a	n/a	n/a	fixation
256883.92172740999	2750	n/a	1103	71	2750	47.07827259	stim	stop-signal	109	413709	0.0-9.3-1.3	beast_fmri_test	387	411066,/,411747,/,412427,/,413107,/	t,t,t,t	<img class = center src='/static/experiments/beast_fmri_test/images/V.png'></img>	89,71	2750.0	test	<img class = center src='/static/experiments/beast_fmri_test/images/redV.png'></img>	go	2250.0	3.0	3.0	go	non-target	V	89,Middle Finger	71,Index Finger	650.0	500.0	2100.0	2250.0	1.0	n/a	500.0	1.0	go_stim
259633.92172740999	47.078272589999997	n/a	1103	71	2750	47.07827259	stim	stop-signal	109	413709	0.0-9.3-1.3	beast_fmri_test	387	411066,/,411747,/,412427,/,413107,/	t,t,t,t	<img class = center src='/static/experiments/beast_fmri_test/images/V.png'></img>	89,71	2750.0	test	<img class = center src='/static/experiments/beast_fmri_test/images/redV.png'></img>	go	2250.0	3.0	3.0	go	non-target	V	89,Middle Finger	71,Index Finger	650.0	500.0	2100.0	2250.0	1.0	n/a	500.0	1.0	ITI
260236	500	n/a	-1	-1	500	0.0	fixation	poldrack-single-stim	110	414264	0.0-9.4-0.4	beast_fmri_test	387	413787,/	t	<div class = centerbox2><div class = fixation>+</div></div>	none	500.0	test	n/a	n/a	n/a	n/a	n/a	n/a	n/a	n/a	n/a	n/a	n/a	n/a	n/a	n/a	n/a	n/a	n/a	n/a	fixation
257676.989122	2750	n/a	1885	71	2750	2561.010878	stim	stop-signal	111	417016	0.0-9.4-1.4	beast_fmri_test	387	414468,/,415147,/,415827,/,416508,/,417187,/,417867,/,418547,/,419227,/	t,t,t,t,t,t,t,t	<img class = center src='/static/experiments/beast_fmri_test/images/P.png'></img>	89,71	2750.0	test	<img class = center src='/static/experiments/beast_fmri_test/images/redP.png'></img>	go	2100.0	3.0	4.0	go	target	P	89,Middle Finger	71,Index Finger	650.0	500.0	2100.0	2250.0	0.0	n/a	650.0	0.0	go_stim
260426.989122	2561.010878	n/a	1885	71	2750	2561.010878	stim	stop-signal	111	417016	0.0-9.4-1.4	beast_fmri_test	387	414468,/,415147,/,415827,/,416508,/,417187,/,417867,/,418547,/,419227,/	t,t,t,t,t,t,t,t	<img class = center src='/static/experiments/beast_fmri_test/images/P.png'></img>	89,71	2750.0	test	<img class = center src='/static/experiments/beast_fmri_test/images/redP.png'></img>	go	2100.0	3.0	4.0	go	target	P	89,Middle Finger	71,Index Finger	650.0	500.0	2100.0	2250.0	0.0	n/a	650.0	0.0	ITI
266056	500	n/a	-1	-1	500	0.0	fixation	poldrack-single-stim	112	420084	0.0-9.5-0.5	beast_fmri_test	387	419907,/	t	<div class = centerbox2><div class = fixation>+</div></div>	none	500.0	test	n/a	n/a	n/a	n/a	n/a	n/a	n/a	n/a	n/a	n/a	n/a	n/a	n/a	n/a	n/a	n/a	n/a	n/a	fixation
266001.65937752998	2750	n/a	1825	71	2750	56.34062247	stim	stop-signal	113	422836	0.0-9.5-1.5	beast_fmri_test	387	420587,/,421267,/,421947,/,422627,/	t,t,t,t	<img class = center src='/static/experiments/beast_fmri_test/images/B.png'></img>	89,71	2750.0	test	<img class = center src='/static/experiments/beast_fmri_test/images/redB.png'></img>	go	2250.0	3.0	5.0	go	non-target	B	89,Middle Finger	71,Index Finger	650.0	500.0	2100.0	2250.0	1.0	n/a	500.0	1.0	go_stim
268751.65937752998	56.34062247	n/a	1825	71	2750	56.34062247	stim	stop-signal	113	422836	0.0-9.5-1.5	beast_fmri_test	387	420587,/,421267,/,421947,/,422627,/	t,t,t,t	<img class = center src='/static/experiments/beast_fmri_test/images/B.png'></img>	89,71	2750.0	test	<img class = center src='/static/experiments/beast_fmri_test/images/redB.png'></img>	go	2250.0	3.0	5.0	go	non-target	B	89,Middle Finger	71,Index Finger	650.0	500.0	2100.0	2250.0	1.0	n/a	500.0	1.0	ITI
269371	500	n/a	-1	-1	500	0.0	fixation	poldrack-single-stim	114	423399	0.0-9.6-0.6	beast_fmri_test	387	423307,/	t	<div class = centerbox2><div class = fixation>+</div></div>	none	500.0	test	n/a	n/a	n/a	n/a	n/a	n/a	n/a	n/a	n/a	n/a	n/a	n/a	n/a	n/a	n/a	n/a	n/a	n/a	fixation
269245.06831469998	2750	n/a	2101	71	2750	127.9316853	stim	stop-signal	115	426151	0.0-9.6-1.6	beast_fmri_test	387	423987,/,424667,/,425347,/,426027,/	t,t,t,t	<img class = center src='/static/experiments/beast_fmri_test/images/B.png'></img>	89,71	2750.0	test	<img class = center src='/static/experiments/beast_fmri_test/images/redB.png'></img>	go	2250.0	3.0	6.0	go	non-target	B	89,Middle Finger	71,Index Finger	650.0	500.0	2100.0	2250.0	1.0	n/a	500.0	1.0	go_stim
271995.06831469998	127.93168529999998	n/a	2101	71	2750	127.9316853	stim	stop-signal	115	426151	0.0-9.6-1.6	beast_fmri_test	387	423987,/,424667,/,425347,/,426027,/	t,t,t,t	<img class = center src='/static/experiments/beast_fmri_test/images/B.png'></img>	89,71	2750.0	test	<img class = center src='/static/experiments/beast_fmri_test/images/redB.png'></img>	go	2250.0	3.0	6.0	go	non-target	B	89,Middle Finger	71,Index Finger	650.0	500.0	2100.0	2250.0	1.0	n/a	500.0	1.0	ITI
272758	500	n/a	-1	-1	500	0.0	fixation	poldrack-single-stim	116	426786	0.0-9.7-0.7	beast_fmri_test	387	426707,/	t	<div class = centerbox2><div class = fixation>+</div></div>	none	500.0	test	n/a	n/a	n/a	n/a	n/a	n/a	n/a	n/a	n/a	n/a	n/a	n/a	n/a	n/a	n/a	n/a	n/a	n/a	fixation
272358.74695070001	500.0	n/a	-1	-1	2750	401.2530493	stim	stop-signal	117	429538	0.0-9.7-1.7	beast_fmri_test	387	427387,/,428067,/,428747,/,429427,/	t,t,t,t	<img class = center src='/static/experiments/beast_fmri_test/images/D.png'></img>	89,71	2750.0	test	<img class = center src='/static/experiments/beast_fmri_test/images/redD.png'></img>	stop	2250.0	3.0	7.0	stop	non-target	D	89,Middle Finger	71,Index Finger	650.0	500.0	2100.0	2250.0	0.0	1.0	500.0	n/a	go_stim
274608.74695070001	2250.0	n/a	-1	-1	2750	401.2530493	stim	stop-signal	117	429538	0.0-9.7-1.7	beast_fmri_test	387	427387,/,428067,/,428747,/,429427,/	t,t,t,t	<img class = center src='/static/experiments/beast_fmri_test/images/D.png'></img>	89,71	2750.0	test	<img class = center src='/static/experiments/beast_fmri_test/images/redD.png'></img>	stop	2250.0	3.0	7.0	stop	non-target	D	89,Middle Finger	71,Index Finger	650.0	500.0	2100.0	2250.0	0.0	1.0	500.0	n/a	stop_stim
275108.74695070001	401.25304930000004	n/a	-1	-1	2750	401.2530493	stim	stop-signal	117	429538	0.0-9.7-1.7	beast_fmri_test	387	427387,/,428067,/,428747,/,429427,/	t,t,t,t	<img class = center src='/static/experiments/beast_fmri_test/images/D.png'></img>	89,71	2750.0	test	<img class = center src='/static/experiments/beast_fmri_test/images/redD.png'></img>	stop	2250.0	3.0	7.0	stop	non-target	D	89,Middle Finger	71,Index Finger	650.0	500.0	2100.0	2250.0	0.0	1.0	500.0	n/a	ITI
276417	500	n/a	-1	-1	500	0.0	fixation	poldrack-single-stim	118	430445	0.0-9.8-0.8	beast_fmri_test	387	430107,/	t	<div class = centerbox2><div class = fixation>+</div></div>	none	500.0	test	n/a	n/a	n/a	n/a	n/a	n/a	n/a	n/a	n/a	n/a	n/a	n/a	n/a	n/a	n/a	n/a	n/a	n/a	fixation
275528.40923320001	2750	n/a	1676	71	2750	891.5907668	stim	stop-signal	119	433198	0.0-9.8-1.8	beast_fmri_test	387	430787,/,431467,/,432147,/,432827,/,433507,/	t,t,t,t,t	<img class = center src='/static/experiments/beast_fmri_test/images/T.png'></img>	89,71	2750.0	test	<img class = center src='/static/experiments/beast_fmri_test/images/redT.png'></img>	go	2200.0	3.0	8.0	go	non-target	T	89,Middle Finger	71,Index Finger	650.0	550.0	2100.0	2200.0	1.0	n/a	550.0	1.0	go_stim
278278.40923320001	891.59076679999998	n/a	1676	71	2750	891.5907668	stim	stop-signal	119	433198	0.0-9.8-1.8	beast_fmri_test	387	430787,/,431467,/,432147,/,432827,/,433507,/	t,t,t,t,t	<img class = center src='/static/experiments/beast_fmri_test/images/T.png'></img>	89,71	2750.0	test	<img class = center src='/static/experiments/beast_fmri_test/images/redT.png'></img>	go	2200.0	3.0	8.0	go	non-target	T	89,Middle Finger	71,Index Finger	650.0	550.0	2100.0	2200.0	1.0	n/a	550.0	1.0	ITI
280568	500	n/a	-1	-1	500	0.0	fixation	poldrack-single-stim	120	434596	0.0-9.9-0.9	beast_fmri_test	387	434187,/	t	<div class = centerbox2><div class = fixation>+</div></div>	none	500.0	test	n/a	n/a	n/a	n/a	n/a	n/a	n/a	n/a	n/a	n/a	n/a	n/a	n/a	n/a	n/a	n/a	n/a	n/a	fixation
280084.2979144	2750	n/a	1383	89	2750	485.7020856	stim	stop-signal	121	437348	0.0-9.9-1.9	beast_fmri_test	387	434867,/,435547,/,436226,/,436907,/,437587,/	t,t,t,t,t	<img class = center src='/static/experiments/beast_fmri_test/images/T.png'></img>	89,71	2750.0	test	<img class = center src='/static/experiments/beast_fmri_test/images/redT.png'></img>	go	2200.0	3.0	9.0	go	non-target	T	89,Middle Finger	71,Index Finger	650.0	550.0	2100.0	2200.0	0.0	n/a	550.0	0.0	go_stim
282834.2979144	485.70208560000009	n/a	1383	89	2750	485.7020856	stim	stop-signal	121	437348	0.0-9.9-1.9	beast_fmri_test	387	434867,/,435547,/,436226,/,436907,/,437587,/	t,t,t,t,t	<img class = center src='/static/experiments/beast_fmri_test/images/T.png'></img>	89,71	2750.0	test	<img class = center src='/static/experiments/beast_fmri_test/images/redT.png'></img>	go	2200.0	3.0	9.0	go	non-target	T	89,Middle Finger	71,Index Finger	650.0	550.0	2100.0	2200.0	0.0	n/a	550.0	0.0	ITI
284312	500	n/a	-1	-1	500	0.0	fixation	poldrack-single-stim	122	438340	0.0-9.10-0.10	beast_fmri_test	387	438266,/	t	<div class = centerbox2><div class = fixation>+</div></div>	none	500.0	test	n/a	n/a	n/a	n/a	n/a	n/a	n/a	n/a	n/a	n/a	n/a	n/a	n/a	n/a	n/a	n/a	n/a	n/a	fixation
283528.9147807	2750	n/a	1734	71	2750	785.0852193	stim	stop-signal	123	441092	0.0-9.10-1.10	beast_fmri_test	387	438946,/,439627,/,440306,/,440986,/,441667,/	t,t,t,t,t	<img class = center src='/static/experiments/beast_fmri_test/images/B.png'></img>	89,71	2750.0	test	<img class = center src='/static/experiments/beast_fmri_test/images/redB.png'></img>	go	2200.0	3.0	10.0	go	non-target	B	89,Middle Finger	71,Index Finger	650.0	550.0	2100.0	2200.0	1.0	n/a	550.0	1.0	go_stim
286278.9147807	785.08521929999995	n/a	1734	71	2750	785.0852193	stim	stop-signal	123	441092	0.0-9.10-1.10	beast_fmri_test	387	438946,/,439627,/,440306,/,440986,/,441667,/	t,t,t,t,t	<img class = center src='/static/experiments/beast_fmri_test/images/B.png'></img>	89,71	2750.0	test	<img class = center src='/static/experiments/beast_fmri_test/images/redB.png'></img>	go	2200.0	3.0	10.0	go	non-target	B	89,Middle Finger	71,Index Finger	650.0	550.0	2100.0	2200.0	1.0	n/a	550.0	1.0	ITI
288356	500	n/a	-1	-1	500	0.0	fixation	poldrack-single-stim	124	442384	0.0-9.11-0.11	beast_fmri_test	387	442346,/	t	<div class = centerbox2><div class = fixation>+</div></div>	none	500.0	test	n/a	n/a	n/a	n/a	n/a	n/a	n/a	n/a	n/a	n/a	n/a	n/a	n/a	n/a	n/a	n/a	n/a	n/a	fixation
287213.20050400001	2750	n/a	2138	71	2750	1144.799496	stim	stop-signal	125	445136	0.0-9.11-1.11	beast_fmri_test	387	443027,/,443706,/,444386,/,445067,/,445747,/	t,t,t,t,t	<img class = center src='/static/experiments/beast_fmri_test/images/T.png'></img>	89,71	2750.0	test	<img class = center src='/static/experiments/beast_fmri_test/images/redT.png'></img>	go	2100.0	3.0	11.0	go	target	T	89,Middle Finger	71,Index Finger	650.0	550.0	2100.0	2200.0	0.0	n/a	650.0	0.0	go_stim
289963.20050400001	1144.7994960000001	n/a	2138	71	2750	1144.799496	stim	stop-signal	125	445136	0.0-9.11-1.11	beast_fmri_test	387	443027,/,443706,/,444386,/,445067,/,445747,/	t,t,t,t,t	<img class = center src='/static/experiments/beast_fmri_test/images/T.png'></img>	89,71	2750.0	test	<img class = center src='/static/experiments/beast_fmri_test/images/redT.png'></img>	go	2100.0	3.0	11.0	go	target	T	89,Middle Finger	71,Index Finger	650.0	550.0	2100.0	2200.0	0.0	n/a	650.0	0.0	ITI
292759	500	n/a	-1	-1	500	0.0	fixation	poldrack-single-stim	126	446787	0.0-9.12-0.12	beast_fmri_test	387	446427,/	t	<div class = centerbox2><div class = fixation>+</div></div>	none	500.0	test	n/a	n/a	n/a	n/a	n/a	n/a	n/a	n/a	n/a	n/a	n/a	n/a	n/a	n/a	n/a	n/a	n/a	n/a	fixation
292005.6229592	2750	n/a	1141	89	2750	755.3770408	stim	stop-signal	127	449539	0.0-9.12-1.12	beast_fmri_test	387	447108,/,447787,/,448467,/,449147,/,449827,/	t,t,t,t,t	<img class = center src='/static/experiments/beast_fmri_test/images/T.png'></img>	89,71	2750.0	test	<img class = center src='/static/experiments/beast_fmri_test/images/redT.png'></img>	go	2100.0	3.0	12.0	go	target	T	89,Middle Finger	71,Index Finger	650.0	550.0	2100.0	2200.0	1.0	n/a	650.0	1.0	go_stim
294755.6229592	755.37704080000003	n/a	1141	89	2750	755.3770408	stim	stop-signal	127	449539	0.0-9.12-1.12	beast_fmri_test	387	447108,/,447787,/,448467,/,449147,/,449827,/	t,t,t,t,t	<img class = center src='/static/experiments/beast_fmri_test/images/T.png'></img>	89,71	2750.0	test	<img class = center src='/static/experiments/beast_fmri_test/images/redT.png'></img>	go	2100.0	3.0	12.0	go	target	T	89,Middle Finger	71,Index Finger	650.0	550.0	2100.0	2200.0	1.0	n/a	650.0	1.0	ITI
296775	500	n/a	-1	-1	500	0.0	fixation	poldrack-single-stim	128	450803	0.0-9.13-0.13	beast_fmri_test	387	450507,/	t	<div class = centerbox2><div class = fixation>+</div></div>	none	500.0	test	n/a	n/a	n/a	n/a	n/a	n/a	n/a	n/a	n/a	n/a	n/a	n/a	n/a	n/a	n/a	n/a	n/a	n/a	fixation
296499.0965553	650.0	n/a	-1	-1	2750	277.9034447	stim	stop-signal	129	453555	0.0-9.13-1.13	beast_fmri_test	387	451187,/,451867,/,452547,/,453227,/	t,t,t,t	<img class = center src='/static/experiments/beast_fmri_test/images/B.png'></img>	89,71	2750.0	test	<img class = center src='/static/experiments/beast_fmri_test/images/redB.png'></img>	stop	2100.0	3.0	13.0	stop	target	B	89,Middle Finger	71,Index Finger	650.0	550.0	2100.0	2200.0	0.0	1.0	650.0	n/a	go_stim
298599.0965553	2100.0	n/a	-1	-1	2750	277.9034447	stim	stop-signal	129	453555	0.0-9.13-1.13	beast_fmri_test	387	451187,/,451867,/,452547,/,453227,/	t,t,t,t	<img class = center src='/static/experiments/beast_fmri_test/images/B.png'></img>	89,71	2750.0	test	<img class = center src='/static/experiments/beast_fmri_test/images/redB.png'></img>	stop	2100.0	3.0	13.0	stop	target	B	89,Middle Finger	71,Index Finger	650.0	550.0	2100.0	2200.0	0.0	1.0	650.0	n/a	stop_stim
299249.0965553	277.90344469999997	n/a	-1	-1	2750	277.9034447	stim	stop-signal	129	453555	0.0-9.13-1.13	beast_fmri_test	387	451187,/,451867,/,452547,/,453227,/	t,t,t,t	<img class = center src='/static/experiments/beast_fmri_test/images/B.png'></img>	89,71	2750.0	test	<img class = center src='/static/experiments/beast_fmri_test/images/redB.png'></img>	stop	2100.0	3.0	13.0	stop	target	B	89,Middle Finger	71,Index Finger	650.0	550.0	2100.0	2200.0	0.0	1.0	650.0	n/a	ITI
300311	500	n/a	-1	-1	500	0.0	fixation	poldrack-single-stim	130	454339	0.0-9.14-0.14	beast_fmri_test	387	453907,/	t	<div class = centerbox2><div class = fixation>+</div></div>	none	500.0	test	n/a	n/a	n/a	n/a	n/a	n/a	n/a	n/a	n/a	n/a	n/a	n/a	n/a	n/a	n/a	n/a	n/a	n/a	fixation
299824.80108579999	2750	n/a	1835	89	2750	489.1989142	stim	stop-signal	131	457092	0.0-9.14-1.14	beast_fmri_test	387	454587,/,455267,/,455947,/,456627,/,457308,/	t,t,t,t,t	<img class = center src='/static/experiments/beast_fmri_test/images/T.png'></img>	89,71	2750.0	test	<img class = center src='/static/experiments/beast_fmri_test/images/redT.png'></img>	go	2050.0	3.0	14.0	go	target	T	89,Middle Finger	71,Index Finger	700.0	550.0	2050.0	2200.0	1.0	n/a	700.0	1.0	go_stim
302574.80108579999	489.19891419999999	n/a	1835	89	2750	489.1989142	stim	stop-signal	131	457092	0.0-9.14-1.14	beast_fmri_test	387	454587,/,455267,/,455947,/,456627,/,457308,/	t,t,t,t,t	<img class = center src='/static/experiments/beast_fmri_test/images/T.png'></img>	89,71	2750.0	test	<img class = center src='/static/experiments/beast_fmri_test/images/redT.png'></img>	go	2050.0	3.0	14.0	go	target	T	89,Middle Finger	71,Index Finger	700.0	550.0	2050.0	2200.0	1.0	n/a	700.0	1.0	ITI
304061	500	n/a	-1	-1	500	0.0	fixation	poldrack-single-stim	132	458089	0.0-9.15-0.15	beast_fmri_test	387	457987,/	t	<div class = centerbox2><div class = fixation>+</div></div>	none	500.0	test	n/a	n/a	n/a	n/a	n/a	n/a	n/a	n/a	n/a	n/a	n/a	n/a	n/a	n/a	n/a	n/a	n/a	n/a	fixation
302246.39026900003	2750	n/a	-1	-1	2750	1816.609731	stim	stop-signal	133	460841	0.0-9.15-1.15	beast_fmri_test	387	458667,/,459347,/,460027,/,460707,/,461387,/,462067,/	t,t,t,t,t,t	<img class = center src='/static/experiments/beast_fmri_test/images/B.png'></img>	89,71	2750.0	test	<img class = center src='/static/experiments/beast_fmri_test/images/redB.png'></img>	go	2200.0	3.0	15.0	go	non-target	B	89,Middle Finger	71,Index Finger	700.0	550.0	2050.0	2200.0	0.0	n/a	550.0	0.0	go_stim
304996.39026900003	1816.6097309999998	n/a	-1	-1	2750	1816.609731	stim	stop-signal	133	460841	0.0-9.15-1.15	beast_fmri_test	387	458667,/,459347,/,460027,/,460707,/,461387,/,462067,/	t,t,t,t,t,t	<img class = center src='/static/experiments/beast_fmri_test/images/B.png'></img>	89,71	2750.0	test	<img class = center src='/static/experiments/beast_fmri_test/images/redB.png'></img>	go	2200.0	3.0	15.0	go	non-target	B	89,Middle Finger	71,Index Finger	700.0	550.0	2050.0	2200.0	0.0	n/a	550.0	0.0	ITI
309137	500	n/a	-1	-1	500	0.0	fixation	poldrack-single-stim	134	463165	0.0-9.16-0.16	beast_fmri_test	387	462747,/	t	<div class = centerbox2><div class = fixation>+</div></div>	none	500.0	test	n/a	n/a	n/a	n/a	n/a	n/a	n/a	n/a	n/a	n/a	n/a	n/a	n/a	n/a	n/a	n/a	n/a	n/a	fixation
308000.37290000002	2750	n/a	1538	71	2750	1138.6271	stim	stop-signal	135	465917	0.0-9.16-1.16	beast_fmri_test	387	463427,/,464107,/,464787,/,465467,/,466147,/,466827,/	t,t,t,t,t,t	<img class = center src='/static/experiments/beast_fmri_test/images/V.png'></img>	89,71	2750.0	test	<img class = center src='/static/experiments/beast_fmri_test/images/redV.png'></img>	go	2200.0	3.0	16.0	go	non-target	V	89,Middle Finger	71,Index Finger	700.0	550.0	2050.0	2200.0	1.0	n/a	550.0	1.0	go_stim
310750.37290000002	1138.6270999999999	n/a	1538	71	2750	1138.6271	stim	stop-signal	135	465917	0.0-9.16-1.16	beast_fmri_test	387	463427,/,464107,/,464787,/,465467,/,466147,/,466827,/	t,t,t,t,t,t	<img class = center src='/static/experiments/beast_fmri_test/images/V.png'></img>	89,71	2750.0	test	<img class = center src='/static/experiments/beast_fmri_test/images/redV.png'></img>	go	2200.0	3.0	16.0	go	non-target	V	89,Middle Finger	71,Index Finger	700.0	550.0	2050.0	2200.0	1.0	n/a	550.0	1.0	ITI
313536	500	n/a	-1	-1	500	0.0	fixation	poldrack-single-stim	136	467564	0.0-9.17-0.17	beast_fmri_test	387	467508,/	t	<div class = centerbox2><div class = fixation>+</div></div>	none	500.0	test	n/a	n/a	n/a	n/a	n/a	n/a	n/a	n/a	n/a	n/a	n/a	n/a	n/a	n/a	n/a	n/a	n/a	n/a	fixation
308538.0	700.0	n/a	900	89	2750	5000.0	stim	stop-signal	137	470316	0.0-9.17-1.17	beast_fmri_test	387	468187,/,468867,/,469547,/,470226,/,470906,/,471587,/,472266,/,472947,/,473626,/,474306,/,474986,/	t,t,t,t,t,t,t,t,t,t,t	<img class = center src='/static/experiments/beast_fmri_test/images/T.png'></img>	89,71	2750.0	test	<img class = center src='/static/experiments/beast_fmri_test/images/redT.png'></img>	stop	2050.0	3.0	17.0	stop	target	T	89,Middle Finger	71,Index Finger	700.0	550.0	2050.0	2200.0	0.0	0.0	700.0	n/a	go_stim
310588.0	2050.0	n/a	900	89	2750	5000.0	stim	stop-signal	137	470316	0.0-9.17-1.17	beast_fmri_test	387	468187,/,468867,/,469547,/,470226,/,470906,/,471587,/,472266,/,472947,/,473626,/,474306,/,474986,/	t,t,t,t,t,t,t,t,t,t,t	<img class = center src='/static/experiments/beast_fmri_test/images/T.png'></img>	89,71	2750.0	test	<img class = center src='/static/experiments/beast_fmri_test/images/redT.png'></img>	stop	2050.0	3.0	17.0	stop	target	T	89,Middle Finger	71,Index Finger	700.0	550.0	2050.0	2200.0	0.0	0.0	700.0	n/a	stop_stim
311288.0	5000.0	n/a	900	89	2750	5000.0	stim	stop-signal	137	470316	0.0-9.17-1.17	beast_fmri_test	387	468187,/,468867,/,469547,/,470226,/,470906,/,471587,/,472266,/,472947,/,473626,/,474306,/,474986,/	t,t,t,t,t,t,t,t,t,t,t	<img class = center src='/static/experiments/beast_fmri_test/images/T.png'></img>	89,71	2750.0	test	<img class = center src='/static/experiments/beast_fmri_test/images/redT.png'></img>	stop	2050.0	3.0	17.0	stop	target	T	89,Middle Finger	71,Index Finger	700.0	550.0	2050.0	2200.0	0.0	0.0	700.0	n/a	ITI
321796	500	n/a	-1	-1	500	0.0	fixation	poldrack-single-stim	138	475824	0.0-9.18-0.18	beast_fmri_test	387	475667,/	t	<div class = centerbox2><div class = fixation>+</div></div>	none	500.0	test	n/a	n/a	n/a	n/a	n/a	n/a	n/a	n/a	n/a	n/a	n/a	n/a	n/a	n/a	n/a	n/a	n/a	n/a	fixation
321537.47286859999	2750	n/a	1458	71	2750	260.5271314	stim	stop-signal	139	478576	0.0-9.18-1.18	beast_fmri_test	387	476346,/,477027,/,477707,/,478387,/	t,t,t,t	<img class = center src='/static/experiments/beast_fmri_test/images/B.png'></img>	89,71	2750.0	test	<img class = center src='/static/experiments/beast_fmri_test/images/redB.png'></img>	go	2100.0	3.0	18.0	go	target	B	89,Middle Finger	71,Index Finger	650.0	550.0	2100.0	2200.0	0.0	n/a	650.0	0.0	go_stim
324287.47286859999	260.52713140000003	n/a	1458	71	2750	260.5271314	stim	stop-signal	139	478576	0.0-9.18-1.18	beast_fmri_test	387	476346,/,477027,/,477707,/,478387,/	t,t,t,t	<img class = center src='/static/experiments/beast_fmri_test/images/B.png'></img>	89,71	2750.0	test	<img class = center src='/static/experiments/beast_fmri_test/images/redB.png'></img>	go	2100.0	3.0	18.0	go	target	B	89,Middle Finger	71,Index Finger	650.0	550.0	2100.0	2200.0	0.0	n/a	650.0	0.0	ITI
325316	500	n/a	-1	-1	500	0.0	fixation	poldrack-single-stim	140	479344	0.0-9.19-0.19	beast_fmri_test	387	479068,/	t	<div class = centerbox2><div class = fixation>+</div></div>	none	500.0	test	n/a	n/a	n/a	n/a	n/a	n/a	n/a	n/a	n/a	n/a	n/a	n/a	n/a	n/a	n/a	n/a	n/a	n/a	fixation
325291.92023132998	2750	n/a	1964	71	2750	26.07976867	stim	stop-signal	141	482096	0.0-9.19-1.19	beast_fmri_test	387	479747,/,480427,/,481107,/,481787,/	t,t,t,t	<img class = center src='/static/experiments/beast_fmri_test/images/V.png'></img>	89,71	2750.0	test	<img class = center src='/static/experiments/beast_fmri_test/images/redV.png'></img>	go	2100.0	3.0	19.0	go	target	V	89,Middle Finger	71,Index Finger	650.0	550.0	2100.0	2200.0	0.0	n/a	650.0	0.0	go_stim
328041.92023132998	26.07976867	n/a	1964	71	2750	26.07976867	stim	stop-signal	141	482096	0.0-9.19-1.19	beast_fmri_test	387	479747,/,480427,/,481107,/,481787,/	t,t,t,t	<img class = center src='/static/experiments/beast_fmri_test/images/V.png'></img>	89,71	2750.0	test	<img class = center src='/static/experiments/beast_fmri_test/images/redV.png'></img>	go	2100.0	3.0	19.0	go	target	V	89,Middle Finger	71,Index Finger	650.0	550.0	2100.0	2200.0	0.0	n/a	650.0	0.0	ITI
328602	500	n/a	-1	-1	500	0.0	fixation	poldrack-single-stim	142	482630	0.0-9.20-0.20	beast_fmri_test	387	482467,/	t	<div class = centerbox2><div class = fixation>+</div></div>	none	500.0	test	n/a	n/a	n/a	n/a	n/a	n/a	n/a	n/a	n/a	n/a	n/a	n/a	n/a	n/a	n/a	n/a	n/a	n/a	fixation
328430.41632349999	2750	n/a	1676	71	2750	173.5836765	stim	stop-signal	143	485382	0.0-9.20-1.20	beast_fmri_test	387	483147,/,483827,/,484507,/,485187,/	t,t,t,t	<img class = center src='/static/experiments/beast_fmri_test/images/P.png'></img>	89,71	2750.0	test	<img class = center src='/static/experiments/beast_fmri_test/images/redP.png'></img>	go	2200.0	3.0	20.0	go	non-target	P	89,Middle Finger	71,Index Finger	650.0	550.0	2100.0	2200.0	1.0	n/a	550.0	1.0	go_stim
331180.41632349999	173.5836765	n/a	1676	71	2750	173.5836765	stim	stop-signal	143	485382	0.0-9.20-1.20	beast_fmri_test	387	483147,/,483827,/,484507,/,485187,/	t,t,t,t	<img class = center src='/static/experiments/beast_fmri_test/images/P.png'></img>	89,71	2750.0	test	<img class = center src='/static/experiments/beast_fmri_test/images/redP.png'></img>	go	2200.0	3.0	20.0	go	non-target	P	89,Middle Finger	71,Index Finger	650.0	550.0	2100.0	2200.0	1.0	n/a	550.0	1.0	ITI
332036	500	n/a	-1	-1	500	0.0	fixation	poldrack-single-stim	144	486064	0.0-9.21-0.21	beast_fmri_test	387	485867,/	t	<div class = centerbox2><div class = fixation>+</div></div>	none	500.0	test	n/a	n/a	n/a	n/a	n/a	n/a	n/a	n/a	n/a	n/a	n/a	n/a	n/a	n/a	n/a	n/a	n/a	n/a	fixation
331442.02584349999	2750	n/a	2135	71	2750	595.9741565	stim	stop-signal	145	488816	0.0-9.21-1.21	beast_fmri_test	387	486547,/,487227,/,487908,/,488587,/,489267,/	t,t,t,t,t	<img class = center src='/static/experiments/beast_fmri_test/images/T.png'></img>	89,71	2750.0	test	<img class = center src='/static/experiments/beast_fmri_test/images/redT.png'></img>	go	2200.0	3.0	21.0	go	non-target	T	89,Middle Finger	71,Index Finger	650.0	550.0	2100.0	2200.0	1.0	n/a	550.0	1.0	go_stim
334192.02584349999	595.97415650000005	n/a	2135	71	2750	595.9741565	stim	stop-signal	145	488816	0.0-9.21-1.21	beast_fmri_test	387	486547,/,487227,/,487908,/,488587,/,489267,/	t,t,t,t,t	<img class = center src='/static/experiments/beast_fmri_test/images/T.png'></img>	89,71	2750.0	test	<img class = center src='/static/experiments/beast_fmri_test/images/redT.png'></img>	go	2200.0	3.0	21.0	go	non-target	T	89,Middle Finger	71,Index Finger	650.0	550.0	2100.0	2200.0	1.0	n/a	550.0	1.0	ITI
335890	500	n/a	-1	-1	500	0.0	fixation	poldrack-single-stim	146	489918	0.0-9.22-0.22	beast_fmri_test	387	n/a	n/a	<div class = centerbox2><div class = fixation>+</div></div>	none	500.0	test	n/a	n/a	n/a	n/a	n/a	n/a	n/a	n/a	n/a	n/a	n/a	n/a	n/a	n/a	n/a	n/a	n/a	n/a	fixation
334918.50807709998	2750	n/a	1095	89	2750	972.4919229	stim	stop-signal	147	492669	0.0-9.22-1.22	beast_fmri_test	387	489947,/,490627,/,491307,/,491987,/,492667,/,493347,/	t,t,t,t,t,t	<img class = center src='/static/experiments/beast_fmri_test/images/P.png'></img>	89,71	2750.0	test	<img class = center src='/static/experiments/beast_fmri_test/images/redP.png'></img>	go	2200.0	3.0	22.0	go	non-target	P	89,Middle Finger	71,Index Finger	650.0	550.0	2100.0	2200.0	0.0	n/a	550.0	0.0	go_stim
337668.50807709998	972.49192290000008	n/a	1095	89	2750	972.4919229	stim	stop-signal	147	492669	0.0-9.22-1.22	beast_fmri_test	387	489947,/,490627,/,491307,/,491987,/,492667,/,493347,/	t,t,t,t,t,t	<img class = center src='/static/experiments/beast_fmri_test/images/P.png'></img>	89,71	2750.0	test	<img class = center src='/static/experiments/beast_fmri_test/images/redP.png'></img>	go	2200.0	3.0	22.0	go	non-target	P	89,Middle Finger	71,Index Finger	650.0	550.0	2100.0	2200.0	0.0	n/a	550.0	0.0	ITI
340122	500	n/a	-1	-1	500	0.0	fixation	poldrack-single-stim	148	494150	0.0-9.23-0.23	beast_fmri_test	387	494027,/	t	<div class = centerbox2><div class = fixation>+</div></div>	none	500.0	test	n/a	n/a	n/a	n/a	n/a	n/a	n/a	n/a	n/a	n/a	n/a	n/a	n/a	n/a	n/a	n/a	n/a	n/a	fixation
339036.56038500002	2750	n/a	1736	71	2750	1087.439615	stim	stop-signal	149	496902	0.0-9.23-1.23	beast_fmri_test	387	494707,/,495387,/,496067,/,496747,/,497427,/	t,t,t,t,t	<img class = center src='/static/experiments/beast_fmri_test/images/D.png'></img>	89,71	2750.0	test	<img class = center src='/static/experiments/beast_fmri_test/images/redD.png'></img>	go	2200.0	3.0	23.0	go	non-target	D	89,Middle Finger	71,Index Finger	650.0	550.0	2100.0	2200.0	1.0	n/a	550.0	1.0	go_stim
341786.56038500002	1087.439615	n/a	1736	71	2750	1087.439615	stim	stop-signal	149	496902	0.0-9.23-1.23	beast_fmri_test	387	494707,/,495387,/,496067,/,496747,/,497427,/	t,t,t,t,t	<img class = center src='/static/experiments/beast_fmri_test/images/D.png'></img>	89,71	2750.0	test	<img class = center src='/static/experiments/beast_fmri_test/images/redD.png'></img>	go	2200.0	3.0	23.0	go	non-target	D	89,Middle Finger	71,Index Finger	650.0	550.0	2100.0	2200.0	1.0	n/a	550.0	1.0	ITI
344469	500	n/a	-1	-1	500	0.0	fixation	poldrack-single-stim	150	498497	0.0-9.24-0.24	beast_fmri_test	387	498107,/	t	<div class = centerbox2><div class = fixation>+</div></div>	none	500.0	test	n/a	n/a	n/a	n/a	n/a	n/a	n/a	n/a	n/a	n/a	n/a	n/a	n/a	n/a	n/a	n/a	n/a	n/a	fixation
