onset	duration	text	rt	key_press	block_duration	timing_post_trial	trial_id	trial_type	trial_index	time_elapsed	internal_node_id	exp_id	subject_id	trigger_times	triggers	stimulus	possible_responses	stim_duration	exp_stage	SS_stimulus	SS_trial_type	SS_duration	load	trial_num	stop_trial_type	adaptive_trial_type	stim	yes_response_key	no_response_key	SSD_target	SSD_non_target	SSTarget	SSNonTarget	go_acc	stop_acc	SS_delay	adaptive_acc	new_trial_type
test	10880	n/a	-1	-1	10880	0.0	practice-no-stop-feedback	poldrack-single-stim	200	658231	0.0-12.0	beast_fmri_test	387	647351,/,648030,/,648710,/,649390,/,650070,/,650750,/,651430,/,652110,/,652790,/,653470,/,654151,/,654830,/,655511,/,656191,/,656870,/,657551,/,658231,/	t,t,t,t,t,t,t,t,t,t,t,t,t,t,t,t,t	"<div class = ""centerbox2_2""><p class = ""block-text2"">Your delay is 2 trials.</p><p class = block-text2>Please wait for the scanner to start the block</p></div>"	77	10880.0	n/a	n/a	n/a	n/a	n/a	n/a	n/a	n/a	n/a	n/a	n/a	n/a	n/a	n/a	n/a	n/a	n/a	n/a	n/a	start_functional_block
11382	500	n/a	-1	-1	500	0.0	fixation	poldrack-single-stim	201	658733	0.0-13.0-0.0	beast_fmri_test	387	n/a	n/a	<div class = centerbox2><div class = fixation>+</div></div>	none	500.0	test	n/a	n/a	n/a	n/a	n/a	n/a	n/a	n/a	n/a	n/a	n/a	n/a	n/a	n/a	n/a	n/a	n/a	n/a	fixation
8507.3356080000522	2750	n/a	829	71	2750	2876.664392	stim	stop-signal	202	661485	0.0-13.0-1.0	beast_fmri_test	387	658911,/,659591,/,660271,/,660951,/,661631,/,662311,/,662991,/,663671,/,664352,/	t,t,t,t,t,t,t,t,t	<img class = center src='/static/experiments/beast_fmri_test/images/P.png'></img>	89,71	2750.0	test	<img class = center src='/static/experiments/beast_fmri_test/images/redP.png'></img>	go	-1.0	2.0	0.0	go	temp-non-target	P	89,Middle Finger	71,Index Finger	700.0	800.0	2050.0	1950.0	0.0	n/a	n/a	n/a	go_stim
11257.335608000052	2876.6643920000001	n/a	829	71	2750	2876.664392	stim	stop-signal	202	661485	0.0-13.0-1.0	beast_fmri_test	387	658911,/,659591,/,660271,/,660951,/,661631,/,662311,/,662991,/,663671,/,664352,/	t,t,t,t,t,t,t,t,t	<img class = center src='/static/experiments/beast_fmri_test/images/P.png'></img>	89,71	2750.0	test	<img class = center src='/static/experiments/beast_fmri_test/images/redP.png'></img>	go	-1.0	2.0	0.0	go	temp-non-target	P	89,Middle Finger	71,Index Finger	700.0	800.0	2050.0	1950.0	0.0	n/a	n/a	n/a	ITI
17518	500	n/a	-1	-1	500	0.0	fixation	poldrack-single-stim	203	664869	0.0-13.1-0.1	beast_fmri_test	387	n/a	n/a	<div class = centerbox2><div class = fixation>+</div></div>	none	500.0	test	n/a	n/a	n/a	n/a	n/a	n/a	n/a	n/a	n/a	n/a	n/a	n/a	n/a	n/a	n/a	n/a	n/a	n/a	fixation
16229.172852999996	temp_go_duration	n/a	595	71	2750	1291.827147	stim	stop-signal	204	667622	0.0-13.1-1.1	beast_fmri_test	387	665031,/,665711,/,666391,/,667070,/,667750,/,668431,/	t,t,t,t,t,t	<img class = center src='/static/experiments/beast_fmri_test/images/V.png'></img>	89,71	2750.0	test	<img class = center src='/static/experiments/beast_fmri_test/images/redV.png'></img>	stop	-1.0	2.0	1.0	stop	temp-non-target	V	89,Middle Finger	71,Index Finger	700.0	800.0	2050.0	1950.0	0.0	0.0	n/a	n/a	go_stim
temp-non-target	temp_stop_duration	n/a	595	71	2750	1291.827147	stim	stop-signal	204	667622	0.0-13.1-1.1	beast_fmri_test	387	665031,/,665711,/,666391,/,667070,/,667750,/,668431,/	t,t,t,t,t,t	<img class = center src='/static/experiments/beast_fmri_test/images/V.png'></img>	89,71	2750.0	test	<img class = center src='/static/experiments/beast_fmri_test/images/redV.png'></img>	stop	-1.0	2.0	1.0	stop	temp-non-target	V	89,Middle Finger	71,Index Finger	700.0	800.0	2050.0	1950.0	0.0	0.0	n/a	n/a	stop_stim
18979.172852999996	1291.827147	n/a	595	71	2750	1291.827147	stim	stop-signal	204	667622	0.0-13.1-1.1	beast_fmri_test	387	665031,/,665711,/,666391,/,667070,/,667750,/,668431,/	t,t,t,t,t,t	<img class = center src='/static/experiments/beast_fmri_test/images/V.png'></img>	89,71	2750.0	test	<img class = center src='/static/experiments/beast_fmri_test/images/redV.png'></img>	stop	-1.0	2.0	1.0	stop	temp-non-target	V	89,Middle Finger	71,Index Finger	700.0	800.0	2050.0	1950.0	0.0	0.0	n/a	n/a	ITI
22071	500	n/a	-1	-1	500	0.0	fixation	poldrack-single-stim	205	669422	0.0-13.2-0.2	beast_fmri_test	387	669110,/	t	<div class = centerbox2><div class = fixation>+</div></div>	none	500.0	test	n/a	n/a	n/a	n/a	n/a	n/a	n/a	n/a	n/a	n/a	n/a	n/a	n/a	n/a	n/a	n/a	n/a	n/a	fixation
20888.669792999979	800.0	n/a	1158	71	2750	1184.330207	stim	stop-signal	206	672174	0.0-13.2-1.2	beast_fmri_test	387	669791,/,670470,/,671150,/,671831,/,672510,/,673190,/	t,t,t,t,t,t	<img class = center src='/static/experiments/beast_fmri_test/images/T.png'></img>	89,71	2750.0	test	<img class = center src='/static/experiments/beast_fmri_test/images/redT.png'></img>	stop	1950.0	2.0	2.0	stop	non-target	T	89,Middle Finger	71,Index Finger	700.0	800.0	2050.0	1950.0	0.0	0.0	800.0	n/a	go_stim
22838.669792999979	1950.0	n/a	1158	71	2750	1184.330207	stim	stop-signal	206	672174	0.0-13.2-1.2	beast_fmri_test	387	669791,/,670470,/,671150,/,671831,/,672510,/,673190,/	t,t,t,t,t,t	<img class = center src='/static/experiments/beast_fmri_test/images/T.png'></img>	89,71	2750.0	test	<img class = center src='/static/experiments/beast_fmri_test/images/redT.png'></img>	stop	1950.0	2.0	2.0	stop	non-target	T	89,Middle Finger	71,Index Finger	700.0	800.0	2050.0	1950.0	0.0	0.0	800.0	n/a	stop_stim
23638.669792999979	1184.330207	n/a	1158	71	2750	1184.330207	stim	stop-signal	206	672174	0.0-13.2-1.2	beast_fmri_test	387	669791,/,670470,/,671150,/,671831,/,672510,/,673190,/	t,t,t,t,t,t	<img class = center src='/static/experiments/beast_fmri_test/images/T.png'></img>	89,71	2750.0	test	<img class = center src='/static/experiments/beast_fmri_test/images/redT.png'></img>	stop	1950.0	2.0	2.0	stop	non-target	T	89,Middle Finger	71,Index Finger	700.0	800.0	2050.0	1950.0	0.0	0.0	800.0	n/a	ITI
26517	500	n/a	-1	-1	500	0.0	fixation	poldrack-single-stim	207	673868	0.0-13.3-0.3	beast_fmri_test	387	n/a	n/a	<div class = centerbox2><div class = fixation>+</div></div>	none	500.0	test	n/a	n/a	n/a	n/a	n/a	n/a	n/a	n/a	n/a	n/a	n/a	n/a	n/a	n/a	n/a	n/a	n/a	n/a	fixation
25902.753660400049	2750	n/a	1006	71	2750	616.2463396	stim	stop-signal	208	676620	0.0-13.3-1.3	beast_fmri_test	387	673870,/,674551,/,675230,/,675910,/,676590,/	t,t,t,t,t	<img class = center src='/static/experiments/beast_fmri_test/images/B.png'></img>	89,71	2750.0	test	<img class = center src='/static/experiments/beast_fmri_test/images/redB.png'></img>	go	2000.0	2.0	3.0	go	non-target	B	89,Middle Finger	71,Index Finger	700.0	750.0	2050.0	2000.0	1.0	n/a	750.0	1.0	go_stim
28652.753660400049	616.24633960000006	n/a	1006	71	2750	616.2463396	stim	stop-signal	208	676620	0.0-13.3-1.3	beast_fmri_test	387	673870,/,674551,/,675230,/,675910,/,676590,/	t,t,t,t,t	<img class = center src='/static/experiments/beast_fmri_test/images/B.png'></img>	89,71	2750.0	test	<img class = center src='/static/experiments/beast_fmri_test/images/redB.png'></img>	go	2000.0	2.0	3.0	go	non-target	B	89,Middle Finger	71,Index Finger	700.0	750.0	2050.0	2000.0	1.0	n/a	750.0	1.0	ITI
30396	500	n/a	-1	-1	500	0.0	fixation	poldrack-single-stim	209	677747	0.0-13.4-0.4	beast_fmri_test	387	677270,/	t	<div class = centerbox2><div class = fixation>+</div></div>	none	500.0	test	n/a	n/a	n/a	n/a	n/a	n/a	n/a	n/a	n/a	n/a	n/a	n/a	n/a	n/a	n/a	n/a	n/a	n/a	fixation
30388.085660723969	700.0	n/a	548	89	2750	9.914339276	stim	stop-signal	210	680499	0.0-13.4-1.4	beast_fmri_test	387	677951,/,678630,/,679310,/,679990,/	t,t,t,t	<img class = center src='/static/experiments/beast_fmri_test/images/T.png'></img>	89,71	2750.0	test	<img class = center src='/static/experiments/beast_fmri_test/images/redT.png'></img>	stop	2050.0	2.0	4.0	stop	target	T	89,Middle Finger	71,Index Finger	700.0	750.0	2050.0	2000.0	0.0	0.0	700.0	n/a	go_stim
32438.085660723969	2050.0	n/a	548	89	2750	9.914339276	stim	stop-signal	210	680499	0.0-13.4-1.4	beast_fmri_test	387	677951,/,678630,/,679310,/,679990,/	t,t,t,t	<img class = center src='/static/experiments/beast_fmri_test/images/T.png'></img>	89,71	2750.0	test	<img class = center src='/static/experiments/beast_fmri_test/images/redT.png'></img>	stop	2050.0	2.0	4.0	stop	target	T	89,Middle Finger	71,Index Finger	700.0	750.0	2050.0	2000.0	0.0	0.0	700.0	n/a	stop_stim
33138.085660723969	9.9143392759999998	n/a	548	89	2750	9.914339276	stim	stop-signal	210	680499	0.0-13.4-1.4	beast_fmri_test	387	677951,/,678630,/,679310,/,679990,/	t,t,t,t	<img class = center src='/static/experiments/beast_fmri_test/images/T.png'></img>	89,71	2750.0	test	<img class = center src='/static/experiments/beast_fmri_test/images/redT.png'></img>	stop	2050.0	2.0	4.0	stop	target	T	89,Middle Finger	71,Index Finger	700.0	750.0	2050.0	2000.0	0.0	0.0	700.0	n/a	ITI
33665	500	n/a	-1	-1	500	0.0	fixation	poldrack-single-stim	211	681016	0.0-13.5-0.5	beast_fmri_test	387	680670,/	t	<div class = centerbox2><div class = fixation>+</div></div>	none	500.0	test	n/a	n/a	n/a	n/a	n/a	n/a	n/a	n/a	n/a	n/a	n/a	n/a	n/a	n/a	n/a	n/a	n/a	n/a	fixation
32491.650925999973	2750	n/a	959	71	2750	1175.349074	stim	stop-signal	212	683768	0.0-13.5-1.5	beast_fmri_test	387	681350,/,682030,/,682710,/,683390,/,684070,/,684751,/	t,t,t,t,t,t	<img class = center src='/static/experiments/beast_fmri_test/images/P.png'></img>	89,71	2750.0	test	<img class = center src='/static/experiments/beast_fmri_test/images/redP.png'></img>	go	2000.0	2.0	5.0	go	non-target	P	89,Middle Finger	71,Index Finger	650.0	750.0	2050.0	2000.0	1.0	n/a	750.0	1.0	go_stim
35241.650925999973	1175.349074	n/a	959	71	2750	1175.349074	stim	stop-signal	212	683768	0.0-13.5-1.5	beast_fmri_test	387	681350,/,682030,/,682710,/,683390,/,684070,/,684751,/	t,t,t,t,t,t	<img class = center src='/static/experiments/beast_fmri_test/images/P.png'></img>	89,71	2750.0	test	<img class = center src='/static/experiments/beast_fmri_test/images/redP.png'></img>	go	2000.0	2.0	5.0	go	non-target	P	89,Middle Finger	71,Index Finger	650.0	750.0	2050.0	2000.0	1.0	n/a	750.0	1.0	ITI
38101	500	n/a	-1	-1	500	0.0	fixation	poldrack-single-stim	213	685452	0.0-13.6-0.6	beast_fmri_test	387	685430,/	t	<div class = centerbox2><div class = fixation>+</div></div>	none	500.0	test	n/a	n/a	n/a	n/a	n/a	n/a	n/a	n/a	n/a	n/a	n/a	n/a	n/a	n/a	n/a	n/a	n/a	n/a	fixation
38029.823942280025	2750	n/a	671	89	2750	73.17605772	stim	stop-signal	214	688204	0.0-13.6-1.6	beast_fmri_test	387	686110,/,686790,/,687470,/,688150,/	t,t,t,t	<img class = center src='/static/experiments/beast_fmri_test/images/T.png'></img>	89,71	2750.0	test	<img class = center src='/static/experiments/beast_fmri_test/images/redT.png'></img>	go	2100.0	2.0	6.0	go	target	T	89,Middle Finger	71,Index Finger	650.0	750.0	2100.0	2000.0	1.0	n/a	650.0	1.0	go_stim
40779.823942280025	73.176057720000003	n/a	671	89	2750	73.17605772	stim	stop-signal	214	688204	0.0-13.6-1.6	beast_fmri_test	387	686110,/,686790,/,687470,/,688150,/	t,t,t,t	<img class = center src='/static/experiments/beast_fmri_test/images/T.png'></img>	89,71	2750.0	test	<img class = center src='/static/experiments/beast_fmri_test/images/redT.png'></img>	go	2100.0	2.0	6.0	go	target	T	89,Middle Finger	71,Index Finger	650.0	750.0	2100.0	2000.0	1.0	n/a	650.0	1.0	ITI
41436	500	n/a	-1	-1	500	0.0	fixation	poldrack-single-stim	215	688787	0.0-13.7-0.7	beast_fmri_test	387	n/a	n/a	<div class = centerbox2><div class = fixation>+</div></div>	none	500.0	test	n/a	n/a	n/a	n/a	n/a	n/a	n/a	n/a	n/a	n/a	n/a	n/a	n/a	n/a	n/a	n/a	n/a	n/a	fixation
39825.333304999978	2750	n/a	781	89	2750	1612.666695	stim	stop-signal	216	691539	0.0-13.7-1.7	beast_fmri_test	387	688830,/,689511,/,690191,/,690871,/,691550,/,692230,/,692911,/	t,t,t,t,t,t,t	<img class = center src='/static/experiments/beast_fmri_test/images/P.png'></img>	89,71	2750.0	test	<img class = center src='/static/experiments/beast_fmri_test/images/redP.png'></img>	go	2100.0	2.0	7.0	go	target	P	89,Middle Finger	71,Index Finger	650.0	750.0	2100.0	2000.0	1.0	n/a	650.0	1.0	go_stim
42575.333304999978	1612.6666949999999	n/a	781	89	2750	1612.666695	stim	stop-signal	216	691539	0.0-13.7-1.7	beast_fmri_test	387	688830,/,689511,/,690191,/,690871,/,691550,/,692230,/,692911,/	t,t,t,t,t,t,t	<img class = center src='/static/experiments/beast_fmri_test/images/P.png'></img>	89,71	2750.0	test	<img class = center src='/static/experiments/beast_fmri_test/images/redP.png'></img>	go	2100.0	2.0	7.0	go	target	P	89,Middle Finger	71,Index Finger	650.0	750.0	2100.0	2000.0	1.0	n/a	650.0	1.0	ITI
46311	500	n/a	-1	-1	500	0.0	fixation	poldrack-single-stim	217	693662	0.0-13.8-0.8	beast_fmri_test	387	693591,/	t	<div class = centerbox2><div class = fixation>+</div></div>	none	500.0	test	n/a	n/a	n/a	n/a	n/a	n/a	n/a	n/a	n/a	n/a	n/a	n/a	n/a	n/a	n/a	n/a	n/a	n/a	fixation
45699.291007200023	2750	n/a	736	71	2750	612.7089928	stim	stop-signal	218	696413	0.0-13.8-1.8	beast_fmri_test	387	694271,/,694951,/,695630,/,696311,/,696991,/	t,t,t,t,t	<img class = center src='/static/experiments/beast_fmri_test/images/B.png'></img>	89,71	2750.0	test	<img class = center src='/static/experiments/beast_fmri_test/images/redB.png'></img>	go	2000.0	2.0	8.0	go	non-target	B	89,Middle Finger	71,Index Finger	650.0	750.0	2100.0	2000.0	1.0	n/a	750.0	1.0	go_stim
48449.291007200023	612.70899279999992	n/a	736	71	2750	612.7089928	stim	stop-signal	218	696413	0.0-13.8-1.8	beast_fmri_test	387	694271,/,694951,/,695630,/,696311,/,696991,/	t,t,t,t,t	<img class = center src='/static/experiments/beast_fmri_test/images/B.png'></img>	89,71	2750.0	test	<img class = center src='/static/experiments/beast_fmri_test/images/redB.png'></img>	go	2000.0	2.0	8.0	go	non-target	B	89,Middle Finger	71,Index Finger	650.0	750.0	2100.0	2000.0	1.0	n/a	750.0	1.0	ITI
50184	500	n/a	-1	-1	500	0.0	fixation	poldrack-single-stim	219	697535	0.0-13.9-0.9	beast_fmri_test	387	n/a	n/a	<div class = centerbox2><div class = fixation>+</div></div>	none	500.0	test	n/a	n/a	n/a	n/a	n/a	n/a	n/a	n/a	n/a	n/a	n/a	n/a	n/a	n/a	n/a	n/a	n/a	n/a	fixation
50038.246838700026	2750	n/a	703	71	2750	147.7531613	stim	stop-signal	220	700287	0.0-13.9-1.9	beast_fmri_test	387	697671,/,698350,/,699031,/,699710,/,700391,/	t,t,t,t,t	<img class = center src='/static/experiments/beast_fmri_test/images/T.png'></img>	89,71	2750.0	test	<img class = center src='/static/experiments/beast_fmri_test/images/redT.png'></img>	go	2000.0	2.0	9.0	go	non-target	T	89,Middle Finger	71,Index Finger	650.0	750.0	2100.0	2000.0	1.0	n/a	750.0	1.0	go_stim
52788.246838700026	147.75316130000002	n/a	703	71	2750	147.7531613	stim	stop-signal	220	700287	0.0-13.9-1.9	beast_fmri_test	387	697671,/,698350,/,699031,/,699710,/,700391,/	t,t,t,t,t	<img class = center src='/static/experiments/beast_fmri_test/images/T.png'></img>	89,71	2750.0	test	<img class = center src='/static/experiments/beast_fmri_test/images/redT.png'></img>	go	2000.0	2.0	9.0	go	non-target	T	89,Middle Finger	71,Index Finger	650.0	750.0	2100.0	2000.0	1.0	n/a	750.0	1.0	ITI
53594	500	n/a	-1	-1	500	0.0	fixation	poldrack-single-stim	221	700945	0.0-13.10-0.10	beast_fmri_test	387	n/a	n/a	<div class = centerbox2><div class = fixation>+</div></div>	none	500.0	test	n/a	n/a	n/a	n/a	n/a	n/a	n/a	n/a	n/a	n/a	n/a	n/a	n/a	n/a	n/a	n/a	n/a	n/a	fixation
52156.098665999947	2750	n/a	682	89	2750	1439.901334	stim	stop-signal	222	703697	0.0-13.10-1.10	beast_fmri_test	387	701070,/,701752,/,702430,/,703111,/,703790,/,704471,/	t,t,t,t,t,t	<img class = center src='/static/experiments/beast_fmri_test/images/B.png'></img>	89,71	2750.0	test	<img class = center src='/static/experiments/beast_fmri_test/images/redB.png'></img>	go	2100.0	2.0	10.0	go	target	B	89,Middle Finger	71,Index Finger	650.0	750.0	2100.0	2000.0	1.0	n/a	650.0	1.0	go_stim
54906.098665999947	1439.9013339999999	n/a	682	89	2750	1439.901334	stim	stop-signal	222	703697	0.0-13.10-1.10	beast_fmri_test	387	701070,/,701752,/,702430,/,703111,/,703790,/,704471,/	t,t,t,t,t,t	<img class = center src='/static/experiments/beast_fmri_test/images/B.png'></img>	89,71	2750.0	test	<img class = center src='/static/experiments/beast_fmri_test/images/redB.png'></img>	go	2100.0	2.0	10.0	go	target	B	89,Middle Finger	71,Index Finger	650.0	750.0	2100.0	2000.0	1.0	n/a	650.0	1.0	ITI
58294	500	n/a	-1	-1	500	0.0	fixation	poldrack-single-stim	223	705645	0.0-13.11-0.11	beast_fmri_test	387	705151,/	t	<div class = centerbox2><div class = fixation>+</div></div>	none	500.0	test	n/a	n/a	n/a	n/a	n/a	n/a	n/a	n/a	n/a	n/a	n/a	n/a	n/a	n/a	n/a	n/a	n/a	n/a	fixation
57676.615724400035	650.0	n/a	1165	89	2750	619.3842756	stim	stop-signal	224	708397	0.0-13.11-1.11	beast_fmri_test	387	705830,/,706510,/,707190,/,707870,/,708550,/	t,t,t,t,t	<img class = center src='/static/experiments/beast_fmri_test/images/T.png'></img>	89,71	2750.0	test	<img class = center src='/static/experiments/beast_fmri_test/images/redT.png'></img>	stop	2100.0	2.0	11.0	stop	target	T	89,Middle Finger	71,Index Finger	650.0	750.0	2100.0	2000.0	0.0	0.0	650.0	n/a	go_stim
59776.615724400035	2100.0	n/a	1165	89	2750	619.3842756	stim	stop-signal	224	708397	0.0-13.11-1.11	beast_fmri_test	387	705830,/,706510,/,707190,/,707870,/,708550,/	t,t,t,t,t	<img class = center src='/static/experiments/beast_fmri_test/images/T.png'></img>	89,71	2750.0	test	<img class = center src='/static/experiments/beast_fmri_test/images/redT.png'></img>	stop	2100.0	2.0	11.0	stop	target	T	89,Middle Finger	71,Index Finger	650.0	750.0	2100.0	2000.0	0.0	0.0	650.0	n/a	stop_stim
60426.615724400035	619.38427560000002	n/a	1165	89	2750	619.3842756	stim	stop-signal	224	708397	0.0-13.11-1.11	beast_fmri_test	387	705830,/,706510,/,707190,/,707870,/,708550,/	t,t,t,t,t	<img class = center src='/static/experiments/beast_fmri_test/images/T.png'></img>	89,71	2750.0	test	<img class = center src='/static/experiments/beast_fmri_test/images/redT.png'></img>	stop	2100.0	2.0	11.0	stop	target	T	89,Middle Finger	71,Index Finger	650.0	750.0	2100.0	2000.0	0.0	0.0	650.0	n/a	ITI
62175	500	n/a	-1	-1	500	0.0	fixation	poldrack-single-stim	225	709526	0.0-13.12-0.12	beast_fmri_test	387	709230,/	t	<div class = centerbox2><div class = fixation>+</div></div>	none	500.0	test	n/a	n/a	n/a	n/a	n/a	n/a	n/a	n/a	n/a	n/a	n/a	n/a	n/a	n/a	n/a	n/a	n/a	n/a	fixation
61249.240553900017	2750	n/a	637	71	2750	928.7594461	stim	stop-signal	226	712279	0.0-13.12-1.12	beast_fmri_test	387	709910,/,710590,/,711270,/,711950,/,712630,/	t,t,t,t,t	<img class = center src='/static/experiments/beast_fmri_test/images/D.png'></img>	89,71	2750.0	test	<img class = center src='/static/experiments/beast_fmri_test/images/redD.png'></img>	go	2000.0	2.0	12.0	go	non-target	D	89,Middle Finger	71,Index Finger	600.0	750.0	2100.0	2000.0	1.0	n/a	750.0	1.0	go_stim
63999.240553900017	928.7594461000001	n/a	637	71	2750	928.7594461	stim	stop-signal	226	712279	0.0-13.12-1.12	beast_fmri_test	387	709910,/,710590,/,711270,/,711950,/,712630,/	t,t,t,t,t	<img class = center src='/static/experiments/beast_fmri_test/images/D.png'></img>	89,71	2750.0	test	<img class = center src='/static/experiments/beast_fmri_test/images/redD.png'></img>	go	2000.0	2.0	12.0	go	non-target	D	89,Middle Finger	71,Index Finger	600.0	750.0	2100.0	2000.0	1.0	n/a	750.0	1.0	ITI
66364	500	n/a	-1	-1	500	0.0	fixation	poldrack-single-stim	227	713715	0.0-13.13-0.13	beast_fmri_test	387	713310,/	t	<div class = centerbox2><div class = fixation>+</div></div>	none	500.0	test	n/a	n/a	n/a	n/a	n/a	n/a	n/a	n/a	n/a	n/a	n/a	n/a	n/a	n/a	n/a	n/a	n/a	n/a	fixation
65959.396052199998	2750	n/a	706	71	2750	405.6039478	stim	stop-signal	228	716466	0.0-13.13-1.13	beast_fmri_test	387	713990,/,714670,/,715351,/,716030,/,716710,/	t,t,t,t,t	<img class = center src='/static/experiments/beast_fmri_test/images/D.png'></img>	89,71	2750.0	test	<img class = center src='/static/experiments/beast_fmri_test/images/redD.png'></img>	go	2000.0	2.0	13.0	go	non-target	D	89,Middle Finger	71,Index Finger	600.0	750.0	2100.0	2000.0	1.0	n/a	750.0	1.0	go_stim
68709.396052199998	405.60394780000001	n/a	706	71	2750	405.6039478	stim	stop-signal	228	716466	0.0-13.13-1.13	beast_fmri_test	387	713990,/,714670,/,715351,/,716030,/,716710,/	t,t,t,t,t	<img class = center src='/static/experiments/beast_fmri_test/images/D.png'></img>	89,71	2750.0	test	<img class = center src='/static/experiments/beast_fmri_test/images/redD.png'></img>	go	2000.0	2.0	13.0	go	non-target	D	89,Middle Finger	71,Index Finger	600.0	750.0	2100.0	2000.0	1.0	n/a	750.0	1.0	ITI
70030	500	n/a	-1	-1	500	0.0	fixation	poldrack-single-stim	229	717381	0.0-13.14-0.14	beast_fmri_test	387	n/a	n/a	<div class = centerbox2><div class = fixation>+</div></div>	none	500.0	test	n/a	n/a	n/a	n/a	n/a	n/a	n/a	n/a	n/a	n/a	n/a	n/a	n/a	n/a	n/a	n/a	n/a	n/a	fixation
69315.570988100022	750.0	n/a	966	71	2750	715.4290119	stim	stop-signal	230	720132	0.0-13.14-1.14	beast_fmri_test	387	717390,/,718070,/,718750,/,719430,/,720110,/,720790,/	t,t,t,t,t,t	<img class = center src='/static/experiments/beast_fmri_test/images/V.png'></img>	89,71	2750.0	test	<img class = center src='/static/experiments/beast_fmri_test/images/redV.png'></img>	stop	2000.0	2.0	14.0	stop	non-target	V	89,Middle Finger	71,Index Finger	600.0	750.0	2100.0	2000.0	0.0	0.0	750.0	n/a	go_stim
71315.570988100022	2000.0	n/a	966	71	2750	715.4290119	stim	stop-signal	230	720132	0.0-13.14-1.14	beast_fmri_test	387	717390,/,718070,/,718750,/,719430,/,720110,/,720790,/	t,t,t,t,t,t	<img class = center src='/static/experiments/beast_fmri_test/images/V.png'></img>	89,71	2750.0	test	<img class = center src='/static/experiments/beast_fmri_test/images/redV.png'></img>	stop	2000.0	2.0	14.0	stop	non-target	V	89,Middle Finger	71,Index Finger	600.0	750.0	2100.0	2000.0	0.0	0.0	750.0	n/a	stop_stim
72065.570988100022	715.42901189999998	n/a	966	71	2750	715.4290119	stim	stop-signal	230	720132	0.0-13.14-1.14	beast_fmri_test	387	717390,/,718070,/,718750,/,719430,/,720110,/,720790,/	t,t,t,t,t,t	<img class = center src='/static/experiments/beast_fmri_test/images/V.png'></img>	89,71	2750.0	test	<img class = center src='/static/experiments/beast_fmri_test/images/redV.png'></img>	stop	2000.0	2.0	14.0	stop	non-target	V	89,Middle Finger	71,Index Finger	600.0	750.0	2100.0	2000.0	0.0	0.0	750.0	n/a	ITI
74006	500	n/a	-1	-1	500	0.0	fixation	poldrack-single-stim	231	721357	0.0-13.15-0.15	beast_fmri_test	387	n/a	n/a	<div class = centerbox2><div class = fixation>+</div></div>	none	500.0	test	n/a	n/a	n/a	n/a	n/a	n/a	n/a	n/a	n/a	n/a	n/a	n/a	n/a	n/a	n/a	n/a	n/a	n/a	fixation
73548.209732100018	2750	n/a	1122	89	2750	459.7902679	stim	stop-signal	232	724109	0.0-13.15-1.15	beast_fmri_test	387	721470,/,722150,/,722831,/,723511,/,724191,/	t,t,t,t,t	<img class = center src='/static/experiments/beast_fmri_test/images/V.png'></img>	89,71	2750.0	test	<img class = center src='/static/experiments/beast_fmri_test/images/redV.png'></img>	go	2050.0	2.0	15.0	go	non-target	V	89,Middle Finger	71,Index Finger	600.0	700.0	2100.0	2050.0	0.0	n/a	700.0	0.0	go_stim
76298.209732100018	459.79026789999995	n/a	1122	89	2750	459.7902679	stim	stop-signal	232	724109	0.0-13.15-1.15	beast_fmri_test	387	721470,/,722150,/,722831,/,723511,/,724191,/	t,t,t,t,t	<img class = center src='/static/experiments/beast_fmri_test/images/V.png'></img>	89,71	2750.0	test	<img class = center src='/static/experiments/beast_fmri_test/images/redV.png'></img>	go	2050.0	2.0	15.0	go	non-target	V	89,Middle Finger	71,Index Finger	600.0	700.0	2100.0	2050.0	0.0	n/a	700.0	0.0	ITI
77726	500	n/a	-1	-1	500	0.0	fixation	poldrack-single-stim	233	725077	0.0-13.16-0.16	beast_fmri_test	387	724871,/	t	<div class = centerbox2><div class = fixation>+</div></div>	none	500.0	test	n/a	n/a	n/a	n/a	n/a	n/a	n/a	n/a	n/a	n/a	n/a	n/a	n/a	n/a	n/a	n/a	n/a	n/a	fixation
75047.463676000014	2750	n/a	1207	71	2750	2680.536324	stim	stop-signal	234	727829	0.0-13.16-1.16	beast_fmri_test	387	725552,/,726231,/,726911,/,727591,/,728271,/,728951,/,729630,/,730310,/	t,t,t,t,t,t,t,t	<img class = center src='/static/experiments/beast_fmri_test/images/T.png'></img>	89,71	2750.0	test	<img class = center src='/static/experiments/beast_fmri_test/images/redT.png'></img>	go	2050.0	2.0	16.0	go	non-target	T	89,Middle Finger	71,Index Finger	600.0	700.0	2100.0	2050.0	1.0	n/a	700.0	1.0	go_stim
77797.463676000014	2680.5363239999997	n/a	1207	71	2750	2680.536324	stim	stop-signal	234	727829	0.0-13.16-1.16	beast_fmri_test	387	725552,/,726231,/,726911,/,727591,/,728271,/,728951,/,729630,/,730310,/	t,t,t,t,t,t,t,t	<img class = center src='/static/experiments/beast_fmri_test/images/T.png'></img>	89,71	2750.0	test	<img class = center src='/static/experiments/beast_fmri_test/images/redT.png'></img>	go	2050.0	2.0	16.0	go	non-target	T	89,Middle Finger	71,Index Finger	600.0	700.0	2100.0	2050.0	1.0	n/a	700.0	1.0	ITI
83669	500	n/a	-1	-1	500	0.0	fixation	poldrack-single-stim	235	731020	0.0-13.17-0.17	beast_fmri_test	387	730991,/	t	<div class = centerbox2><div class = fixation>+</div></div>	none	500.0	test	n/a	n/a	n/a	n/a	n/a	n/a	n/a	n/a	n/a	n/a	n/a	n/a	n/a	n/a	n/a	n/a	n/a	n/a	fixation
83552.426933499984	2750	n/a	918	71	2750	119.5730665	stim	stop-signal	236	733773	0.0-13.17-1.17	beast_fmri_test	387	731671,/,732350,/,733031,/,733710,/	t,t,t,t	<img class = center src='/static/experiments/beast_fmri_test/images/D.png'></img>	89,71	2750.0	test	<img class = center src='/static/experiments/beast_fmri_test/images/redD.png'></img>	go	2050.0	2.0	17.0	go	non-target	D	89,Middle Finger	71,Index Finger	600.0	700.0	2100.0	2050.0	1.0	n/a	700.0	1.0	go_stim
86302.426933499984	119.57306650000001	n/a	918	71	2750	119.5730665	stim	stop-signal	236	733773	0.0-13.17-1.17	beast_fmri_test	387	731671,/,732350,/,733031,/,733710,/	t,t,t,t	<img class = center src='/static/experiments/beast_fmri_test/images/D.png'></img>	89,71	2750.0	test	<img class = center src='/static/experiments/beast_fmri_test/images/redD.png'></img>	go	2050.0	2.0	17.0	go	non-target	D	89,Middle Finger	71,Index Finger	600.0	700.0	2100.0	2050.0	1.0	n/a	700.0	1.0	ITI
87050	500	n/a	-1	-1	500	0.0	fixation	poldrack-single-stim	237	734401	0.0-13.18-0.18	beast_fmri_test	387	734391,/	t	<div class = centerbox2><div class = fixation>+</div></div>	none	500.0	test	n/a	n/a	n/a	n/a	n/a	n/a	n/a	n/a	n/a	n/a	n/a	n/a	n/a	n/a	n/a	n/a	n/a	n/a	fixation
86329.399788600043	2750	n/a	608	89	2750	722.6002114	stim	stop-signal	238	737153	0.0-13.18-1.18	beast_fmri_test	387	735070,/,735751,/,736431,/,737111,/,737790,/	t,t,t,t,t	<img class = center src='/static/experiments/beast_fmri_test/images/T.png'></img>	89,71	2750.0	test	<img class = center src='/static/experiments/beast_fmri_test/images/redT.png'></img>	go	2150.0	2.0	18.0	go	target	T	89,Middle Finger	71,Index Finger	600.0	700.0	2150.0	2050.0	1.0	n/a	600.0	1.0	go_stim
89079.399788600043	722.60021140000003	n/a	608	89	2750	722.6002114	stim	stop-signal	238	737153	0.0-13.18-1.18	beast_fmri_test	387	735070,/,735751,/,736431,/,737111,/,737790,/	t,t,t,t,t	<img class = center src='/static/experiments/beast_fmri_test/images/T.png'></img>	89,71	2750.0	test	<img class = center src='/static/experiments/beast_fmri_test/images/redT.png'></img>	go	2150.0	2.0	18.0	go	target	T	89,Middle Finger	71,Index Finger	600.0	700.0	2150.0	2050.0	1.0	n/a	600.0	1.0	ITI
91035	500	n/a	-1	-1	500	0.0	fixation	poldrack-single-stim	239	738386	0.0-13.19-0.19	beast_fmri_test	387	n/a	n/a	<div class = centerbox2><div class = fixation>+</div></div>	none	500.0	test	n/a	n/a	n/a	n/a	n/a	n/a	n/a	n/a	n/a	n/a	n/a	n/a	n/a	n/a	n/a	n/a	n/a	n/a	fixation
90246.144846500014	700.0	n/a	714	71	2750	790.8551535	stim	stop-signal	240	741138	0.0-13.19-1.19	beast_fmri_test	387	738471,/,739150,/,739831,/,740510,/,741190,/,741870,/	t,t,t,t,t,t	<img class = center src='/static/experiments/beast_fmri_test/images/B.png'></img>	89,71	2750.0	test	<img class = center src='/static/experiments/beast_fmri_test/images/redB.png'></img>	stop	2050.0	2.0	19.0	stop	non-target	B	89,Middle Finger	71,Index Finger	600.0	700.0	2150.0	2050.0	0.0	0.0	700.0	n/a	go_stim
92296.144846500014	2050.0	n/a	714	71	2750	790.8551535	stim	stop-signal	240	741138	0.0-13.19-1.19	beast_fmri_test	387	738471,/,739150,/,739831,/,740510,/,741190,/,741870,/	t,t,t,t,t,t	<img class = center src='/static/experiments/beast_fmri_test/images/B.png'></img>	89,71	2750.0	test	<img class = center src='/static/experiments/beast_fmri_test/images/redB.png'></img>	stop	2050.0	2.0	19.0	stop	non-target	B	89,Middle Finger	71,Index Finger	600.0	700.0	2150.0	2050.0	0.0	0.0	700.0	n/a	stop_stim
92996.144846500014	790.85515350000003	n/a	714	71	2750	790.8551535	stim	stop-signal	240	741138	0.0-13.19-1.19	beast_fmri_test	387	738471,/,739150,/,739831,/,740510,/,741190,/,741870,/	t,t,t,t,t,t	<img class = center src='/static/experiments/beast_fmri_test/images/B.png'></img>	89,71	2750.0	test	<img class = center src='/static/experiments/beast_fmri_test/images/redB.png'></img>	stop	2050.0	2.0	19.0	stop	non-target	B	89,Middle Finger	71,Index Finger	600.0	700.0	2150.0	2050.0	0.0	0.0	700.0	n/a	ITI
95088	500	n/a	-1	-1	500	0.0	fixation	poldrack-single-stim	241	742439	0.0-13.20-0.20	beast_fmri_test	387	n/a	n/a	<div class = centerbox2><div class = fixation>+</div></div>	none	500.0	test	n/a	n/a	n/a	n/a	n/a	n/a	n/a	n/a	n/a	n/a	n/a	n/a	n/a	n/a	n/a	n/a	n/a	n/a	fixation
94528.449171700049	2750	n/a	836	89	2750	561.5508283	stim	stop-signal	242	745191	0.0-13.20-1.20	beast_fmri_test	387	742551,/,743230,/,743910,/,744590,/,745270,/	t,t,t,t,t	<img class = center src='/static/experiments/beast_fmri_test/images/T.png'></img>	89,71	2750.0	test	<img class = center src='/static/experiments/beast_fmri_test/images/redT.png'></img>	go	2150.0	2.0	20.0	go	target	T	89,Middle Finger	71,Index Finger	600.0	650.0	2150.0	2050.0	1.0	n/a	600.0	1.0	go_stim
97278.449171700049	561.55082830000003	n/a	836	89	2750	561.5508283	stim	stop-signal	242	745191	0.0-13.20-1.20	beast_fmri_test	387	742551,/,743230,/,743910,/,744590,/,745270,/	t,t,t,t,t	<img class = center src='/static/experiments/beast_fmri_test/images/T.png'></img>	89,71	2750.0	test	<img class = center src='/static/experiments/beast_fmri_test/images/redT.png'></img>	go	2150.0	2.0	20.0	go	target	T	89,Middle Finger	71,Index Finger	600.0	650.0	2150.0	2050.0	1.0	n/a	600.0	1.0	ITI
98909	500	n/a	-1	-1	500	0.0	fixation	poldrack-single-stim	243	746260	0.0-13.21-0.21	beast_fmri_test	387	745951,/	t	<div class = centerbox2><div class = fixation>+</div></div>	none	500.0	test	n/a	n/a	n/a	n/a	n/a	n/a	n/a	n/a	n/a	n/a	n/a	n/a	n/a	n/a	n/a	n/a	n/a	n/a	fixation
98045.526869100053	2750	n/a	1070	71	2750	865.4731309	stim	stop-signal	244	749012	0.0-13.21-1.21	beast_fmri_test	387	746630,/,747310,/,747990,/,748670,/,749350,/	t,t,t,t,t	<img class = center src='/static/experiments/beast_fmri_test/images/P.png'></img>	89,71	2750.0	test	<img class = center src='/static/experiments/beast_fmri_test/images/redP.png'></img>	go	2100.0	2.0	21.0	go	non-target	P	89,Middle Finger	71,Index Finger	600.0	650.0	2150.0	2100.0	1.0	n/a	650.0	1.0	go_stim
100795.52686910005	865.4731309	n/a	1070	71	2750	865.4731309	stim	stop-signal	244	749012	0.0-13.21-1.21	beast_fmri_test	387	746630,/,747310,/,747990,/,748670,/,749350,/	t,t,t,t,t	<img class = center src='/static/experiments/beast_fmri_test/images/P.png'></img>	89,71	2750.0	test	<img class = center src='/static/experiments/beast_fmri_test/images/redP.png'></img>	go	2100.0	2.0	21.0	go	non-target	P	89,Middle Finger	71,Index Finger	600.0	650.0	2150.0	2100.0	1.0	n/a	650.0	1.0	ITI
103037	500	n/a	-1	-1	500	0.0	fixation	poldrack-single-stim	245	750388	0.0-13.22-0.22	beast_fmri_test	387	750030,/	t	<div class = centerbox2><div class = fixation>+</div></div>	none	500.0	test	n/a	n/a	n/a	n/a	n/a	n/a	n/a	n/a	n/a	n/a	n/a	n/a	n/a	n/a	n/a	n/a	n/a	n/a	fixation
102712.36602059996	650.0	n/a	711	71	2750	326.6339794	stim	stop-signal	246	753140	0.0-13.22-1.22	beast_fmri_test	387	750710,/,751390,/,752070,/,752750,/,753430,/	t,t,t,t,t	<img class = center src='/static/experiments/beast_fmri_test/images/D.png'></img>	89,71	2750.0	test	<img class = center src='/static/experiments/beast_fmri_test/images/redD.png'></img>	stop	2100.0	2.0	22.0	stop	non-target	D	89,Middle Finger	71,Index Finger	600.0	650.0	2150.0	2100.0	0.0	0.0	650.0	n/a	go_stim
104812.36602059996	2100.0	n/a	711	71	2750	326.6339794	stim	stop-signal	246	753140	0.0-13.22-1.22	beast_fmri_test	387	750710,/,751390,/,752070,/,752750,/,753430,/	t,t,t,t,t	<img class = center src='/static/experiments/beast_fmri_test/images/D.png'></img>	89,71	2750.0	test	<img class = center src='/static/experiments/beast_fmri_test/images/redD.png'></img>	stop	2100.0	2.0	22.0	stop	non-target	D	89,Middle Finger	71,Index Finger	600.0	650.0	2150.0	2100.0	0.0	0.0	650.0	n/a	stop_stim
105462.36602059996	326.63397939999999	n/a	711	71	2750	326.6339794	stim	stop-signal	246	753140	0.0-13.22-1.22	beast_fmri_test	387	750710,/,751390,/,752070,/,752750,/,753430,/	t,t,t,t,t	<img class = center src='/static/experiments/beast_fmri_test/images/D.png'></img>	89,71	2750.0	test	<img class = center src='/static/experiments/beast_fmri_test/images/redD.png'></img>	stop	2100.0	2.0	22.0	stop	non-target	D	89,Middle Finger	71,Index Finger	600.0	650.0	2150.0	2100.0	0.0	0.0	650.0	n/a	ITI
106626	500	n/a	-1	-1	500	0.0	fixation	poldrack-single-stim	247	753977	0.0-13.23-0.23	beast_fmri_test	387	n/a	n/a	<div class = centerbox2><div class = fixation>+</div></div>	none	500.0	test	n/a	n/a	n/a	n/a	n/a	n/a	n/a	n/a	n/a	n/a	n/a	n/a	n/a	n/a	n/a	n/a	n/a	n/a	fixation
105271.70458200003	2750	n/a	779	71	2750	1356.295418	stim	stop-signal	248	756729	0.0-13.23-1.23	beast_fmri_test	387	754110,/,754790,/,755471,/,756152,/,756831,/,757511,/	t,t,t,t,t,t	<img class = center src='/static/experiments/beast_fmri_test/images/T.png'></img>	89,71	2750.0	test	<img class = center src='/static/experiments/beast_fmri_test/images/redT.png'></img>	go	2150.0	2.0	23.0	go	non-target	T	89,Middle Finger	71,Index Finger	600.0	600.0	2150.0	2150.0	1.0	n/a	600.0	1.0	go_stim
108021.70458200003	1356.2954179999999	n/a	779	71	2750	1356.295418	stim	stop-signal	248	756729	0.0-13.23-1.23	beast_fmri_test	387	754110,/,754790,/,755471,/,756152,/,756831,/,757511,/	t,t,t,t,t,t	<img class = center src='/static/experiments/beast_fmri_test/images/T.png'></img>	89,71	2750.0	test	<img class = center src='/static/experiments/beast_fmri_test/images/redT.png'></img>	go	2150.0	2.0	23.0	go	non-target	T	89,Middle Finger	71,Index Finger	600.0	600.0	2150.0	2150.0	1.0	n/a	600.0	1.0	ITI
111244	500	n/a	-1	-1	500	0.0	fixation	poldrack-single-stim	249	758595	0.0-13.24-0.24	beast_fmri_test	387	758191,/	t	<div class = centerbox2><div class = fixation>+</div></div>	none	500.0	test	n/a	n/a	n/a	n/a	n/a	n/a	n/a	n/a	n/a	n/a	n/a	n/a	n/a	n/a	n/a	n/a	n/a	n/a	fixation
107630.22536399995	2750	n/a	1282	71	2750	3615.774636	stim	stop-signal	250	761347	0.0-13.24-1.24	beast_fmri_test	387	758871,/,759551,/,760231,/,760911,/,761591,/,762270,/,762951,/,763631,/,764311,/	t,t,t,t,t,t,t,t,t	<img class = center src='/static/experiments/beast_fmri_test/images/T.png'></img>	89,71	2750.0	test	<img class = center src='/static/experiments/beast_fmri_test/images/redT.png'></img>	go	2150.0	2.0	24.0	go	non-target	T	89,Middle Finger	71,Index Finger	600.0	600.0	2150.0	2150.0	1.0	n/a	600.0	1.0	go_stim
110380.22536399995	3615.7746360000001	n/a	1282	71	2750	3615.774636	stim	stop-signal	250	761347	0.0-13.24-1.24	beast_fmri_test	387	758871,/,759551,/,760231,/,760911,/,761591,/,762270,/,762951,/,763631,/,764311,/	t,t,t,t,t,t,t,t,t	<img class = center src='/static/experiments/beast_fmri_test/images/T.png'></img>	89,71	2750.0	test	<img class = center src='/static/experiments/beast_fmri_test/images/redT.png'></img>	go	2150.0	2.0	24.0	go	non-target	T	89,Middle Finger	71,Index Finger	600.0	600.0	2150.0	2150.0	1.0	n/a	600.0	1.0	ITI
118120	500	n/a	-1	-1	500	0.0	fixation	poldrack-single-stim	251	765471	0.0-13.25-0.25	beast_fmri_test	387	764990,/	t	<div class = centerbox2><div class = fixation>+</div></div>	none	500.0	test	n/a	n/a	n/a	n/a	n/a	n/a	n/a	n/a	n/a	n/a	n/a	n/a	n/a	n/a	n/a	n/a	n/a	n/a	fixation
116240.43689799996	2750	n/a	658	89	2750	1881.563102	stim	stop-signal	252	768223	0.0-13.25-1.25	beast_fmri_test	387	765671,/,766352,/,767031,/,767711,/,768391,/,769070,/,769750,/	t,t,t,t,t,t,t	<img class = center src='/static/experiments/beast_fmri_test/images/T.png'></img>	89,71	2750.0	test	<img class = center src='/static/experiments/beast_fmri_test/images/redT.png'></img>	go	2150.0	2.0	25.0	go	target	T	89,Middle Finger	71,Index Finger	600.0	600.0	2150.0	2150.0	1.0	n/a	600.0	1.0	go_stim
118990.43689799996	1881.5631019999998	n/a	658	89	2750	1881.563102	stim	stop-signal	252	768223	0.0-13.25-1.25	beast_fmri_test	387	765671,/,766352,/,767031,/,767711,/,768391,/,769070,/,769750,/	t,t,t,t,t,t,t	<img class = center src='/static/experiments/beast_fmri_test/images/T.png'></img>	89,71	2750.0	test	<img class = center src='/static/experiments/beast_fmri_test/images/redT.png'></img>	go	2150.0	2.0	25.0	go	target	T	89,Middle Finger	71,Index Finger	600.0	600.0	2150.0	2150.0	1.0	n/a	600.0	1.0	ITI
123264	500	n/a	-1	-1	500	0.0	fixation	poldrack-single-stim	253	770615	0.0-13.26-0.26	beast_fmri_test	387	770430,/	t	<div class = centerbox2><div class = fixation>+</div></div>	none	500.0	test	n/a	n/a	n/a	n/a	n/a	n/a	n/a	n/a	n/a	n/a	n/a	n/a	n/a	n/a	n/a	n/a	n/a	n/a	fixation
122398.50600109994	600.0	n/a	707	71	2750	866.4939989	stim	stop-signal	254	773366	0.0-13.26-1.26	beast_fmri_test	387	771111,/,771790,/,772470,/,773150,/,773830,/	t,t,t,t,t	<img class = center src='/static/experiments/beast_fmri_test/images/B.png'></img>	89,71	2750.0	test	<img class = center src='/static/experiments/beast_fmri_test/images/redB.png'></img>	stop	2150.0	2.0	26.0	stop	non-target	B	89,Middle Finger	71,Index Finger	600.0	600.0	2150.0	2150.0	0.0	0.0	600.0	n/a	go_stim
124548.50600109994	2150.0	n/a	707	71	2750	866.4939989	stim	stop-signal	254	773366	0.0-13.26-1.26	beast_fmri_test	387	771111,/,771790,/,772470,/,773150,/,773830,/	t,t,t,t,t	<img class = center src='/static/experiments/beast_fmri_test/images/B.png'></img>	89,71	2750.0	test	<img class = center src='/static/experiments/beast_fmri_test/images/redB.png'></img>	stop	2150.0	2.0	26.0	stop	non-target	B	89,Middle Finger	71,Index Finger	600.0	600.0	2150.0	2150.0	0.0	0.0	600.0	n/a	stop_stim
125148.50600109994	866.49399889999995	n/a	707	71	2750	866.4939989	stim	stop-signal	254	773366	0.0-13.26-1.26	beast_fmri_test	387	771111,/,771790,/,772470,/,773150,/,773830,/	t,t,t,t,t	<img class = center src='/static/experiments/beast_fmri_test/images/B.png'></img>	89,71	2750.0	test	<img class = center src='/static/experiments/beast_fmri_test/images/redB.png'></img>	stop	2150.0	2.0	26.0	stop	non-target	B	89,Middle Finger	71,Index Finger	600.0	600.0	2150.0	2150.0	0.0	0.0	600.0	n/a	ITI
127393	500	n/a	-1	-1	500	0.0	fixation	poldrack-single-stim	255	774744	0.0-13.27-0.27	beast_fmri_test	387	774510,/	t	<div class = centerbox2><div class = fixation>+</div></div>	none	500.0	test	n/a	n/a	n/a	n/a	n/a	n/a	n/a	n/a	n/a	n/a	n/a	n/a	n/a	n/a	n/a	n/a	n/a	n/a	fixation
127346.39562393003	2750	n/a	728	71	2750	48.60437607	stim	stop-signal	256	777496	0.0-13.27-1.27	beast_fmri_test	387	775191,/,775870,/,776551,/,777230,/	t,t,t,t	<img class = center src='/static/experiments/beast_fmri_test/images/P.png'></img>	89,71	2750.0	test	<img class = center src='/static/experiments/beast_fmri_test/images/redP.png'></img>	go	2200.0	2.0	27.0	go	non-target	P	89,Middle Finger	71,Index Finger	600.0	550.0	2150.0	2200.0	1.0	n/a	550.0	1.0	go_stim
130096.39562393003	48.604376070000001	n/a	728	71	2750	48.60437607	stim	stop-signal	256	777496	0.0-13.27-1.27	beast_fmri_test	387	775191,/,775870,/,776551,/,777230,/	t,t,t,t	<img class = center src='/static/experiments/beast_fmri_test/images/P.png'></img>	89,71	2750.0	test	<img class = center src='/static/experiments/beast_fmri_test/images/redP.png'></img>	go	2200.0	2.0	27.0	go	non-target	P	89,Middle Finger	71,Index Finger	600.0	550.0	2150.0	2200.0	1.0	n/a	550.0	1.0	ITI
130703	500	n/a	-1	-1	500	0.0	fixation	poldrack-single-stim	257	778054	0.0-13.28-0.28	beast_fmri_test	387	777910,/	t	<div class = centerbox2><div class = fixation>+</div></div>	none	500.0	test	n/a	n/a	n/a	n/a	n/a	n/a	n/a	n/a	n/a	n/a	n/a	n/a	n/a	n/a	n/a	n/a	n/a	n/a	fixation
130162.23103619996	600.0	n/a	760	89	2750	541.7689638	stim	stop-signal	258	780805	0.0-13.28-1.28	beast_fmri_test	387	778590,/,779270,/,779950,/,780630,/,781310,/	t,t,t,t,t	<img class = center src='/static/experiments/beast_fmri_test/images/B.png'></img>	89,71	2750.0	test	<img class = center src='/static/experiments/beast_fmri_test/images/redB.png'></img>	stop	2150.0	2.0	28.0	stop	target	B	89,Middle Finger	71,Index Finger	600.0	550.0	2150.0	2200.0	0.0	0.0	600.0	n/a	go_stim
132312.23103619996	2150.0	n/a	760	89	2750	541.7689638	stim	stop-signal	258	780805	0.0-13.28-1.28	beast_fmri_test	387	778590,/,779270,/,779950,/,780630,/,781310,/	t,t,t,t,t	<img class = center src='/static/experiments/beast_fmri_test/images/B.png'></img>	89,71	2750.0	test	<img class = center src='/static/experiments/beast_fmri_test/images/redB.png'></img>	stop	2150.0	2.0	28.0	stop	target	B	89,Middle Finger	71,Index Finger	600.0	550.0	2150.0	2200.0	0.0	0.0	600.0	n/a	stop_stim
132912.23103619996	541.76896379999994	n/a	760	89	2750	541.7689638	stim	stop-signal	258	780805	0.0-13.28-1.28	beast_fmri_test	387	778590,/,779270,/,779950,/,780630,/,781310,/	t,t,t,t,t	<img class = center src='/static/experiments/beast_fmri_test/images/B.png'></img>	89,71	2750.0	test	<img class = center src='/static/experiments/beast_fmri_test/images/redB.png'></img>	stop	2150.0	2.0	28.0	stop	target	B	89,Middle Finger	71,Index Finger	600.0	550.0	2150.0	2200.0	0.0	0.0	600.0	n/a	ITI
134506	500	n/a	-1	-1	500	0.0	fixation	poldrack-single-stim	259	781857	0.0-13.29-0.29	beast_fmri_test	387	n/a	n/a	<div class = centerbox2><div class = fixation>+</div></div>	none	500.0	test	n/a	n/a	n/a	n/a	n/a	n/a	n/a	n/a	n/a	n/a	n/a	n/a	n/a	n/a	n/a	n/a	n/a	n/a	fixation
133916.77868029999	550.0	n/a	572	71	2750	591.2213197	stim	stop-signal	260	784609	0.0-13.29-1.29	beast_fmri_test	387	781990,/,782670,/,783350,/,784030,/,784710,/	t,t,t,t,t	<img class = center src='/static/experiments/beast_fmri_test/images/V.png'></img>	89,71	2750.0	test	<img class = center src='/static/experiments/beast_fmri_test/images/redV.png'></img>	stop	2200.0	2.0	29.0	stop	non-target	V	89,Middle Finger	71,Index Finger	550.0	550.0	2150.0	2200.0	0.0	0.0	550.0	n/a	go_stim
136116.77868029999	2200.0	n/a	572	71	2750	591.2213197	stim	stop-signal	260	784609	0.0-13.29-1.29	beast_fmri_test	387	781990,/,782670,/,783350,/,784030,/,784710,/	t,t,t,t,t	<img class = center src='/static/experiments/beast_fmri_test/images/V.png'></img>	89,71	2750.0	test	<img class = center src='/static/experiments/beast_fmri_test/images/redV.png'></img>	stop	2200.0	2.0	29.0	stop	non-target	V	89,Middle Finger	71,Index Finger	550.0	550.0	2150.0	2200.0	0.0	0.0	550.0	n/a	stop_stim
136666.77868029999	591.22131970000009	n/a	572	71	2750	591.2213197	stim	stop-signal	260	784609	0.0-13.29-1.29	beast_fmri_test	387	781990,/,782670,/,783350,/,784030,/,784710,/	t,t,t,t,t	<img class = center src='/static/experiments/beast_fmri_test/images/V.png'></img>	89,71	2750.0	test	<img class = center src='/static/experiments/beast_fmri_test/images/redV.png'></img>	stop	2200.0	2.0	29.0	stop	non-target	V	89,Middle Finger	71,Index Finger	550.0	550.0	2150.0	2200.0	0.0	0.0	550.0	n/a	ITI
138359	500	n/a	-1	-1	500	0.0	fixation	poldrack-single-stim	261	785710	0.0-13.30-0.30	beast_fmri_test	387	785390,/	t	<div class = centerbox2><div class = fixation>+</div></div>	none	500.0	test	n/a	n/a	n/a	n/a	n/a	n/a	n/a	n/a	n/a	n/a	n/a	n/a	n/a	n/a	n/a	n/a	n/a	n/a	fixation
135357.49048299994	500.0	n/a	-1	-1	2750	3004.509517	stim	stop-signal	262	788463	0.0-13.30-1.30	beast_fmri_test	387	786070,/,786751,/,787430,/,788110,/,788790,/,789471,/,790151,/,790831,/	t,t,t,t,t,t,t,t	<img class = center src='/static/experiments/beast_fmri_test/images/V.png'></img>	89,71	2750.0	test	<img class = center src='/static/experiments/beast_fmri_test/images/redV.png'></img>	stop	2250.0	2.0	30.0	stop	non-target	V	89,Middle Finger	71,Index Finger	550.0	500.0	2150.0	2250.0	0.0	1.0	500.0	n/a	go_stim
137607.49048299994	2250.0	n/a	-1	-1	2750	3004.509517	stim	stop-signal	262	788463	0.0-13.30-1.30	beast_fmri_test	387	786070,/,786751,/,787430,/,788110,/,788790,/,789471,/,790151,/,790831,/	t,t,t,t,t,t,t,t	<img class = center src='/static/experiments/beast_fmri_test/images/V.png'></img>	89,71	2750.0	test	<img class = center src='/static/experiments/beast_fmri_test/images/redV.png'></img>	stop	2250.0	2.0	30.0	stop	non-target	V	89,Middle Finger	71,Index Finger	550.0	500.0	2150.0	2250.0	0.0	1.0	500.0	n/a	stop_stim
138107.49048299994	3004.509517	n/a	-1	-1	2750	3004.509517	stim	stop-signal	262	788463	0.0-13.30-1.30	beast_fmri_test	387	786070,/,786751,/,787430,/,788110,/,788790,/,789471,/,790151,/,790831,/	t,t,t,t,t,t,t,t	<img class = center src='/static/experiments/beast_fmri_test/images/V.png'></img>	89,71	2750.0	test	<img class = center src='/static/experiments/beast_fmri_test/images/redV.png'></img>	stop	2250.0	2.0	30.0	stop	non-target	V	89,Middle Finger	71,Index Finger	550.0	500.0	2150.0	2250.0	0.0	1.0	500.0	n/a	ITI
144626	500	n/a	-1	-1	500	0.0	fixation	poldrack-single-stim	263	791977	0.0-13.31-0.31	beast_fmri_test	387	791511,/	t	<div class = centerbox2><div class = fixation>+</div></div>	none	500.0	test	n/a	n/a	n/a	n/a	n/a	n/a	n/a	n/a	n/a	n/a	n/a	n/a	n/a	n/a	n/a	n/a	n/a	n/a	fixation
142780.44348500005	2750	n/a	1201	71	2750	1847.556515	stim	stop-signal	264	794729	0.0-13.31-1.31	beast_fmri_test	387	792191,/,792871,/,793551,/,794231,/,794911,/,795590,/,796271,/	t,t,t,t,t,t,t	<img class = center src='/static/experiments/beast_fmri_test/images/T.png'></img>	89,71	2750.0	test	<img class = center src='/static/experiments/beast_fmri_test/images/redT.png'></img>	go	2200.0	2.0	31.0	go	non-target	T	89,Middle Finger	71,Index Finger	550.0	550.0	2150.0	2200.0	1.0	n/a	550.0	1.0	go_stim
145530.44348500005	1847.5565149999998	n/a	1201	71	2750	1847.556515	stim	stop-signal	264	794729	0.0-13.31-1.31	beast_fmri_test	387	792191,/,792871,/,793551,/,794231,/,794911,/,795590,/,796271,/	t,t,t,t,t,t,t	<img class = center src='/static/experiments/beast_fmri_test/images/T.png'></img>	89,71	2750.0	test	<img class = center src='/static/experiments/beast_fmri_test/images/redT.png'></img>	go	2200.0	2.0	31.0	go	non-target	T	89,Middle Finger	71,Index Finger	550.0	550.0	2150.0	2200.0	1.0	n/a	550.0	1.0	ITI
149737	500	n/a	-1	-1	500	0.0	fixation	poldrack-single-stim	265	797088	0.0-13.32-0.32	beast_fmri_test	387	796952,/	t	<div class = centerbox2><div class = fixation>+</div></div>	none	500.0	test	n/a	n/a	n/a	n/a	n/a	n/a	n/a	n/a	n/a	n/a	n/a	n/a	n/a	n/a	n/a	n/a	n/a	n/a	fixation
149720.64585773996	2750	n/a	1720	71	2750	18.35414226	stim	stop-signal	266	799840	0.0-13.32-1.32	beast_fmri_test	387	797631,/,798311,/,798991,/,799670,/	t,t,t,t	<img class = center src='/static/experiments/beast_fmri_test/images/P.png'></img>	89,71	2750.0	test	<img class = center src='/static/experiments/beast_fmri_test/images/redP.png'></img>	go	2200.0	2.0	32.0	go	non-target	P	89,Middle Finger	71,Index Finger	550.0	550.0	2150.0	2200.0	1.0	n/a	550.0	1.0	go_stim
152470.64585773996	18.35414226	n/a	1720	71	2750	18.35414226	stim	stop-signal	266	799840	0.0-13.32-1.32	beast_fmri_test	387	797631,/,798311,/,798991,/,799670,/	t,t,t,t	<img class = center src='/static/experiments/beast_fmri_test/images/P.png'></img>	89,71	2750.0	test	<img class = center src='/static/experiments/beast_fmri_test/images/redP.png'></img>	go	2200.0	2.0	32.0	go	non-target	P	89,Middle Finger	71,Index Finger	550.0	550.0	2150.0	2200.0	1.0	n/a	550.0	1.0	ITI
153017	500	n/a	-1	-1	500	0.0	fixation	poldrack-single-stim	267	800368	0.0-13.33-0.33	beast_fmri_test	387	800351,/	t	<div class = centerbox2><div class = fixation>+</div></div>	none	500.0	test	n/a	n/a	n/a	n/a	n/a	n/a	n/a	n/a	n/a	n/a	n/a	n/a	n/a	n/a	n/a	n/a	n/a	n/a	fixation
152774.76475249999	550.0	n/a	-1	-1	2750	244.2352475	stim	stop-signal	268	803120	0.0-13.33-1.33	beast_fmri_test	387	801030,/,801711,/,802391,/,803070,/	t,t,t,t	<img class = center src='/static/experiments/beast_fmri_test/images/P.png'></img>	89,71	2750.0	test	<img class = center src='/static/experiments/beast_fmri_test/images/redP.png'></img>	stop	2200.0	2.0	33.0	stop	non-target	P	89,Middle Finger	71,Index Finger	550.0	550.0	2150.0	2200.0	0.0	1.0	550.0	n/a	go_stim
154974.76475249999	2200.0	n/a	-1	-1	2750	244.2352475	stim	stop-signal	268	803120	0.0-13.33-1.33	beast_fmri_test	387	801030,/,801711,/,802391,/,803070,/	t,t,t,t	<img class = center src='/static/experiments/beast_fmri_test/images/P.png'></img>	89,71	2750.0	test	<img class = center src='/static/experiments/beast_fmri_test/images/redP.png'></img>	stop	2200.0	2.0	33.0	stop	non-target	P	89,Middle Finger	71,Index Finger	550.0	550.0	2150.0	2200.0	0.0	1.0	550.0	n/a	stop_stim
155524.76475249999	244.23524750000001	n/a	-1	-1	2750	244.2352475	stim	stop-signal	268	803120	0.0-13.33-1.33	beast_fmri_test	387	801030,/,801711,/,802391,/,803070,/	t,t,t,t	<img class = center src='/static/experiments/beast_fmri_test/images/P.png'></img>	89,71	2750.0	test	<img class = center src='/static/experiments/beast_fmri_test/images/redP.png'></img>	stop	2200.0	2.0	33.0	stop	non-target	P	89,Middle Finger	71,Index Finger	550.0	550.0	2150.0	2200.0	0.0	1.0	550.0	n/a	ITI
156524	500	n/a	-1	-1	500	0.0	fixation	poldrack-single-stim	269	803875	0.0-13.34-0.34	beast_fmri_test	387	803750,/	t	<div class = centerbox2><div class = fixation>+</div></div>	none	500.0	test	n/a	n/a	n/a	n/a	n/a	n/a	n/a	n/a	n/a	n/a	n/a	n/a	n/a	n/a	n/a	n/a	n/a	n/a	fixation
156090.62448720005	2750	n/a	799	71	2750	435.3755128	stim	stop-signal	270	806627	0.0-13.34-1.34	beast_fmri_test	387	804431,/,805110,/,805790,/,806470,/	t,t,t,t	<img class = center src='/static/experiments/beast_fmri_test/images/T.png'></img>	89,71	2750.0	test	<img class = center src='/static/experiments/beast_fmri_test/images/redT.png'></img>	go	2150.0	2.0	34.0	go	non-target	T	89,Middle Finger	71,Index Finger	550.0	600.0	2150.0	2150.0	1.0	n/a	600.0	1.0	go_stim
158840.62448720005	435.37551280000002	n/a	799	71	2750	435.3755128	stim	stop-signal	270	806627	0.0-13.34-1.34	beast_fmri_test	387	804431,/,805110,/,805790,/,806470,/	t,t,t,t	<img class = center src='/static/experiments/beast_fmri_test/images/T.png'></img>	89,71	2750.0	test	<img class = center src='/static/experiments/beast_fmri_test/images/redT.png'></img>	go	2150.0	2.0	34.0	go	non-target	T	89,Middle Finger	71,Index Finger	550.0	600.0	2150.0	2150.0	1.0	n/a	600.0	1.0	ITI
160223	500	n/a	-1	-1	500	0.0	fixation	poldrack-single-stim	271	807574	0.0-13.35-0.35	beast_fmri_test	387	807151,/	t	<div class = centerbox2><div class = fixation>+</div></div>	none	500.0	test	n/a	n/a	n/a	n/a	n/a	n/a	n/a	n/a	n/a	n/a	n/a	n/a	n/a	n/a	n/a	n/a	n/a	n/a	fixation
159560.52324989997	600.0	n/a	-1	-1	2750	664.4767501	stim	stop-signal	272	810326	0.0-13.35-1.35	beast_fmri_test	387	807830,/,808510,/,809190,/,809870,/,810550,/	t,t,t,t,t	<img class = center src='/static/experiments/beast_fmri_test/images/T.png'></img>	89,71	2750.0	test	<img class = center src='/static/experiments/beast_fmri_test/images/redT.png'></img>	stop	2150.0	2.0	35.0	stop	non-target	T	89,Middle Finger	71,Index Finger	550.0	600.0	2150.0	2150.0	0.0	1.0	600.0	n/a	go_stim
161710.52324989997	2150.0	n/a	-1	-1	2750	664.4767501	stim	stop-signal	272	810326	0.0-13.35-1.35	beast_fmri_test	387	807830,/,808510,/,809190,/,809870,/,810550,/	t,t,t,t,t	<img class = center src='/static/experiments/beast_fmri_test/images/T.png'></img>	89,71	2750.0	test	<img class = center src='/static/experiments/beast_fmri_test/images/redT.png'></img>	stop	2150.0	2.0	35.0	stop	non-target	T	89,Middle Finger	71,Index Finger	550.0	600.0	2150.0	2150.0	0.0	1.0	600.0	n/a	stop_stim
162310.52324989997	664.4767501	n/a	-1	-1	2750	664.4767501	stim	stop-signal	272	810326	0.0-13.35-1.35	beast_fmri_test	387	807830,/,808510,/,809190,/,809870,/,810550,/	t,t,t,t,t	<img class = center src='/static/experiments/beast_fmri_test/images/T.png'></img>	89,71	2750.0	test	<img class = center src='/static/experiments/beast_fmri_test/images/redT.png'></img>	stop	2150.0	2.0	35.0	stop	non-target	T	89,Middle Finger	71,Index Finger	550.0	600.0	2150.0	2150.0	0.0	1.0	600.0	n/a	ITI
164151	500	n/a	-1	-1	500	0.0	fixation	poldrack-single-stim	273	811502	0.0-13.36-0.36	beast_fmri_test	387	811230,/	t	<div class = centerbox2><div class = fixation>+</div></div>	none	500.0	test	n/a	n/a	n/a	n/a	n/a	n/a	n/a	n/a	n/a	n/a	n/a	n/a	n/a	n/a	n/a	n/a	n/a	n/a	fixation
163141.06867800001	2750	n/a	513	89	2750	1011.931322	stim	stop-signal	274	814254	0.0-13.36-1.36	beast_fmri_test	387	811910,/,812590,/,813270,/,813950,/,814630,/	t,t,t,t,t	<img class = center src='/static/experiments/beast_fmri_test/images/T.png'></img>	89,71	2750.0	test	<img class = center src='/static/experiments/beast_fmri_test/images/redT.png'></img>	go	2200.0	2.0	36.0	go	target	T	89,Middle Finger	71,Index Finger	550.0	650.0	2200.0	2150.0	1.0	n/a	550.0	1.0	go_stim
165891.06867800001	1011.931322	n/a	513	89	2750	1011.931322	stim	stop-signal	274	814254	0.0-13.36-1.36	beast_fmri_test	387	811910,/,812590,/,813270,/,813950,/,814630,/	t,t,t,t,t	<img class = center src='/static/experiments/beast_fmri_test/images/T.png'></img>	89,71	2750.0	test	<img class = center src='/static/experiments/beast_fmri_test/images/redT.png'></img>	go	2200.0	2.0	36.0	go	target	T	89,Middle Finger	71,Index Finger	550.0	650.0	2200.0	2150.0	1.0	n/a	550.0	1.0	ITI
168427	500	n/a	-1	-1	500	0.0	fixation	poldrack-single-stim	275	815778	0.0-13.37-0.37	beast_fmri_test	387	815310,/	t	<div class = centerbox2><div class = fixation>+</div></div>	none	500.0	test	n/a	n/a	n/a	n/a	n/a	n/a	n/a	n/a	n/a	n/a	n/a	n/a	n/a	n/a	n/a	n/a	n/a	n/a	fixation
168142.88059039996	550.0	n/a	-1	-1	2750	286.1194096	stim	stop-signal	276	818530	0.0-13.37-1.37	beast_fmri_test	387	815990,/,816670,/,817351,/,818030,/,818710,/	t,t,t,t,t	<img class = center src='/static/experiments/beast_fmri_test/images/T.png'></img>	89,71	2750.0	test	<img class = center src='/static/experiments/beast_fmri_test/images/redT.png'></img>	stop	2200.0	2.0	37.0	stop	target	T	89,Middle Finger	71,Index Finger	550.0	650.0	2200.0	2150.0	0.0	1.0	550.0	n/a	go_stim
170342.88059039996	2200.0	n/a	-1	-1	2750	286.1194096	stim	stop-signal	276	818530	0.0-13.37-1.37	beast_fmri_test	387	815990,/,816670,/,817351,/,818030,/,818710,/	t,t,t,t,t	<img class = center src='/static/experiments/beast_fmri_test/images/T.png'></img>	89,71	2750.0	test	<img class = center src='/static/experiments/beast_fmri_test/images/redT.png'></img>	stop	2200.0	2.0	37.0	stop	target	T	89,Middle Finger	71,Index Finger	550.0	650.0	2200.0	2150.0	0.0	1.0	550.0	n/a	stop_stim
170892.88059039996	286.11940960000004	n/a	-1	-1	2750	286.1194096	stim	stop-signal	276	818530	0.0-13.37-1.37	beast_fmri_test	387	815990,/,816670,/,817351,/,818030,/,818710,/	t,t,t,t,t	<img class = center src='/static/experiments/beast_fmri_test/images/T.png'></img>	89,71	2750.0	test	<img class = center src='/static/experiments/beast_fmri_test/images/redT.png'></img>	stop	2200.0	2.0	37.0	stop	target	T	89,Middle Finger	71,Index Finger	550.0	650.0	2200.0	2150.0	0.0	1.0	550.0	n/a	ITI
171976	500	n/a	-1	-1	500	0.0	fixation	poldrack-single-stim	277	819327	0.0-13.38-0.38	beast_fmri_test	387	n/a	n/a	<div class = centerbox2><div class = fixation>+</div></div>	none	500.0	test	n/a	n/a	n/a	n/a	n/a	n/a	n/a	n/a	n/a	n/a	n/a	n/a	n/a	n/a	n/a	n/a	n/a	n/a	fixation
171198.76233010006	2750	n/a	610	89	2750	779.2376699	stim	stop-signal	278	822079	0.0-13.38-1.38	beast_fmri_test	387	819390,/,820070,/,820751,/,821430,/,822111,/,822791,/	t,t,t,t,t,t	<img class = center src='/static/experiments/beast_fmri_test/images/T.png'></img>	89,71	2750.0	test	<img class = center src='/static/experiments/beast_fmri_test/images/redT.png'></img>	go	2150.0	2.0	38.0	go	target	T	89,Middle Finger	71,Index Finger	600.0	650.0	2150.0	2150.0	1.0	n/a	600.0	1.0	go_stim
173948.76233010006	779.23766990000001	n/a	610	89	2750	779.2376699	stim	stop-signal	278	822079	0.0-13.38-1.38	beast_fmri_test	387	819390,/,820070,/,820751,/,821430,/,822111,/,822791,/	t,t,t,t,t,t	<img class = center src='/static/experiments/beast_fmri_test/images/T.png'></img>	89,71	2750.0	test	<img class = center src='/static/experiments/beast_fmri_test/images/redT.png'></img>	go	2150.0	2.0	38.0	go	target	T	89,Middle Finger	71,Index Finger	600.0	650.0	2150.0	2150.0	1.0	n/a	600.0	1.0	ITI
176020	500	n/a	-1	-1	500	0.0	fixation	poldrack-single-stim	279	823371	0.0-13.39-0.39	beast_fmri_test	387	n/a	n/a	<div class = centerbox2><div class = fixation>+</div></div>	none	500.0	test	n/a	n/a	n/a	n/a	n/a	n/a	n/a	n/a	n/a	n/a	n/a	n/a	n/a	n/a	n/a	n/a	n/a	n/a	fixation
172408.55352900003	2750	n/a	927	71	2750	3612.446471	stim	stop-signal	280	826122	0.0-13.39-1.39	beast_fmri_test	387	823471,/,824151,/,824831,/,825511,/,826190,/,826871,/,827552,/,828231,/,828910,/,829590,/	t,t,t,t,t,t,t,t,t,t	<img class = center src='/static/experiments/beast_fmri_test/images/V.png'></img>	89,71	2750.0	test	<img class = center src='/static/experiments/beast_fmri_test/images/redV.png'></img>	go	2100.0	2.0	39.0	go	non-target	V	89,Middle Finger	71,Index Finger	600.0	650.0	2150.0	2100.0	1.0	n/a	650.0	1.0	go_stim
175158.55352900003	3612.4464710000002	n/a	927	71	2750	3612.446471	stim	stop-signal	280	826122	0.0-13.39-1.39	beast_fmri_test	387	823471,/,824151,/,824831,/,825511,/,826190,/,826871,/,827552,/,828231,/,828910,/,829590,/	t,t,t,t,t,t,t,t,t,t	<img class = center src='/static/experiments/beast_fmri_test/images/V.png'></img>	89,71	2750.0	test	<img class = center src='/static/experiments/beast_fmri_test/images/redV.png'></img>	go	2100.0	2.0	39.0	go	non-target	V	89,Middle Finger	71,Index Finger	600.0	650.0	2150.0	2100.0	1.0	n/a	650.0	1.0	ITI
182894	500	n/a	-1	-1	500	0.0	fixation	poldrack-single-stim	281	830245	0.0-13.40-0.40	beast_fmri_test	387	n/a	n/a	<div class = centerbox2><div class = fixation>+</div></div>	none	500.0	test	n/a	n/a	n/a	n/a	n/a	n/a	n/a	n/a	n/a	n/a	n/a	n/a	n/a	n/a	n/a	n/a	n/a	n/a	fixation
182802.41749999998	2750	n/a	642	71	2750	93.5825	stim	stop-signal	282	832997	0.0-13.40-1.40	beast_fmri_test	387	830271,/,830951,/,831631,/,832310,/,832991,/	t,t,t,t,t	<img class = center src='/static/experiments/beast_fmri_test/images/D.png'></img>	89,71	2750.0	test	<img class = center src='/static/experiments/beast_fmri_test/images/redD.png'></img>	go	2100.0	2.0	40.0	go	non-target	D	89,Middle Finger	71,Index Finger	600.0	650.0	2150.0	2100.0	1.0	n/a	650.0	1.0	go_stim
185552.41749999998	93.582499999999996	n/a	642	71	2750	93.5825	stim	stop-signal	282	832997	0.0-13.40-1.40	beast_fmri_test	387	830271,/,830951,/,831631,/,832310,/,832991,/	t,t,t,t,t	<img class = center src='/static/experiments/beast_fmri_test/images/D.png'></img>	89,71	2750.0	test	<img class = center src='/static/experiments/beast_fmri_test/images/redD.png'></img>	go	2100.0	2.0	40.0	go	non-target	D	89,Middle Finger	71,Index Finger	600.0	650.0	2150.0	2100.0	1.0	n/a	650.0	1.0	ITI
186248	500	n/a	-1	-1	500	0.0	fixation	poldrack-single-stim	283	833599	0.0-13.41-0.41	beast_fmri_test	387	n/a	n/a	<div class = centerbox2><div class = fixation>+</div></div>	none	500.0	test	n/a	n/a	n/a	n/a	n/a	n/a	n/a	n/a	n/a	n/a	n/a	n/a	n/a	n/a	n/a	n/a	n/a	n/a	fixation
185752.49809540005	2750	n/a	905	71	2750	497.5019046	stim	stop-signal	284	836351	0.0-13.41-1.41	beast_fmri_test	387	833670,/,834351,/,835030,/,835711,/,836390,/	t,t,t,t,t	<img class = center src='/static/experiments/beast_fmri_test/images/T.png'></img>	89,71	2750.0	test	<img class = center src='/static/experiments/beast_fmri_test/images/redT.png'></img>	go	2100.0	2.0	41.0	go	non-target	T	89,Middle Finger	71,Index Finger	600.0	650.0	2150.0	2100.0	1.0	n/a	650.0	1.0	go_stim
188502.49809540005	497.50190459999999	n/a	905	71	2750	497.5019046	stim	stop-signal	284	836351	0.0-13.41-1.41	beast_fmri_test	387	833670,/,834351,/,835030,/,835711,/,836390,/	t,t,t,t,t	<img class = center src='/static/experiments/beast_fmri_test/images/T.png'></img>	89,71	2750.0	test	<img class = center src='/static/experiments/beast_fmri_test/images/redT.png'></img>	go	2100.0	2.0	41.0	go	non-target	T	89,Middle Finger	71,Index Finger	600.0	650.0	2150.0	2100.0	1.0	n/a	650.0	1.0	ITI
190008	500	n/a	-1	-1	500	0.0	fixation	poldrack-single-stim	285	837359	0.0-13.42-0.42	beast_fmri_test	387	837071,/	t	<div class = centerbox2><div class = fixation>+</div></div>	none	500.0	test	n/a	n/a	n/a	n/a	n/a	n/a	n/a	n/a	n/a	n/a	n/a	n/a	n/a	n/a	n/a	n/a	n/a	n/a	fixation
190007.09937558603	600.0	n/a	574	89	2750	2.900624414	stim	stop-signal	286	840111	0.0-13.42-1.42	beast_fmri_test	387	837751,/,838430,/,839110,/,839790,/	t,t,t,t	<img class = center src='/static/experiments/beast_fmri_test/images/D.png'></img>	89,71	2750.0	test	<img class = center src='/static/experiments/beast_fmri_test/images/redD.png'></img>	stop	2150.0	2.0	42.0	stop	target	D	89,Middle Finger	71,Index Finger	600.0	650.0	2150.0	2100.0	0.0	0.0	600.0	n/a	go_stim
192157.09937558603	2150.0	n/a	574	89	2750	2.900624414	stim	stop-signal	286	840111	0.0-13.42-1.42	beast_fmri_test	387	837751,/,838430,/,839110,/,839790,/	t,t,t,t	<img class = center src='/static/experiments/beast_fmri_test/images/D.png'></img>	89,71	2750.0	test	<img class = center src='/static/experiments/beast_fmri_test/images/redD.png'></img>	stop	2150.0	2.0	42.0	stop	target	D	89,Middle Finger	71,Index Finger	600.0	650.0	2150.0	2100.0	0.0	0.0	600.0	n/a	stop_stim
192757.09937558603	2.9006244139999997	n/a	574	89	2750	2.900624414	stim	stop-signal	286	840111	0.0-13.42-1.42	beast_fmri_test	387	837751,/,838430,/,839110,/,839790,/	t,t,t,t	<img class = center src='/static/experiments/beast_fmri_test/images/D.png'></img>	89,71	2750.0	test	<img class = center src='/static/experiments/beast_fmri_test/images/redD.png'></img>	stop	2150.0	2.0	42.0	stop	target	D	89,Middle Finger	71,Index Finger	600.0	650.0	2150.0	2100.0	0.0	0.0	600.0	n/a	ITI
193272	500	n/a	-1	-1	500	0.0	fixation	poldrack-single-stim	287	840623	0.0-13.43-0.43	beast_fmri_test	387	840470,/	t	<div class = centerbox2><div class = fixation>+</div></div>	none	500.0	test	n/a	n/a	n/a	n/a	n/a	n/a	n/a	n/a	n/a	n/a	n/a	n/a	n/a	n/a	n/a	n/a	n/a	n/a	fixation
190959.44707999995	2750	n/a	1245	71	2750	2314.55292	stim	stop-signal	288	843375	0.0-13.43-1.43	beast_fmri_test	387	841150,/,841830,/,842510,/,843190,/,843870,/,844550,/,845230,/	t,t,t,t,t,t,t	<img class = center src='/static/experiments/beast_fmri_test/images/T.png'></img>	89,71	2750.0	test	<img class = center src='/static/experiments/beast_fmri_test/images/redT.png'></img>	go	2200.0	2.0	43.0	go	target	T	89,Middle Finger	71,Index Finger	550.0	650.0	2200.0	2100.0	0.0	n/a	550.0	0.0	go_stim
193709.44707999995	2314.5529200000001	n/a	1245	71	2750	2314.55292	stim	stop-signal	288	843375	0.0-13.43-1.43	beast_fmri_test	387	841150,/,841830,/,842510,/,843190,/,843870,/,844550,/,845230,/	t,t,t,t,t,t,t	<img class = center src='/static/experiments/beast_fmri_test/images/T.png'></img>	89,71	2750.0	test	<img class = center src='/static/experiments/beast_fmri_test/images/redT.png'></img>	go	2200.0	2.0	43.0	go	target	T	89,Middle Finger	71,Index Finger	550.0	650.0	2200.0	2100.0	0.0	n/a	550.0	0.0	ITI
198849	500	n/a	-1	-1	500	0.0	fixation	poldrack-single-stim	289	846200	0.0-13.44-0.44	beast_fmri_test	387	845910,/	t	<div class = centerbox2><div class = fixation>+</div></div>	none	500.0	test	n/a	n/a	n/a	n/a	n/a	n/a	n/a	n/a	n/a	n/a	n/a	n/a	n/a	n/a	n/a	n/a	n/a	n/a	fixation
198310.86897029995	2750	n/a	892	71	2750	540.1310297	stim	stop-signal	290	848952	0.0-13.44-1.44	beast_fmri_test	387	846590,/,847270,/,847951,/,848630,/,849310,/	t,t,t,t,t	<img class = center src='/static/experiments/beast_fmri_test/images/P.png'></img>	89,71	2750.0	test	<img class = center src='/static/experiments/beast_fmri_test/images/redP.png'></img>	go	2100.0	2.0	44.0	go	non-target	P	89,Middle Finger	71,Index Finger	550.0	650.0	2200.0	2100.0	1.0	n/a	650.0	1.0	go_stim
201060.86897029995	540.1310297	n/a	892	71	2750	540.1310297	stim	stop-signal	290	848952	0.0-13.44-1.44	beast_fmri_test	387	846590,/,847270,/,847951,/,848630,/,849310,/	t,t,t,t,t	<img class = center src='/static/experiments/beast_fmri_test/images/P.png'></img>	89,71	2750.0	test	<img class = center src='/static/experiments/beast_fmri_test/images/redP.png'></img>	go	2100.0	2.0	44.0	go	non-target	P	89,Middle Finger	71,Index Finger	550.0	650.0	2200.0	2100.0	1.0	n/a	650.0	1.0	ITI
202653	500	n/a	-1	-1	500	0.0	fixation	poldrack-single-stim	291	850004	0.0-13.45-0.45	beast_fmri_test	387	849990,/	t	<div class = centerbox2><div class = fixation>+</div></div>	none	500.0	test	n/a	n/a	n/a	n/a	n/a	n/a	n/a	n/a	n/a	n/a	n/a	n/a	n/a	n/a	n/a	n/a	n/a	n/a	fixation
202559.94387373002	650.0	n/a	634	71	2750	95.05612627	stim	stop-signal	292	852756	0.0-13.45-1.45	beast_fmri_test	387	850670,/,851350,/,852030,/,852710,/	t,t,t,t	<img class = center src='/static/experiments/beast_fmri_test/images/D.png'></img>	89,71	2750.0	test	<img class = center src='/static/experiments/beast_fmri_test/images/redD.png'></img>	stop	2100.0	2.0	45.0	stop	non-target	D	89,Middle Finger	71,Index Finger	550.0	650.0	2200.0	2100.0	0.0	0.0	650.0	n/a	go_stim
204659.94387373002	2100.0	n/a	634	71	2750	95.05612627	stim	stop-signal	292	852756	0.0-13.45-1.45	beast_fmri_test	387	850670,/,851350,/,852030,/,852710,/	t,t,t,t	<img class = center src='/static/experiments/beast_fmri_test/images/D.png'></img>	89,71	2750.0	test	<img class = center src='/static/experiments/beast_fmri_test/images/redD.png'></img>	stop	2100.0	2.0	45.0	stop	non-target	D	89,Middle Finger	71,Index Finger	550.0	650.0	2200.0	2100.0	0.0	0.0	650.0	n/a	stop_stim
205309.94387373002	95.056126269999993	n/a	634	71	2750	95.05612627	stim	stop-signal	292	852756	0.0-13.45-1.45	beast_fmri_test	387	850670,/,851350,/,852030,/,852710,/	t,t,t,t	<img class = center src='/static/experiments/beast_fmri_test/images/D.png'></img>	89,71	2750.0	test	<img class = center src='/static/experiments/beast_fmri_test/images/redD.png'></img>	stop	2100.0	2.0	45.0	stop	non-target	D	89,Middle Finger	71,Index Finger	550.0	650.0	2200.0	2100.0	0.0	0.0	650.0	n/a	ITI
206012	500	n/a	-1	-1	500	0.0	fixation	poldrack-single-stim	293	853363	0.0-13.46-0.46	beast_fmri_test	387	n/a	n/a	<div class = centerbox2><div class = fixation>+</div></div>	none	500.0	test	n/a	n/a	n/a	n/a	n/a	n/a	n/a	n/a	n/a	n/a	n/a	n/a	n/a	n/a	n/a	n/a	n/a	n/a	fixation
205470.66903550003	2750	n/a	720	89	2750	543.3309645	stim	stop-signal	294	856115	0.0-13.46-1.46	beast_fmri_test	387	853390,/,854071,/,854751,/,855431,/,856111,/	t,t,t,t,t	<img class = center src='/static/experiments/beast_fmri_test/images/P.png'></img>	89,71	2750.0	test	<img class = center src='/static/experiments/beast_fmri_test/images/redP.png'></img>	go	2200.0	2.0	46.0	go	target	P	89,Middle Finger	71,Index Finger	550.0	600.0	2200.0	2100.0	1.0	n/a	550.0	1.0	go_stim
208220.66903550003	543.33096449999994	n/a	720	89	2750	543.3309645	stim	stop-signal	294	856115	0.0-13.46-1.46	beast_fmri_test	387	853390,/,854071,/,854751,/,855431,/,856111,/	t,t,t,t,t	<img class = center src='/static/experiments/beast_fmri_test/images/P.png'></img>	89,71	2750.0	test	<img class = center src='/static/experiments/beast_fmri_test/images/redP.png'></img>	go	2200.0	2.0	46.0	go	target	P	89,Middle Finger	71,Index Finger	550.0	600.0	2200.0	2100.0	1.0	n/a	550.0	1.0	ITI
224317	15000	n/a	-1	-1	15000	0.0	practice-no-stop-feedback	poldrack-single-stim	295	871668	0.0-14.0	beast_fmri_test	387	856791,/,857471,/,858152,/,858831,/,859511,/,860191,/,860871,/,861551,/,862230,/,862911,/,863590,/,864271,/,864950,/,865631,/,866310,/,866991,/,867670,/,868352,/,869030,/,869711,/,870390,/,871071,/	t,t,t,t,t,t,t,t,t,t,t,t,t,t,t,t,t,t,t,t,t,t	"<div class = ""centerbox2_2""><p class = ""block-text2"">Your delay is 3 trials.</p><p class = block-text2>Please wait for the scanner to start the block</p></div>"	77	15000.0	n/a	n/a	n/a	n/a	n/a	n/a	n/a	n/a	n/a	n/a	n/a	n/a	n/a	n/a	n/a	n/a	n/a	n/a	n/a	practice-no-stop-feedback
224818	500	n/a	-1	-1	500	0.0	fixation	poldrack-single-stim	296	872169	0.0-15.0-0.0	beast_fmri_test	387	871750,/	t	<div class = centerbox2><div class = fixation>+</div></div>	none	500.0	test	n/a	n/a	n/a	n/a	n/a	n/a	n/a	n/a	n/a	n/a	n/a	n/a	n/a	n/a	n/a	n/a	n/a	n/a	fixation
222746.25132599997	temp_go_duration	n/a	664	71	2750	2073.748674	stim	stop-signal	297	874921	0.0-15.0-1.0	beast_fmri_test	387	872430,/,873110,/,873790,/,874470,/,875150,/,875830,/,876510,/	t,t,t,t,t,t,t	<img class = center src='/static/experiments/beast_fmri_test/images/D.png'></img>	89,71	2750.0	test	<img class = center src='/static/experiments/beast_fmri_test/images/redD.png'></img>	stop	-1.0	3.0	0.0	stop	temp-non-target	D	89,Middle Finger	71,Index Finger	550.0	600.0	2200.0	2100.0	0.0	0.0	n/a	n/a	go_stim
temp-non-target	temp_stop_duration	n/a	664	71	2750	2073.748674	stim	stop-signal	297	874921	0.0-15.0-1.0	beast_fmri_test	387	872430,/,873110,/,873790,/,874470,/,875150,/,875830,/,876510,/	t,t,t,t,t,t,t	<img class = center src='/static/experiments/beast_fmri_test/images/D.png'></img>	89,71	2750.0	test	<img class = center src='/static/experiments/beast_fmri_test/images/redD.png'></img>	stop	-1.0	3.0	0.0	stop	temp-non-target	D	89,Middle Finger	71,Index Finger	550.0	600.0	2200.0	2100.0	0.0	0.0	n/a	n/a	stop_stim
225496.25132599997	2073.7486739999999	n/a	664	71	2750	2073.748674	stim	stop-signal	297	874921	0.0-15.0-1.0	beast_fmri_test	387	872430,/,873110,/,873790,/,874470,/,875150,/,875830,/,876510,/	t,t,t,t,t,t,t	<img class = center src='/static/experiments/beast_fmri_test/images/D.png'></img>	89,71	2750.0	test	<img class = center src='/static/experiments/beast_fmri_test/images/redD.png'></img>	stop	-1.0	3.0	0.0	stop	temp-non-target	D	89,Middle Finger	71,Index Finger	550.0	600.0	2200.0	2100.0	0.0	0.0	n/a	n/a	ITI
230157	500	n/a	-1	-1	500	0.0	fixation	poldrack-single-stim	298	877508	0.0-15.1-0.1	beast_fmri_test	387	877190,/	t	<div class = centerbox2><div class = fixation>+</div></div>	none	500.0	test	n/a	n/a	n/a	n/a	n/a	n/a	n/a	n/a	n/a	n/a	n/a	n/a	n/a	n/a	n/a	n/a	n/a	n/a	fixation
228937.02830899996	2750	n/a	703	71	2750	1221.971691	stim	stop-signal	299	880260	0.0-15.1-1.1	beast_fmri_test	387	877870,/,878550,/,879230,/,879910,/,880590,/,881270,/	t,t,t,t,t,t	<img class = center src='/static/experiments/beast_fmri_test/images/T.png'></img>	89,71	2750.0	test	<img class = center src='/static/experiments/beast_fmri_test/images/redT.png'></img>	go	-1.0	3.0	1.0	go	temp-non-target	T	89,Middle Finger	71,Index Finger	550.0	600.0	2200.0	2100.0	0.0	n/a	n/a	n/a	go_stim
231687.02830899996	1221.971691	n/a	703	71	2750	1221.971691	stim	stop-signal	299	880260	0.0-15.1-1.1	beast_fmri_test	387	877870,/,878550,/,879230,/,879910,/,880590,/,881270,/	t,t,t,t,t,t	<img class = center src='/static/experiments/beast_fmri_test/images/T.png'></img>	89,71	2750.0	test	<img class = center src='/static/experiments/beast_fmri_test/images/redT.png'></img>	go	-1.0	3.0	1.0	go	temp-non-target	T	89,Middle Finger	71,Index Finger	550.0	600.0	2200.0	2100.0	0.0	n/a	n/a	n/a	ITI
234642	500	n/a	-1	-1	500	0.0	fixation	poldrack-single-stim	300	881993	0.0-15.2-0.2	beast_fmri_test	387	881950,/	t	<div class = centerbox2><div class = fixation>+</div></div>	none	500.0	test	n/a	n/a	n/a	n/a	n/a	n/a	n/a	n/a	n/a	n/a	n/a	n/a	n/a	n/a	n/a	n/a	n/a	n/a	fixation
234416.61225120001	2750	n/a	712	71	2750	227.3877488	stim	stop-signal	301	884745	0.0-15.2-1.2	beast_fmri_test	387	882630,/,883310,/,883990,/,884670,/	t,t,t,t	<img class = center src='/static/experiments/beast_fmri_test/images/T.png'></img>	89,71	2750.0	test	<img class = center src='/static/experiments/beast_fmri_test/images/redT.png'></img>	go	-1.0	3.0	2.0	go	temp-non-target	T	89,Middle Finger	71,Index Finger	550.0	600.0	2200.0	2100.0	0.0	n/a	n/a	n/a	go_stim
237166.61225120001	227.3877488	n/a	712	71	2750	227.3877488	stim	stop-signal	301	884745	0.0-15.2-1.2	beast_fmri_test	387	882630,/,883310,/,883990,/,884670,/	t,t,t,t	<img class = center src='/static/experiments/beast_fmri_test/images/T.png'></img>	89,71	2750.0	test	<img class = center src='/static/experiments/beast_fmri_test/images/redT.png'></img>	go	-1.0	3.0	2.0	go	temp-non-target	T	89,Middle Finger	71,Index Finger	550.0	600.0	2200.0	2100.0	0.0	n/a	n/a	n/a	ITI
238132	500	n/a	-1	-1	500	0.0	fixation	poldrack-single-stim	302	885483	0.0-15.3-0.3	beast_fmri_test	387	885350,/	t	<div class = centerbox2><div class = fixation>+</div></div>	none	500.0	test	n/a	n/a	n/a	n/a	n/a	n/a	n/a	n/a	n/a	n/a	n/a	n/a	n/a	n/a	n/a	n/a	n/a	n/a	fixation
237844.85922079999	2750	n/a	1921	71	2750	288.1407792	stim	stop-signal	303	888234	0.0-15.3-1.3	beast_fmri_test	387	886030,/,886710,/,887391,/,888071,/	t,t,t,t	<img class = center src='/static/experiments/beast_fmri_test/images/T.png'></img>	89,71	2750.0	test	<img class = center src='/static/experiments/beast_fmri_test/images/redT.png'></img>	go	2150.0	3.0	3.0	go	non-target	T	89,Middle Finger	71,Index Finger	550.0	600.0	2200.0	2150.0	1.0	n/a	600.0	1.0	go_stim
240594.85922079999	288.1407792	n/a	1921	71	2750	288.1407792	stim	stop-signal	303	888234	0.0-15.3-1.3	beast_fmri_test	387	886030,/,886710,/,887391,/,888071,/	t,t,t,t	<img class = center src='/static/experiments/beast_fmri_test/images/T.png'></img>	89,71	2750.0	test	<img class = center src='/static/experiments/beast_fmri_test/images/redT.png'></img>	go	2150.0	3.0	3.0	go	non-target	T	89,Middle Finger	71,Index Finger	550.0	600.0	2200.0	2150.0	1.0	n/a	600.0	1.0	ITI
241684	500	n/a	-1	-1	500	0.0	fixation	poldrack-single-stim	304	889035	0.0-15.4-0.4	beast_fmri_test	387	888752,/	t	<div class = centerbox2><div class = fixation>+</div></div>	none	500.0	test	n/a	n/a	n/a	n/a	n/a	n/a	n/a	n/a	n/a	n/a	n/a	n/a	n/a	n/a	n/a	n/a	n/a	n/a	fixation
240494.30502099998	2750	n/a	1559	71	2750	1191.694979	stim	stop-signal	305	891787	0.0-15.4-1.4	beast_fmri_test	387	889431,/,890111,/,890791,/,891471,/,892151,/,892831,/	t,t,t,t,t,t	<img class = center src='/static/experiments/beast_fmri_test/images/B.png'></img>	89,71	2750.0	test	<img class = center src='/static/experiments/beast_fmri_test/images/redB.png'></img>	go	2150.0	3.0	4.0	go	non-target	B	89,Middle Finger	71,Index Finger	550.0	600.0	2200.0	2150.0	1.0	n/a	600.0	1.0	go_stim
243244.30502099998	1191.6949789999999	n/a	1559	71	2750	1191.694979	stim	stop-signal	305	891787	0.0-15.4-1.4	beast_fmri_test	387	889431,/,890111,/,890791,/,891471,/,892151,/,892831,/	t,t,t,t,t,t	<img class = center src='/static/experiments/beast_fmri_test/images/B.png'></img>	89,71	2750.0	test	<img class = center src='/static/experiments/beast_fmri_test/images/redB.png'></img>	go	2150.0	3.0	4.0	go	non-target	B	89,Middle Finger	71,Index Finger	550.0	600.0	2200.0	2150.0	1.0	n/a	600.0	1.0	ITI
246139	500	n/a	-1	-1	500	0.0	fixation	poldrack-single-stim	306	893490	0.0-15.5-0.5	beast_fmri_test	387	n/a	n/a	<div class = centerbox2><div class = fixation>+</div></div>	none	500.0	test	n/a	n/a	n/a	n/a	n/a	n/a	n/a	n/a	n/a	n/a	n/a	n/a	n/a	n/a	n/a	n/a	n/a	n/a	fixation
244559.584913	2750	n/a	1304	71	2750	1581.415087	stim	stop-signal	307	896242	0.0-15.5-1.5	beast_fmri_test	387	893511,/,894191,/,894871,/,895550,/,896231,/,896910,/,897591,/	t,t,t,t,t,t,t	<img class = center src='/static/experiments/beast_fmri_test/images/P.png'></img>	89,71	2750.0	test	<img class = center src='/static/experiments/beast_fmri_test/images/redP.png'></img>	go	2150.0	3.0	5.0	go	non-target	P	89,Middle Finger	71,Index Finger	550.0	600.0	2200.0	2150.0	1.0	n/a	600.0	1.0	go_stim
247309.584913	1581.4150869999999	n/a	1304	71	2750	1581.415087	stim	stop-signal	307	896242	0.0-15.5-1.5	beast_fmri_test	387	893511,/,894191,/,894871,/,895550,/,896231,/,896910,/,897591,/	t,t,t,t,t,t,t	<img class = center src='/static/experiments/beast_fmri_test/images/P.png'></img>	89,71	2750.0	test	<img class = center src='/static/experiments/beast_fmri_test/images/redP.png'></img>	go	2150.0	3.0	5.0	go	non-target	P	89,Middle Finger	71,Index Finger	550.0	600.0	2200.0	2150.0	1.0	n/a	600.0	1.0	ITI
250985	500	n/a	-1	-1	500	0.0	fixation	poldrack-single-stim	308	898336	0.0-15.6-0.6	beast_fmri_test	387	898271,/	t	<div class = centerbox2><div class = fixation>+</div></div>	none	500.0	test	n/a	n/a	n/a	n/a	n/a	n/a	n/a	n/a	n/a	n/a	n/a	n/a	n/a	n/a	n/a	n/a	n/a	n/a	fixation
249049.87049500004	2750	n/a	1072	71	2750	1937.129505	stim	stop-signal	309	901088	0.0-15.6-1.6	beast_fmri_test	387	898952,/,899630,/,900311,/,900991,/,901670,/,902350,/	t,t,t,t,t,t	<img class = center src='/static/experiments/beast_fmri_test/images/V.png'></img>	89,71	2750.0	test	<img class = center src='/static/experiments/beast_fmri_test/images/redV.png'></img>	go	2150.0	3.0	6.0	go	non-target	V	89,Middle Finger	71,Index Finger	550.0	600.0	2200.0	2150.0	1.0	n/a	600.0	1.0	go_stim
251799.87049500004	1937.1295050000001	n/a	1072	71	2750	1937.129505	stim	stop-signal	309	901088	0.0-15.6-1.6	beast_fmri_test	387	898952,/,899630,/,900311,/,900991,/,901670,/,902350,/	t,t,t,t,t,t	<img class = center src='/static/experiments/beast_fmri_test/images/V.png'></img>	89,71	2750.0	test	<img class = center src='/static/experiments/beast_fmri_test/images/redV.png'></img>	go	2150.0	3.0	6.0	go	non-target	V	89,Middle Finger	71,Index Finger	550.0	600.0	2200.0	2150.0	1.0	n/a	600.0	1.0	ITI
256187	500	n/a	-1	-1	500	0.0	fixation	poldrack-single-stim	310	903538	0.0-15.7-0.7	beast_fmri_test	387	903036,/	t	<div class = centerbox2><div class = fixation>+</div></div>	none	500.0	test	n/a	n/a	n/a	n/a	n/a	n/a	n/a	n/a	n/a	n/a	n/a	n/a	n/a	n/a	n/a	n/a	n/a	n/a	fixation
255128.60344099998	2750	n/a	883	71	2750	1060.396559	stim	stop-signal	311	906290	0.0-15.7-1.7	beast_fmri_test	387	903710,/,904391,/,905070,/,905750,/,906430,/,907110,/	t,t,t,t,t,t	<img class = center src='/static/experiments/beast_fmri_test/images/D.png'></img>	89,71	2750.0	test	<img class = center src='/static/experiments/beast_fmri_test/images/redD.png'></img>	go	2150.0	3.0	7.0	go	non-target	D	89,Middle Finger	71,Index Finger	550.0	600.0	2200.0	2150.0	1.0	n/a	600.0	1.0	go_stim
257878.60344099998	1060.396559	n/a	883	71	2750	1060.396559	stim	stop-signal	311	906290	0.0-15.7-1.7	beast_fmri_test	387	903710,/,904391,/,905070,/,905750,/,906430,/,907110,/	t,t,t,t,t,t	<img class = center src='/static/experiments/beast_fmri_test/images/D.png'></img>	89,71	2750.0	test	<img class = center src='/static/experiments/beast_fmri_test/images/redD.png'></img>	go	2150.0	3.0	7.0	go	non-target	D	89,Middle Finger	71,Index Finger	550.0	600.0	2200.0	2150.0	1.0	n/a	600.0	1.0	ITI
260511	500	n/a	-1	-1	500	0.0	fixation	poldrack-single-stim	312	907862	0.0-15.8-0.8	beast_fmri_test	387	907790,/	t	<div class = centerbox2><div class = fixation>+</div></div>	none	500.0	test	n/a	n/a	n/a	n/a	n/a	n/a	n/a	n/a	n/a	n/a	n/a	n/a	n/a	n/a	n/a	n/a	n/a	n/a	fixation
259773.52049629996	2750	n/a	1350	89	2750	740.4795037	stim	stop-signal	313	910615	0.0-15.8-1.8	beast_fmri_test	387	908470,/,909151,/,909830,/,910510,/,911190,/	t,t,t,t,t	<img class = center src='/static/experiments/beast_fmri_test/images/P.png'></img>	89,71	2750.0	test	<img class = center src='/static/experiments/beast_fmri_test/images/redP.png'></img>	go	2200.0	3.0	8.0	go	target	P	89,Middle Finger	71,Index Finger	550.0	600.0	2200.0	2150.0	1.0	n/a	550.0	1.0	go_stim
262523.52049629996	740.47950370000001	n/a	1350	89	2750	740.4795037	stim	stop-signal	313	910615	0.0-15.8-1.8	beast_fmri_test	387	908470,/,909151,/,909830,/,910510,/,911190,/	t,t,t,t,t	<img class = center src='/static/experiments/beast_fmri_test/images/P.png'></img>	89,71	2750.0	test	<img class = center src='/static/experiments/beast_fmri_test/images/redP.png'></img>	go	2200.0	3.0	8.0	go	target	P	89,Middle Finger	71,Index Finger	550.0	600.0	2200.0	2150.0	1.0	n/a	550.0	1.0	ITI
264516	500	n/a	-1	-1	500	0.0	fixation	poldrack-single-stim	314	911867	0.0-15.9-0.9	beast_fmri_test	387	n/a	n/a	<div class = centerbox2><div class = fixation>+</div></div>	none	500.0	test	n/a	n/a	n/a	n/a	n/a	n/a	n/a	n/a	n/a	n/a	n/a	n/a	n/a	n/a	n/a	n/a	n/a	n/a	fixation
263205.42458999995	600.0	n/a	-1	-1	2750	1312.57541	stim	stop-signal	315	914619	0.0-15.9-1.9	beast_fmri_test	387	911870,/,912550,/,913230,/,913910,/,914590,/,915270,/	t,t,t,t,t,t	<img class = center src='/static/experiments/beast_fmri_test/images/T.png'></img>	89,71	2750.0	test	<img class = center src='/static/experiments/beast_fmri_test/images/redT.png'></img>	stop	2150.0	3.0	9.0	stop	non-target	T	89,Middle Finger	71,Index Finger	550.0	600.0	2200.0	2150.0	0.0	1.0	600.0	n/a	go_stim
265355.42458999995	2150.0	n/a	-1	-1	2750	1312.57541	stim	stop-signal	315	914619	0.0-15.9-1.9	beast_fmri_test	387	911870,/,912550,/,913230,/,913910,/,914590,/,915270,/	t,t,t,t,t,t	<img class = center src='/static/experiments/beast_fmri_test/images/T.png'></img>	89,71	2750.0	test	<img class = center src='/static/experiments/beast_fmri_test/images/redT.png'></img>	stop	2150.0	3.0	9.0	stop	non-target	T	89,Middle Finger	71,Index Finger	550.0	600.0	2200.0	2150.0	0.0	1.0	600.0	n/a	stop_stim
265955.42458999995	1312.5754099999999	n/a	-1	-1	2750	1312.57541	stim	stop-signal	315	914619	0.0-15.9-1.9	beast_fmri_test	387	911870,/,912550,/,913230,/,913910,/,914590,/,915270,/	t,t,t,t,t,t	<img class = center src='/static/experiments/beast_fmri_test/images/T.png'></img>	89,71	2750.0	test	<img class = center src='/static/experiments/beast_fmri_test/images/redT.png'></img>	stop	2150.0	3.0	9.0	stop	non-target	T	89,Middle Finger	71,Index Finger	550.0	600.0	2200.0	2150.0	0.0	1.0	600.0	n/a	ITI
269093	500	n/a	-1	-1	500	0.0	fixation	poldrack-single-stim	316	916444	0.0-15.10-0.10	beast_fmri_test	387	915950,/	t	<div class = centerbox2><div class = fixation>+</div></div>	none	500.0	test	n/a	n/a	n/a	n/a	n/a	n/a	n/a	n/a	n/a	n/a	n/a	n/a	n/a	n/a	n/a	n/a	n/a	n/a	fixation
268291.92384469998	2750	n/a	1034	71	2750	802.0761553	stim	stop-signal	317	919195	0.0-15.10-1.10	beast_fmri_test	387	916630,/,917310,/,917990,/,918670,/,919351,/	t,t,t,t,t	<img class = center src='/static/experiments/beast_fmri_test/images/D.png'></img>	89,71	2750.0	test	<img class = center src='/static/experiments/beast_fmri_test/images/redD.png'></img>	go	2200.0	3.0	10.0	go	target	D	89,Middle Finger	71,Index Finger	550.0	650.0	2200.0	2150.0	0.0	n/a	550.0	0.0	go_stim
271041.92384469998	802.07615529999998	n/a	1034	71	2750	802.0761553	stim	stop-signal	317	919195	0.0-15.10-1.10	beast_fmri_test	387	916630,/,917310,/,917990,/,918670,/,919351,/	t,t,t,t,t	<img class = center src='/static/experiments/beast_fmri_test/images/D.png'></img>	89,71	2750.0	test	<img class = center src='/static/experiments/beast_fmri_test/images/redD.png'></img>	go	2200.0	3.0	10.0	go	target	D	89,Middle Finger	71,Index Finger	550.0	650.0	2200.0	2150.0	0.0	n/a	550.0	0.0	ITI
273158	500	n/a	-1	-1	500	0.0	fixation	poldrack-single-stim	318	920509	0.0-15.11-0.11	beast_fmri_test	387	920031,/	t	<div class = centerbox2><div class = fixation>+</div></div>	none	500.0	test	n/a	n/a	n/a	n/a	n/a	n/a	n/a	n/a	n/a	n/a	n/a	n/a	n/a	n/a	n/a	n/a	n/a	n/a	fixation
270958.02132299996	550.0	n/a	-1	-1	2750	2201.978677	stim	stop-signal	319	923261	0.0-15.11-1.11	beast_fmri_test	387	920711,/,921391,/,922071,/,922752,/,923431,/,924111,/,924791,/	t,t,t,t,t,t,t	<img class = center src='/static/experiments/beast_fmri_test/images/P.png'></img>	89,71	2750.0	test	<img class = center src='/static/experiments/beast_fmri_test/images/redP.png'></img>	stop	2200.0	3.0	11.0	stop	target	P	89,Middle Finger	71,Index Finger	550.0	650.0	2200.0	2150.0	0.0	1.0	550.0	n/a	go_stim
273158.02132299996	2200.0	n/a	-1	-1	2750	2201.978677	stim	stop-signal	319	923261	0.0-15.11-1.11	beast_fmri_test	387	920711,/,921391,/,922071,/,922752,/,923431,/,924111,/,924791,/	t,t,t,t,t,t,t	<img class = center src='/static/experiments/beast_fmri_test/images/P.png'></img>	89,71	2750.0	test	<img class = center src='/static/experiments/beast_fmri_test/images/redP.png'></img>	stop	2200.0	3.0	11.0	stop	target	P	89,Middle Finger	71,Index Finger	550.0	650.0	2200.0	2150.0	0.0	1.0	550.0	n/a	stop_stim
273708.02132299996	2201.9786770000001	n/a	-1	-1	2750	2201.978677	stim	stop-signal	319	923261	0.0-15.11-1.11	beast_fmri_test	387	920711,/,921391,/,922071,/,922752,/,923431,/,924111,/,924791,/	t,t,t,t,t,t,t	<img class = center src='/static/experiments/beast_fmri_test/images/P.png'></img>	89,71	2750.0	test	<img class = center src='/static/experiments/beast_fmri_test/images/redP.png'></img>	stop	2200.0	3.0	11.0	stop	target	P	89,Middle Finger	71,Index Finger	550.0	650.0	2200.0	2150.0	0.0	1.0	550.0	n/a	ITI
278624	500	n/a	-1	-1	500	0.0	fixation	poldrack-single-stim	320	925975	0.0-15.12-0.12	beast_fmri_test	387	925473,/	t	<div class = centerbox2><div class = fixation>+</div></div>	none	500.0	test	n/a	n/a	n/a	n/a	n/a	n/a	n/a	n/a	n/a	n/a	n/a	n/a	n/a	n/a	n/a	n/a	n/a	n/a	fixation
273981.20564399997	2750	n/a	966	71	2750	4644.794356	stim	stop-signal	321	928727	0.0-15.12-1.12	beast_fmri_test	387	926151,/,926831,/,927511,/,928190,/,928871,/,929551,/,930230,/,930910,/,931590,/,932271,/,932950,/	t,t,t,t,t,t,t,t,t,t,t	<img class = center src='/static/experiments/beast_fmri_test/images/T.png'></img>	89,71	2750.0	test	<img class = center src='/static/experiments/beast_fmri_test/images/redT.png'></img>	go	2150.0	3.0	12.0	go	target	T	89,Middle Finger	71,Index Finger	600.0	650.0	2150.0	2150.0	0.0	n/a	600.0	0.0	go_stim
276731.20564399997	4644.7943560000003	n/a	966	71	2750	4644.794356	stim	stop-signal	321	928727	0.0-15.12-1.12	beast_fmri_test	387	926151,/,926831,/,927511,/,928190,/,928871,/,929551,/,930230,/,930910,/,931590,/,932271,/,932950,/	t,t,t,t,t,t,t,t,t,t,t	<img class = center src='/static/experiments/beast_fmri_test/images/T.png'></img>	89,71	2750.0	test	<img class = center src='/static/experiments/beast_fmri_test/images/redT.png'></img>	go	2150.0	3.0	12.0	go	target	T	89,Middle Finger	71,Index Finger	600.0	650.0	2150.0	2150.0	0.0	n/a	600.0	0.0	ITI
286533	500	n/a	-1	-1	500	0.0	fixation	poldrack-single-stim	322	933884	0.0-15.13-0.13	beast_fmri_test	387	933630,/	t	<div class = centerbox2><div class = fixation>+</div></div>	none	500.0	test	n/a	n/a	n/a	n/a	n/a	n/a	n/a	n/a	n/a	n/a	n/a	n/a	n/a	n/a	n/a	n/a	n/a	n/a	fixation
285957.85357519996	650.0	n/a	777	71	2750	577.1464248	stim	stop-signal	323	936636	0.0-15.13-1.13	beast_fmri_test	387	934311,/,934990,/,935671,/,936350,/,937030,/	t,t,t,t,t	<img class = center src='/static/experiments/beast_fmri_test/images/B.png'></img>	89,71	2750.0	test	<img class = center src='/static/experiments/beast_fmri_test/images/redB.png'></img>	stop	2100.0	3.0	13.0	stop	non-target	B	89,Middle Finger	71,Index Finger	600.0	650.0	2150.0	2100.0	0.0	0.0	650.0	n/a	go_stim
288057.85357519996	2100.0	n/a	777	71	2750	577.1464248	stim	stop-signal	323	936636	0.0-15.13-1.13	beast_fmri_test	387	934311,/,934990,/,935671,/,936350,/,937030,/	t,t,t,t,t	<img class = center src='/static/experiments/beast_fmri_test/images/B.png'></img>	89,71	2750.0	test	<img class = center src='/static/experiments/beast_fmri_test/images/redB.png'></img>	stop	2100.0	3.0	13.0	stop	non-target	B	89,Middle Finger	71,Index Finger	600.0	650.0	2150.0	2100.0	0.0	0.0	650.0	n/a	stop_stim
288707.85357519996	577.14642479999998	n/a	777	71	2750	577.1464248	stim	stop-signal	323	936636	0.0-15.13-1.13	beast_fmri_test	387	934311,/,934990,/,935671,/,936350,/,937030,/	t,t,t,t,t	<img class = center src='/static/experiments/beast_fmri_test/images/B.png'></img>	89,71	2750.0	test	<img class = center src='/static/experiments/beast_fmri_test/images/redB.png'></img>	stop	2100.0	3.0	13.0	stop	non-target	B	89,Middle Finger	71,Index Finger	600.0	650.0	2150.0	2100.0	0.0	0.0	650.0	n/a	ITI
290376	500	n/a	-1	-1	500	0.0	fixation	poldrack-single-stim	324	937727	0.0-15.14-0.14	beast_fmri_test	387	937710,/	t	<div class = centerbox2><div class = fixation>+</div></div>	none	500.0	test	n/a	n/a	n/a	n/a	n/a	n/a	n/a	n/a	n/a	n/a	n/a	n/a	n/a	n/a	n/a	n/a	n/a	n/a	fixation
288429.36180099996	2750	n/a	959	89	2750	1948.638199	stim	stop-signal	325	940479	0.0-15.14-1.14	beast_fmri_test	387	938390,/,939070,/,939751,/,940430,/,941110,/,941790,/	t,t,t,t,t,t	<img class = center src='/static/experiments/beast_fmri_test/images/P.png'></img>	89,71	2750.0	test	<img class = center src='/static/experiments/beast_fmri_test/images/redP.png'></img>	go	2150.0	3.0	14.0	go	target	P	89,Middle Finger	71,Index Finger	600.0	600.0	2150.0	2100.0	1.0	n/a	600.0	1.0	go_stim
291179.36180099996	1948.6381989999998	n/a	959	89	2750	1948.638199	stim	stop-signal	325	940479	0.0-15.14-1.14	beast_fmri_test	387	938390,/,939070,/,939751,/,940430,/,941110,/,941790,/	t,t,t,t,t,t	<img class = center src='/static/experiments/beast_fmri_test/images/P.png'></img>	89,71	2750.0	test	<img class = center src='/static/experiments/beast_fmri_test/images/redP.png'></img>	go	2150.0	3.0	14.0	go	target	P	89,Middle Finger	71,Index Finger	600.0	600.0	2150.0	2100.0	1.0	n/a	600.0	1.0	ITI
295589	500	n/a	-1	-1	500	0.0	fixation	poldrack-single-stim	326	942940	0.0-15.15-0.15	beast_fmri_test	387	942470,/	t	<div class = centerbox2><div class = fixation>+</div></div>	none	500.0	test	n/a	n/a	n/a	n/a	n/a	n/a	n/a	n/a	n/a	n/a	n/a	n/a	n/a	n/a	n/a	n/a	n/a	n/a	fixation
294640.66480549995	2750	n/a	1608	89	2750	950.3351945	stim	stop-signal	327	945692	0.0-15.15-1.15	beast_fmri_test	387	943150,/,943830,/,944510,/,945190,/,945870,/,946550,/	t,t,t,t,t,t	<img class = center src='/static/experiments/beast_fmri_test/images/P.png'></img>	89,71	2750.0	test	<img class = center src='/static/experiments/beast_fmri_test/images/redP.png'></img>	go	2150.0	3.0	15.0	go	non-target	P	89,Middle Finger	71,Index Finger	600.0	600.0	2150.0	2150.0	0.0	n/a	600.0	0.0	go_stim
297390.66480549995	950.33519450000006	n/a	1608	89	2750	950.3351945	stim	stop-signal	327	945692	0.0-15.15-1.15	beast_fmri_test	387	943150,/,943830,/,944510,/,945190,/,945870,/,946550,/	t,t,t,t,t,t	<img class = center src='/static/experiments/beast_fmri_test/images/P.png'></img>	89,71	2750.0	test	<img class = center src='/static/experiments/beast_fmri_test/images/redP.png'></img>	go	2150.0	3.0	15.0	go	non-target	P	89,Middle Finger	71,Index Finger	600.0	600.0	2150.0	2150.0	0.0	n/a	600.0	0.0	ITI
299803	500	n/a	-1	-1	500	0.0	fixation	poldrack-single-stim	328	947154	0.0-15.16-0.16	beast_fmri_test	387	n/a	n/a	<div class = centerbox2><div class = fixation>+</div></div>	none	500.0	test	n/a	n/a	n/a	n/a	n/a	n/a	n/a	n/a	n/a	n/a	n/a	n/a	n/a	n/a	n/a	n/a	n/a	n/a	fixation
299194.41804100003	2750	n/a	2003	89	2750	610.581959	stim	stop-signal	329	949906	0.0-15.16-1.16	beast_fmri_test	387	947230,/,947910,/,948590,/,949270,/,949950,/	t,t,t,t,t	<img class = center src='/static/experiments/beast_fmri_test/images/T.png'></img>	89,71	2750.0	test	<img class = center src='/static/experiments/beast_fmri_test/images/redT.png'></img>	go	2150.0	3.0	16.0	go	non-target	T	89,Middle Finger	71,Index Finger	600.0	600.0	2150.0	2150.0	0.0	n/a	600.0	0.0	go_stim
301944.41804100003	610.58195899999998	n/a	2003	89	2750	610.581959	stim	stop-signal	329	949906	0.0-15.16-1.16	beast_fmri_test	387	947230,/,947910,/,948590,/,949270,/,949950,/	t,t,t,t,t	<img class = center src='/static/experiments/beast_fmri_test/images/T.png'></img>	89,71	2750.0	test	<img class = center src='/static/experiments/beast_fmri_test/images/redT.png'></img>	go	2150.0	3.0	16.0	go	non-target	T	89,Middle Finger	71,Index Finger	600.0	600.0	2150.0	2150.0	0.0	n/a	600.0	0.0	ITI
303679	500	n/a	-1	-1	500	0.0	fixation	poldrack-single-stim	330	951030	0.0-15.17-0.17	beast_fmri_test	387	950630,/	t	<div class = centerbox2><div class = fixation>+</div></div>	none	500.0	test	n/a	n/a	n/a	n/a	n/a	n/a	n/a	n/a	n/a	n/a	n/a	n/a	n/a	n/a	n/a	n/a	n/a	n/a	fixation
303194.73766890005	2750	n/a	820	71	2750	487.2623311	stim	stop-signal	331	953783	0.0-15.17-1.17	beast_fmri_test	387	951310,/,951990,/,952669,/,953351,/,954031,/	t,t,t,t,t	<img class = center src='/static/experiments/beast_fmri_test/images/D.png'></img>	89,71	2750.0	test	<img class = center src='/static/experiments/beast_fmri_test/images/redD.png'></img>	go	2150.0	3.0	17.0	go	non-target	D	89,Middle Finger	71,Index Finger	600.0	600.0	2150.0	2150.0	1.0	n/a	600.0	1.0	go_stim
305944.73766890005	487.2623311000001	n/a	820	71	2750	487.2623311	stim	stop-signal	331	953783	0.0-15.17-1.17	beast_fmri_test	387	951310,/,951990,/,952669,/,953351,/,954031,/	t,t,t,t,t	<img class = center src='/static/experiments/beast_fmri_test/images/D.png'></img>	89,71	2750.0	test	<img class = center src='/static/experiments/beast_fmri_test/images/redD.png'></img>	go	2150.0	3.0	17.0	go	non-target	D	89,Middle Finger	71,Index Finger	600.0	600.0	2150.0	2150.0	1.0	n/a	600.0	1.0	ITI
307432	500	n/a	-1	-1	500	0.0	fixation	poldrack-single-stim	332	954783	0.0-15.18-0.18	beast_fmri_test	387	954711,/	t	<div class = centerbox2><div class = fixation>+</div></div>	none	500.0	test	n/a	n/a	n/a	n/a	n/a	n/a	n/a	n/a	n/a	n/a	n/a	n/a	n/a	n/a	n/a	n/a	n/a	n/a	fixation
307140.50859890005	600.0	n/a	-1	-1	2750	293.4914011	stim	stop-signal	333	957535	0.0-15.18-1.18	beast_fmri_test	387	955390,/,956071,/,956751,/,957431,/	t,t,t,t	<img class = center src='/static/experiments/beast_fmri_test/images/B.png'></img>	89,71	2750.0	test	<img class = center src='/static/experiments/beast_fmri_test/images/redB.png'></img>	stop	2150.0	3.0	18.0	stop	non-target	B	89,Middle Finger	71,Index Finger	600.0	600.0	2150.0	2150.0	0.0	1.0	600.0	n/a	go_stim
309290.50859890005	2150.0	n/a	-1	-1	2750	293.4914011	stim	stop-signal	333	957535	0.0-15.18-1.18	beast_fmri_test	387	955390,/,956071,/,956751,/,957431,/	t,t,t,t	<img class = center src='/static/experiments/beast_fmri_test/images/B.png'></img>	89,71	2750.0	test	<img class = center src='/static/experiments/beast_fmri_test/images/redB.png'></img>	stop	2150.0	3.0	18.0	stop	non-target	B	89,Middle Finger	71,Index Finger	600.0	600.0	2150.0	2150.0	0.0	1.0	600.0	n/a	stop_stim
309890.50859890005	293.49140110000002	n/a	-1	-1	2750	293.4914011	stim	stop-signal	333	957535	0.0-15.18-1.18	beast_fmri_test	387	955390,/,956071,/,956751,/,957431,/	t,t,t,t	<img class = center src='/static/experiments/beast_fmri_test/images/B.png'></img>	89,71	2750.0	test	<img class = center src='/static/experiments/beast_fmri_test/images/redB.png'></img>	stop	2150.0	3.0	18.0	stop	non-target	B	89,Middle Finger	71,Index Finger	600.0	600.0	2150.0	2150.0	0.0	1.0	600.0	n/a	ITI
310991	500	n/a	-1	-1	500	0.0	fixation	poldrack-single-stim	334	958342	0.0-15.19-0.19	beast_fmri_test	387	958111,/	t	<div class = centerbox2><div class = fixation>+</div></div>	none	500.0	test	n/a	n/a	n/a	n/a	n/a	n/a	n/a	n/a	n/a	n/a	n/a	n/a	n/a	n/a	n/a	n/a	n/a	n/a	fixation
310964.48046879005	650.0	n/a	724	71	2750	28.51953121	stim	stop-signal	335	961094	0.0-15.19-1.19	beast_fmri_test	387	958791,/,959471,/,960151,/,960830,/	t,t,t,t	<img class = center src='/static/experiments/beast_fmri_test/images/V.png'></img>	89,71	2750.0	test	<img class = center src='/static/experiments/beast_fmri_test/images/redV.png'></img>	stop	2100.0	3.0	19.0	stop	non-target	V	89,Middle Finger	71,Index Finger	600.0	650.0	2150.0	2100.0	0.0	0.0	650.0	n/a	go_stim
313064.48046879005	2100.0	n/a	724	71	2750	28.51953121	stim	stop-signal	335	961094	0.0-15.19-1.19	beast_fmri_test	387	958791,/,959471,/,960151,/,960830,/	t,t,t,t	<img class = center src='/static/experiments/beast_fmri_test/images/V.png'></img>	89,71	2750.0	test	<img class = center src='/static/experiments/beast_fmri_test/images/redV.png'></img>	stop	2100.0	3.0	19.0	stop	non-target	V	89,Middle Finger	71,Index Finger	600.0	650.0	2150.0	2100.0	0.0	0.0	650.0	n/a	stop_stim
313714.48046879005	28.51953121	n/a	724	71	2750	28.51953121	stim	stop-signal	335	961094	0.0-15.19-1.19	beast_fmri_test	387	958791,/,959471,/,960151,/,960830,/	t,t,t,t	<img class = center src='/static/experiments/beast_fmri_test/images/V.png'></img>	89,71	2750.0	test	<img class = center src='/static/experiments/beast_fmri_test/images/redV.png'></img>	stop	2100.0	3.0	19.0	stop	non-target	V	89,Middle Finger	71,Index Finger	600.0	650.0	2150.0	2100.0	0.0	0.0	650.0	n/a	ITI
314286	500	n/a	-1	-1	500	0.0	fixation	poldrack-single-stim	336	961637	0.0-15.20-0.20	beast_fmri_test	387	961511,/	t	<div class = centerbox2><div class = fixation>+</div></div>	none	500.0	test	n/a	n/a	n/a	n/a	n/a	n/a	n/a	n/a	n/a	n/a	n/a	n/a	n/a	n/a	n/a	n/a	n/a	n/a	fixation
313713.25323909998	600.0	n/a	-1	-1	2750	574.7467609	stim	stop-signal	337	964389	0.0-15.20-1.20	beast_fmri_test	387	962191,/,962871,/,963550,/,964231,/,964910,/	t,t,t,t,t	<img class = center src='/static/experiments/beast_fmri_test/images/T.png'></img>	89,71	2750.0	test	<img class = center src='/static/experiments/beast_fmri_test/images/redT.png'></img>	stop	2150.0	3.0	20.0	stop	non-target	T	89,Middle Finger	71,Index Finger	600.0	600.0	2150.0	2150.0	0.0	1.0	600.0	n/a	go_stim
315863.25323909998	2150.0	n/a	-1	-1	2750	574.7467609	stim	stop-signal	337	964389	0.0-15.20-1.20	beast_fmri_test	387	962191,/,962871,/,963550,/,964231,/,964910,/	t,t,t,t,t	<img class = center src='/static/experiments/beast_fmri_test/images/T.png'></img>	89,71	2750.0	test	<img class = center src='/static/experiments/beast_fmri_test/images/redT.png'></img>	stop	2150.0	3.0	20.0	stop	non-target	T	89,Middle Finger	71,Index Finger	600.0	600.0	2150.0	2150.0	0.0	1.0	600.0	n/a	stop_stim
316463.25323909998	574.74676090000003	n/a	-1	-1	2750	574.7467609	stim	stop-signal	337	964389	0.0-15.20-1.20	beast_fmri_test	387	962191,/,962871,/,963550,/,964231,/,964910,/	t,t,t,t,t	<img class = center src='/static/experiments/beast_fmri_test/images/T.png'></img>	89,71	2750.0	test	<img class = center src='/static/experiments/beast_fmri_test/images/redT.png'></img>	stop	2150.0	3.0	20.0	stop	non-target	T	89,Middle Finger	71,Index Finger	600.0	600.0	2150.0	2150.0	0.0	1.0	600.0	n/a	ITI
318126	500	n/a	-1	-1	500	0.0	fixation	poldrack-single-stim	338	965477	0.0-15.21-0.21	beast_fmri_test	387	n/a	n/a	<div class = centerbox2><div class = fixation>+</div></div>	none	500.0	test	n/a	n/a	n/a	n/a	n/a	n/a	n/a	n/a	n/a	n/a	n/a	n/a	n/a	n/a	n/a	n/a	n/a	n/a	fixation
317763.85811369994	650.0	n/a	-1	-1	2750	364.1418863	stim	stop-signal	339	968229	0.0-15.21-1.21	beast_fmri_test	387	965591,/,966270,/,966951,/,967630,/,968311,/	t,t,t,t,t	<img class = center src='/static/experiments/beast_fmri_test/images/P.png'></img>	89,71	2750.0	test	<img class = center src='/static/experiments/beast_fmri_test/images/redP.png'></img>	stop	2100.0	3.0	21.0	stop	non-target	P	89,Middle Finger	71,Index Finger	600.0	650.0	2150.0	2100.0	0.0	1.0	650.0	n/a	go_stim
319863.85811369994	2100.0	n/a	-1	-1	2750	364.1418863	stim	stop-signal	339	968229	0.0-15.21-1.21	beast_fmri_test	387	965591,/,966270,/,966951,/,967630,/,968311,/	t,t,t,t,t	<img class = center src='/static/experiments/beast_fmri_test/images/P.png'></img>	89,71	2750.0	test	<img class = center src='/static/experiments/beast_fmri_test/images/redP.png'></img>	stop	2100.0	3.0	21.0	stop	non-target	P	89,Middle Finger	71,Index Finger	600.0	650.0	2150.0	2100.0	0.0	1.0	650.0	n/a	stop_stim
320513.85811369994	364.14188630000001	n/a	-1	-1	2750	364.1418863	stim	stop-signal	339	968229	0.0-15.21-1.21	beast_fmri_test	387	965591,/,966270,/,966951,/,967630,/,968311,/	t,t,t,t,t	<img class = center src='/static/experiments/beast_fmri_test/images/P.png'></img>	89,71	2750.0	test	<img class = center src='/static/experiments/beast_fmri_test/images/redP.png'></img>	stop	2100.0	3.0	21.0	stop	non-target	P	89,Middle Finger	71,Index Finger	600.0	650.0	2150.0	2100.0	0.0	1.0	650.0	n/a	ITI
321756	500	n/a	-1	-1	500	0.0	fixation	poldrack-single-stim	340	969107	0.0-15.22-0.22	beast_fmri_test	387	968990,/	t	<div class = centerbox2><div class = fixation>+</div></div>	none	500.0	test	n/a	n/a	n/a	n/a	n/a	n/a	n/a	n/a	n/a	n/a	n/a	n/a	n/a	n/a	n/a	n/a	n/a	n/a	fixation
320935.18483799999	2750	n/a	1507	89	2750	822.815162	stim	stop-signal	341	971859	0.0-15.22-1.22	beast_fmri_test	387	969670,/,970351,/,971030,/,971710,/,972390,/	t,t,t,t,t	<img class = center src='/static/experiments/beast_fmri_test/images/P.png'></img>	89,71	2750.0	test	<img class = center src='/static/experiments/beast_fmri_test/images/redP.png'></img>	go	2050.0	3.0	22.0	go	non-target	P	89,Middle Finger	71,Index Finger	600.0	700.0	2150.0	2050.0	0.0	n/a	700.0	0.0	go_stim
