onset	duration	text	rt	key_press	block_duration	timing_post_trial	trial_id	trial_type	trial_index	time_elapsed	internal_node_id	exp_id	subject_id	trigger_times	triggers	stimulus	possible_responses	stim_duration	exp_stage	SS_stimulus	SS_trial_type	SS_duration	load	trial_num	stop_trial_type	adaptive_trial_type	stim	yes_response_key	no_response_key	SSD_target	SSD_non_target	SSTarget	SSNonTarget	go_acc	stop_acc	SS_delay	adaptive_acc	new_trial_type
test	10880.0	n/a	-1	-1	10880	0.0	practice-no-stop-feedback	poldrack-single-stim	588	1642298	0.0-24.0	beast_fmri_test	387	1631418,/,1632098,/,1632778,/,1633458,/,1634138,/,1634818,/,1635498,/,1636178,/,1636858,/,1637539,/,1638218,/,1638898,/,1639578,/,1640258,/,1640938,/,1641618,/,1642297,/	t,t,t,t,t,t,t,t,t,t,t,t,t,t,t,t,t	"<div class = ""centerbox2_2""><p class = ""block-text2"">Your delay is 2 trials.</p><p class = block-text2>Please wait for the scanner to start the block</p></div>"	77	10880.0	n/a	n/a	n/a	n/a	n/a	n/a	n/a	n/a	n/a	n/a	n/a	n/a	n/a	n/a	n/a	n/a	n/a	n/a	n/a	start_functional_block
11382	500.0	n/a	-1	-1	500	0.0	fixation	poldrack-single-stim	589	1642800	0.0-25.0-0.0	beast_fmri_test	387	n/a	n/a	<div class = centerbox2><div class = fixation>+</div></div>	none	500.0	test	n/a	n/a	n/a	n/a	n/a	n/a	n/a	n/a	n/a	n/a	n/a	n/a	n/a	n/a	n/a	n/a	n/a	n/a	fixation
11264.186128699919	2750.0	n/a	893	71	2750	120.8138713	stim	stop-signal	590	1645553	0.0-25.0-1.0	beast_fmri_test	387	1642978,/,1643658,/,1644338,/,1645019,/	t,t,t,t	<img class = center src='/static/experiments/beast_fmri_test/images/P.png'></img>	89,71	2750.0	test	<img class = center src='/static/experiments/beast_fmri_test/images/redP.png'></img>	go	-1.0	2.0	0.0	go	temp-non-target	P	89,Middle Finger	71,Index Finger	500.0	900.0	2200.0	1900.0	0.0	n/a	n/a	n/a	go_stim
14014.186128699919	120.8138713	n/a	893	71	2750	120.8138713	stim	stop-signal	590	1645553	0.0-25.0-1.0	beast_fmri_test	387	1642978,/,1643658,/,1644338,/,1645019,/	t,t,t,t	<img class = center src='/static/experiments/beast_fmri_test/images/P.png'></img>	89,71	2750.0	test	<img class = center src='/static/experiments/beast_fmri_test/images/redP.png'></img>	go	-1.0	2.0	0.0	go	temp-non-target	P	89,Middle Finger	71,Index Finger	500.0	900.0	2200.0	1900.0	0.0	n/a	n/a	n/a	ITI
14773	500.0	n/a	-1	-1	500	0.0	fixation	poldrack-single-stim	591	1646191	0.0-25.1-0.1	beast_fmri_test	387	1645698,/	t	<div class = centerbox2><div class = fixation>+</div></div>	none	500.0	test	n/a	n/a	n/a	n/a	n/a	n/a	n/a	n/a	n/a	n/a	n/a	n/a	n/a	n/a	n/a	n/a	n/a	n/a	fixation
14254.852040000027	2750.0	n/a	599	71	2750	521.14796	stim	stop-signal	592	1648944	0.0-25.1-1.1	beast_fmri_test	387	1646379,/,1647059,/,1647740,/,1648418,/,1649099,/	t,t,t,t,t	<img class = center src='/static/experiments/beast_fmri_test/images/T.png'></img>	89,71	2750.0	test	<img class = center src='/static/experiments/beast_fmri_test/images/redT.png'></img>	go	-1.0	2.0	1.0	go	temp-non-target	T	89,Middle Finger	71,Index Finger	500.0	900.0	2200.0	1900.0	0.0	n/a	n/a	n/a	go_stim
17004.852040000027	521.14796	n/a	599	71	2750	521.14796	stim	stop-signal	592	1648944	0.0-25.1-1.1	beast_fmri_test	387	1646379,/,1647059,/,1647740,/,1648418,/,1649099,/	t,t,t,t,t	<img class = center src='/static/experiments/beast_fmri_test/images/T.png'></img>	89,71	2750.0	test	<img class = center src='/static/experiments/beast_fmri_test/images/redT.png'></img>	go	-1.0	2.0	1.0	go	temp-non-target	T	89,Middle Finger	71,Index Finger	500.0	900.0	2200.0	1900.0	0.0	n/a	n/a	n/a	ITI
18566	500.0	n/a	-1	-1	500	0.0	fixation	poldrack-single-stim	593	1649984	0.0-25.2-0.2	beast_fmri_test	387	1649778,/	t	<div class = centerbox2><div class = fixation>+</div></div>	none	500.0	test	n/a	n/a	n/a	n/a	n/a	n/a	n/a	n/a	n/a	n/a	n/a	n/a	n/a	n/a	n/a	n/a	n/a	n/a	fixation
17614.444123799913	2750.0	n/a	679	71	2750	953.5558762	stim	stop-signal	594	1652736	0.0-25.2-1.2	beast_fmri_test	387	1650459,/,1651138,/,1651818,/,1652498,/,1653178,/	t,t,t,t,t	<img class = center src='/static/experiments/beast_fmri_test/images/V.png'></img>	89,71	2750.0	test	<img class = center src='/static/experiments/beast_fmri_test/images/redV.png'></img>	go	1850.0	2.0	2.0	go	non-target	V	89,Middle Finger	71,Index Finger	500.0	900.0	2200.0	1850.0	1.0	n/a	900.0	1.0	go_stim
20364.444123799913	953.5558762	n/a	679	71	2750	953.5558762	stim	stop-signal	594	1652736	0.0-25.2-1.2	beast_fmri_test	387	1650459,/,1651138,/,1651818,/,1652498,/,1653178,/	t,t,t,t,t	<img class = center src='/static/experiments/beast_fmri_test/images/V.png'></img>	89,71	2750.0	test	<img class = center src='/static/experiments/beast_fmri_test/images/redV.png'></img>	go	1850.0	2.0	2.0	go	non-target	V	89,Middle Finger	71,Index Finger	500.0	900.0	2200.0	1850.0	1.0	n/a	900.0	1.0	ITI
22793	500.0	n/a	-1	-1	500	0.0	fixation	poldrack-single-stim	595	1654211	0.0-25.3-0.3	beast_fmri_test	387	1653858,/	t	<div class = centerbox2><div class = fixation>+</div></div>	none	500.0	test	n/a	n/a	n/a	n/a	n/a	n/a	n/a	n/a	n/a	n/a	n/a	n/a	n/a	n/a	n/a	n/a	n/a	n/a	fixation
20910.818948999979	2750.0	n/a	998	71	2750	1884.181051	stim	stop-signal	596	1656963	0.0-25.3-1.3	beast_fmri_test	387	1654538,/,1655218,/,1655898,/,1656578,/,1657258,/,1657939,/,1658618,/	t,t,t,t,t,t,t	<img class = center src='/static/experiments/beast_fmri_test/images/B.png'></img>	89,71	2750.0	test	<img class = center src='/static/experiments/beast_fmri_test/images/redB.png'></img>	go	1850.0	2.0	3.0	go	non-target	B	89,Middle Finger	71,Index Finger	500.0	900.0	2200.0	1850.0	1.0	n/a	900.0	1.0	go_stim
23660.818948999979	1884.181051	n/a	998	71	2750	1884.181051	stim	stop-signal	596	1656963	0.0-25.3-1.3	beast_fmri_test	387	1654538,/,1655218,/,1655898,/,1656578,/,1657258,/,1657939,/,1658618,/	t,t,t,t,t,t,t	<img class = center src='/static/experiments/beast_fmri_test/images/B.png'></img>	89,71	2750.0	test	<img class = center src='/static/experiments/beast_fmri_test/images/redB.png'></img>	go	1850.0	2.0	3.0	go	non-target	B	89,Middle Finger	71,Index Finger	500.0	900.0	2200.0	1850.0	1.0	n/a	900.0	1.0	ITI
27948	500.0	n/a	-1	-1	500	0.0	fixation	poldrack-single-stim	597	1659366	0.0-25.4-0.4	beast_fmri_test	387	1659298,/	t	<div class = centerbox2><div class = fixation>+</div></div>	none	500.0	test	n/a	n/a	n/a	n/a	n/a	n/a	n/a	n/a	n/a	n/a	n/a	n/a	n/a	n/a	n/a	n/a	n/a	n/a	fixation
25007.560549000045	2750.0	n/a	920	71	2750	2942.439451	stim	stop-signal	598	1662118	0.0-25.4-1.4	beast_fmri_test	387	1659978,/,1660658,/,1661338,/,1662018,/,1662698,/,1663378,/,1664058,/,1664738,/	t,t,t,t,t,t,t,t	<img class = center src='/static/experiments/beast_fmri_test/images/T.png'></img>	89,71	2750.0	test	<img class = center src='/static/experiments/beast_fmri_test/images/redT.png'></img>	go	1850.0	2.0	4.0	go	non-target	T	89,Middle Finger	71,Index Finger	500.0	900.0	2200.0	1850.0	1.0	n/a	900.0	1.0	go_stim
27757.560549000045	2942.439451	n/a	920	71	2750	2942.439451	stim	stop-signal	598	1662118	0.0-25.4-1.4	beast_fmri_test	387	1659978,/,1660658,/,1661338,/,1662018,/,1662698,/,1663378,/,1664058,/,1664738,/	t,t,t,t,t,t,t,t	<img class = center src='/static/experiments/beast_fmri_test/images/T.png'></img>	89,71	2750.0	test	<img class = center src='/static/experiments/beast_fmri_test/images/redT.png'></img>	go	1850.0	2.0	4.0	go	non-target	T	89,Middle Finger	71,Index Finger	500.0	900.0	2200.0	1850.0	1.0	n/a	900.0	1.0	ITI
34162	500.0	n/a	-1	-1	500	0.0	fixation	poldrack-single-stim	599	1665580	0.0-25.5-0.5	beast_fmri_test	387	1665418,/	t	<div class = centerbox2><div class = fixation>+</div></div>	none	500.0	test	n/a	n/a	n/a	n/a	n/a	n/a	n/a	n/a	n/a	n/a	n/a	n/a	n/a	n/a	n/a	n/a	n/a	n/a	fixation
32972.060215000063	900.0	n/a	747	71	2750	1191.939785	stim	stop-signal	600	1668332	0.0-25.5-1.5	beast_fmri_test	387	1666098,/,1666778,/,1667458,/,1668139,/,1668818,/,1669498,/	t,t,t,t,t,t	<img class = center src='/static/experiments/beast_fmri_test/images/P.png'></img>	89,71	2750.0	test	<img class = center src='/static/experiments/beast_fmri_test/images/redP.png'></img>	stop	1850.0	2.0	5.0	stop	non-target	P	89,Middle Finger	71,Index Finger	500.0	900.0	2200.0	1850.0	0.0	0.0	900.0	n/a	go_stim
34822.060215000063	1850.0	n/a	747	71	2750	1191.939785	stim	stop-signal	600	1668332	0.0-25.5-1.5	beast_fmri_test	387	1666098,/,1666778,/,1667458,/,1668139,/,1668818,/,1669498,/	t,t,t,t,t,t	<img class = center src='/static/experiments/beast_fmri_test/images/P.png'></img>	89,71	2750.0	test	<img class = center src='/static/experiments/beast_fmri_test/images/redP.png'></img>	stop	1850.0	2.0	5.0	stop	non-target	P	89,Middle Finger	71,Index Finger	500.0	900.0	2200.0	1850.0	0.0	0.0	900.0	n/a	stop_stim
35722.060215000063	1191.939785	n/a	747	71	2750	1191.939785	stim	stop-signal	600	1668332	0.0-25.5-1.5	beast_fmri_test	387	1666098,/,1666778,/,1667458,/,1668139,/,1668818,/,1669498,/	t,t,t,t,t,t	<img class = center src='/static/experiments/beast_fmri_test/images/P.png'></img>	89,71	2750.0	test	<img class = center src='/static/experiments/beast_fmri_test/images/redP.png'></img>	stop	1850.0	2.0	5.0	stop	non-target	P	89,Middle Finger	71,Index Finger	500.0	900.0	2200.0	1850.0	0.0	0.0	900.0	n/a	ITI
38624	500.0	n/a	-1	-1	500	0.0	fixation	poldrack-single-stim	601	1670042	0.0-25.6-0.6	beast_fmri_test	387	n/a	n/a	<div class = centerbox2><div class = fixation>+</div></div>	none	500.0	test	n/a	n/a	n/a	n/a	n/a	n/a	n/a	n/a	n/a	n/a	n/a	n/a	n/a	n/a	n/a	n/a	n/a	n/a	fixation
36820.349172000075	2750.0	n/a	665	71	2750	1805.650828	stim	stop-signal	602	1672794	0.0-25.6-1.6	beast_fmri_test	387	1670178,/,1670858,/,1671538,/,1672218,/,1672898,/,1673578,/,1674258,/	t,t,t,t,t,t,t	<img class = center src='/static/experiments/beast_fmri_test/images/V.png'></img>	89,71	2750.0	test	<img class = center src='/static/experiments/beast_fmri_test/images/redV.png'></img>	go	1900.0	2.0	6.0	go	non-target	V	89,Middle Finger	71,Index Finger	500.0	850.0	2200.0	1900.0	1.0	n/a	850.0	1.0	go_stim
39570.349172000075	1805.650828	n/a	665	71	2750	1805.650828	stim	stop-signal	602	1672794	0.0-25.6-1.6	beast_fmri_test	387	1670178,/,1670858,/,1671538,/,1672218,/,1672898,/,1673578,/,1674258,/	t,t,t,t,t,t,t	<img class = center src='/static/experiments/beast_fmri_test/images/V.png'></img>	89,71	2750.0	test	<img class = center src='/static/experiments/beast_fmri_test/images/redV.png'></img>	go	1900.0	2.0	6.0	go	non-target	V	89,Middle Finger	71,Index Finger	500.0	850.0	2200.0	1900.0	1.0	n/a	850.0	1.0	ITI
43705	500.0	n/a	-1	-1	500	0.0	fixation	poldrack-single-stim	603	1675123	0.0-25.7-0.7	beast_fmri_test	387	1674938,/	t	<div class = centerbox2><div class = fixation>+</div></div>	none	500.0	test	n/a	n/a	n/a	n/a	n/a	n/a	n/a	n/a	n/a	n/a	n/a	n/a	n/a	n/a	n/a	n/a	n/a	n/a	fixation
43570.006315199891	2750.0	n/a	657	71	2750	136.9936848	stim	stop-signal	604	1677875	0.0-25.7-1.7	beast_fmri_test	387	1675618,/,1676298,/,1676978,/,1677659,/	t,t,t,t	<img class = center src='/static/experiments/beast_fmri_test/images/B.png'></img>	89,71	2750.0	test	<img class = center src='/static/experiments/beast_fmri_test/images/redB.png'></img>	go	1900.0	2.0	7.0	go	non-target	B	89,Middle Finger	71,Index Finger	500.0	850.0	2200.0	1900.0	1.0	n/a	850.0	1.0	go_stim
46320.006315199891	136.9936848	n/a	657	71	2750	136.9936848	stim	stop-signal	604	1677875	0.0-25.7-1.7	beast_fmri_test	387	1675618,/,1676298,/,1676978,/,1677659,/	t,t,t,t	<img class = center src='/static/experiments/beast_fmri_test/images/B.png'></img>	89,71	2750.0	test	<img class = center src='/static/experiments/beast_fmri_test/images/redB.png'></img>	go	1900.0	2.0	7.0	go	non-target	B	89,Middle Finger	71,Index Finger	500.0	850.0	2200.0	1900.0	1.0	n/a	850.0	1.0	ITI
47114	500.0	n/a	-1	-1	500	0.0	fixation	poldrack-single-stim	605	1678532	0.0-25.8-0.8	beast_fmri_test	387	1678339,/	t	<div class = centerbox2><div class = fixation>+</div></div>	none	500.0	test	n/a	n/a	n/a	n/a	n/a	n/a	n/a	n/a	n/a	n/a	n/a	n/a	n/a	n/a	n/a	n/a	n/a	n/a	fixation
47107.012894928921	500.0	n/a	590	89	2750	8.987105071	stim	stop-signal	606	1681284	0.0-25.8-1.8	beast_fmri_test	387	1679018,/,1679699,/,1680378,/,1681059,/	t,t,t,t	<img class = center src='/static/experiments/beast_fmri_test/images/V.png'></img>	89,71	2750.0	test	<img class = center src='/static/experiments/beast_fmri_test/images/redV.png'></img>	stop	2250.0	2.0	8.0	stop	target	V	89,Middle Finger	71,Index Finger	500.0	850.0	2250.0	1900.0	0.0	0.0	500.0	n/a	go_stim
49357.012894928921	2250.0	n/a	590	89	2750	8.987105071	stim	stop-signal	606	1681284	0.0-25.8-1.8	beast_fmri_test	387	1679018,/,1679699,/,1680378,/,1681059,/	t,t,t,t	<img class = center src='/static/experiments/beast_fmri_test/images/V.png'></img>	89,71	2750.0	test	<img class = center src='/static/experiments/beast_fmri_test/images/redV.png'></img>	stop	2250.0	2.0	8.0	stop	target	V	89,Middle Finger	71,Index Finger	500.0	850.0	2250.0	1900.0	0.0	0.0	500.0	n/a	stop_stim
49857.012894928921	8.987105071	n/a	590	89	2750	8.987105071	stim	stop-signal	606	1681284	0.0-25.8-1.8	beast_fmri_test	387	1679018,/,1679699,/,1680378,/,1681059,/	t,t,t,t	<img class = center src='/static/experiments/beast_fmri_test/images/V.png'></img>	89,71	2750.0	test	<img class = center src='/static/experiments/beast_fmri_test/images/redV.png'></img>	stop	2250.0	2.0	8.0	stop	target	V	89,Middle Finger	71,Index Finger	500.0	850.0	2250.0	1900.0	0.0	0.0	500.0	n/a	ITI
50395	500.0	n/a	-1	-1	500	0.0	fixation	poldrack-single-stim	607	1681813	0.0-25.9-0.9	beast_fmri_test	387	1681739,/	t	<div class = centerbox2><div class = fixation>+</div></div>	none	500.0	test	n/a	n/a	n/a	n/a	n/a	n/a	n/a	n/a	n/a	n/a	n/a	n/a	n/a	n/a	n/a	n/a	n/a	n/a	fixation
50141.600655500079	2750.0	n/a	623	89	2750	255.3993445	stim	stop-signal	608	1684565	0.0-25.9-1.9	beast_fmri_test	387	1682419,/,1683098,/,1683778,/,1684458,/	t,t,t,t	<img class = center src='/static/experiments/beast_fmri_test/images/B.png'></img>	89,71	2750.0	test	<img class = center src='/static/experiments/beast_fmri_test/images/redB.png'></img>	go	2300.0	2.0	9.0	go	target	B	89,Middle Finger	71,Index Finger	450.0	850.0	2300.0	1900.0	1.0	n/a	450.0	1.0	go_stim
52891.600655500079	255.3993445	n/a	623	89	2750	255.3993445	stim	stop-signal	608	1684565	0.0-25.9-1.9	beast_fmri_test	387	1682419,/,1683098,/,1683778,/,1684458,/	t,t,t,t	<img class = center src='/static/experiments/beast_fmri_test/images/B.png'></img>	89,71	2750.0	test	<img class = center src='/static/experiments/beast_fmri_test/images/redB.png'></img>	go	2300.0	2.0	9.0	go	target	B	89,Middle Finger	71,Index Finger	450.0	850.0	2300.0	1900.0	1.0	n/a	450.0	1.0	ITI
53922	500.0	n/a	-1	-1	500	0.0	fixation	poldrack-single-stim	609	1685340	0.0-25.10-0.10	beast_fmri_test	387	1685138,/	t	<div class = centerbox2><div class = fixation>+</div></div>	none	500.0	test	n/a	n/a	n/a	n/a	n/a	n/a	n/a	n/a	n/a	n/a	n/a	n/a	n/a	n/a	n/a	n/a	n/a	n/a	fixation
53051.836231800029	2750.0	n/a	1321	71	2750	871.1637682	stim	stop-signal	610	1688091	0.0-25.10-1.10	beast_fmri_test	387	1685818,/,1686499,/,1687178,/,1687858,/,1688539,/	t,t,t,t,t	<img class = center src='/static/experiments/beast_fmri_test/images/T.png'></img>	89,71	2750.0	test	<img class = center src='/static/experiments/beast_fmri_test/images/redT.png'></img>	go	1900.0	2.0	10.0	go	non-target	T	89,Middle Finger	71,Index Finger	450.0	850.0	2300.0	1900.0	1.0	n/a	850.0	1.0	go_stim
55801.836231800029	871.1637682	n/a	1321	71	2750	871.1637682	stim	stop-signal	610	1688091	0.0-25.10-1.10	beast_fmri_test	387	1685818,/,1686499,/,1687178,/,1687858,/,1688539,/	t,t,t,t,t	<img class = center src='/static/experiments/beast_fmri_test/images/T.png'></img>	89,71	2750.0	test	<img class = center src='/static/experiments/beast_fmri_test/images/redT.png'></img>	go	1900.0	2.0	10.0	go	non-target	T	89,Middle Finger	71,Index Finger	450.0	850.0	2300.0	1900.0	1.0	n/a	850.0	1.0	ITI
58065	500.0	n/a	-1	-1	500	0.0	fixation	poldrack-single-stim	611	1689483	0.0-25.11-0.11	beast_fmri_test	387	1689218,/	t	<div class = centerbox2><div class = fixation>+</div></div>	none	500.0	test	n/a	n/a	n/a	n/a	n/a	n/a	n/a	n/a	n/a	n/a	n/a	n/a	n/a	n/a	n/a	n/a	n/a	n/a	fixation
56983.158766000066	2750.0	n/a	1210	71	2750	1083.841234	stim	stop-signal	612	1692235	0.0-25.11-1.11	beast_fmri_test	387	1689899,/,1690578,/,1691258,/,1691938,/,1692618,/,1693298,/	t,t,t,t,t,t	<img class = center src='/static/experiments/beast_fmri_test/images/D.png'></img>	89,71	2750.0	test	<img class = center src='/static/experiments/beast_fmri_test/images/redD.png'></img>	go	1900.0	2.0	11.0	go	non-target	D	89,Middle Finger	71,Index Finger	450.0	850.0	2300.0	1900.0	1.0	n/a	850.0	1.0	go_stim
59733.158766000066	1083.841234	n/a	1210	71	2750	1083.841234	stim	stop-signal	612	1692235	0.0-25.11-1.11	beast_fmri_test	387	1689899,/,1690578,/,1691258,/,1691938,/,1692618,/,1693298,/	t,t,t,t,t,t	<img class = center src='/static/experiments/beast_fmri_test/images/D.png'></img>	89,71	2750.0	test	<img class = center src='/static/experiments/beast_fmri_test/images/redD.png'></img>	go	1900.0	2.0	11.0	go	non-target	D	89,Middle Finger	71,Index Finger	450.0	850.0	2300.0	1900.0	1.0	n/a	850.0	1.0	ITI
62424	500.0	n/a	-1	-1	500	0.0	fixation	poldrack-single-stim	613	1693842	0.0-25.12-0.12	beast_fmri_test	387	n/a	n/a	<div class = centerbox2><div class = fixation>+</div></div>	none	500.0	test	n/a	n/a	n/a	n/a	n/a	n/a	n/a	n/a	n/a	n/a	n/a	n/a	n/a	n/a	n/a	n/a	n/a	n/a	fixation
61861.552996000042	2750.0	n/a	1828	71	2750	564.447004	stim	stop-signal	614	1696594	0.0-25.12-1.12	beast_fmri_test	387	1693978,/,1694658,/,1695338,/,1696018,/,1696698,/	t,t,t,t,t	<img class = center src='/static/experiments/beast_fmri_test/images/B.png'></img>	89,71	2750.0	test	<img class = center src='/static/experiments/beast_fmri_test/images/redB.png'></img>	go	1900.0	2.0	12.0	go	non-target	B	89,Middle Finger	71,Index Finger	450.0	850.0	2300.0	1900.0	1.0	n/a	850.0	1.0	go_stim
64611.552996000042	564.447004	n/a	1828	71	2750	564.447004	stim	stop-signal	614	1696594	0.0-25.12-1.12	beast_fmri_test	387	1693978,/,1694658,/,1695338,/,1696018,/,1696698,/	t,t,t,t,t	<img class = center src='/static/experiments/beast_fmri_test/images/B.png'></img>	89,71	2750.0	test	<img class = center src='/static/experiments/beast_fmri_test/images/redB.png'></img>	go	1900.0	2.0	12.0	go	non-target	B	89,Middle Finger	71,Index Finger	450.0	850.0	2300.0	1900.0	1.0	n/a	850.0	1.0	ITI
66262	500.0	n/a	-1	-1	500	0.0	fixation	poldrack-single-stim	615	1697680	0.0-25.13-0.13	beast_fmri_test	387	1697378,/	t	<div class = centerbox2><div class = fixation>+</div></div>	none	500.0	test	n/a	n/a	n/a	n/a	n/a	n/a	n/a	n/a	n/a	n/a	n/a	n/a	n/a	n/a	n/a	n/a	n/a	n/a	fixation
65449.288943399908	850.0	n/a	1603	71	2750	814.7110566	stim	stop-signal	616	1700432	0.0-25.13-1.13	beast_fmri_test	387	1698058,/,1698739,/,1699418,/,1700098,/,1700778,/	t,t,t,t,t	<img class = center src='/static/experiments/beast_fmri_test/images/B.png'></img>	89,71	2750.0	test	<img class = center src='/static/experiments/beast_fmri_test/images/redB.png'></img>	stop	1900.0	2.0	13.0	stop	non-target	B	89,Middle Finger	71,Index Finger	450.0	850.0	2300.0	1900.0	0.0	0.0	850.0	n/a	go_stim
67349.288943399908	1900.0	n/a	1603	71	2750	814.7110566	stim	stop-signal	616	1700432	0.0-25.13-1.13	beast_fmri_test	387	1698058,/,1698739,/,1699418,/,1700098,/,1700778,/	t,t,t,t,t	<img class = center src='/static/experiments/beast_fmri_test/images/B.png'></img>	89,71	2750.0	test	<img class = center src='/static/experiments/beast_fmri_test/images/redB.png'></img>	stop	1900.0	2.0	13.0	stop	non-target	B	89,Middle Finger	71,Index Finger	450.0	850.0	2300.0	1900.0	0.0	0.0	850.0	n/a	stop_stim
68199.288943399908	814.7110566	n/a	1603	71	2750	814.7110566	stim	stop-signal	616	1700432	0.0-25.13-1.13	beast_fmri_test	387	1698058,/,1698739,/,1699418,/,1700098,/,1700778,/	t,t,t,t,t	<img class = center src='/static/experiments/beast_fmri_test/images/B.png'></img>	89,71	2750.0	test	<img class = center src='/static/experiments/beast_fmri_test/images/redB.png'></img>	stop	1900.0	2.0	13.0	stop	non-target	B	89,Middle Finger	71,Index Finger	450.0	850.0	2300.0	1900.0	0.0	0.0	850.0	n/a	ITI
70351	500.0	n/a	-1	-1	500	0.0	fixation	poldrack-single-stim	617	1701769	0.0-25.14-0.14	beast_fmri_test	387	1701458,/	t	<div class = centerbox2><div class = fixation>+</div></div>	none	500.0	test	n/a	n/a	n/a	n/a	n/a	n/a	n/a	n/a	n/a	n/a	n/a	n/a	n/a	n/a	n/a	n/a	n/a	n/a	fixation
67795.75964100007	450.0	n/a	-1	-1	2750	2557.240359	stim	stop-signal	618	1704521	0.0-25.14-1.14	beast_fmri_test	387	1702138,/,1702818,/,1703498,/,1704178,/,1704858,/,1705537,/,1706218,/,1706898,/	t,t,t,t,t,t,t,t	<img class = center src='/static/experiments/beast_fmri_test/images/B.png'></img>	89,71	2750.0	test	<img class = center src='/static/experiments/beast_fmri_test/images/redB.png'></img>	stop	2300.0	2.0	14.0	stop	target	B	89,Middle Finger	71,Index Finger	450.0	800.0	2300.0	1900.0	0.0	1.0	450.0	n/a	go_stim
70095.75964100007	2300.0	n/a	-1	-1	2750	2557.240359	stim	stop-signal	618	1704521	0.0-25.14-1.14	beast_fmri_test	387	1702138,/,1702818,/,1703498,/,1704178,/,1704858,/,1705537,/,1706218,/,1706898,/	t,t,t,t,t,t,t,t	<img class = center src='/static/experiments/beast_fmri_test/images/B.png'></img>	89,71	2750.0	test	<img class = center src='/static/experiments/beast_fmri_test/images/redB.png'></img>	stop	2300.0	2.0	14.0	stop	target	B	89,Middle Finger	71,Index Finger	450.0	800.0	2300.0	1900.0	0.0	1.0	450.0	n/a	stop_stim
70545.75964100007	2557.240359	n/a	-1	-1	2750	2557.240359	stim	stop-signal	618	1704521	0.0-25.14-1.14	beast_fmri_test	387	1702138,/,1702818,/,1703498,/,1704178,/,1704858,/,1705537,/,1706218,/,1706898,/	t,t,t,t,t,t,t,t	<img class = center src='/static/experiments/beast_fmri_test/images/B.png'></img>	89,71	2750.0	test	<img class = center src='/static/experiments/beast_fmri_test/images/redB.png'></img>	stop	2300.0	2.0	14.0	stop	target	B	89,Middle Finger	71,Index Finger	450.0	800.0	2300.0	1900.0	0.0	1.0	450.0	n/a	ITI
76182	500.0	n/a	-1	-1	500	0.0	fixation	poldrack-single-stim	619	1707600	0.0-25.15-0.15	beast_fmri_test	387	1707578,/	t	<div class = centerbox2><div class = fixation>+</div></div>	none	500.0	test	n/a	n/a	n/a	n/a	n/a	n/a	n/a	n/a	n/a	n/a	n/a	n/a	n/a	n/a	n/a	n/a	n/a	n/a	fixation
75330.516119299922	2750.0	n/a	905	71	2750	853.4838807	stim	stop-signal	620	1710352	0.0-25.15-1.15	beast_fmri_test	387	1708257,/,1708939,/,1709617,/,1710299,/,1710978,/	t,t,t,t,t	<img class = center src='/static/experiments/beast_fmri_test/images/V.png'></img>	89,71	2750.0	test	<img class = center src='/static/experiments/beast_fmri_test/images/redV.png'></img>	go	1950.0	2.0	15.0	go	non-target	V	89,Middle Finger	71,Index Finger	500.0	800.0	2300.0	1950.0	1.0	n/a	800.0	1.0	go_stim
78080.516119299922	853.4838807	n/a	905	71	2750	853.4838807	stim	stop-signal	620	1710352	0.0-25.15-1.15	beast_fmri_test	387	1708257,/,1708939,/,1709617,/,1710299,/,1710978,/	t,t,t,t,t	<img class = center src='/static/experiments/beast_fmri_test/images/V.png'></img>	89,71	2750.0	test	<img class = center src='/static/experiments/beast_fmri_test/images/redV.png'></img>	go	1950.0	2.0	15.0	go	non-target	V	89,Middle Finger	71,Index Finger	500.0	800.0	2300.0	1950.0	1.0	n/a	800.0	1.0	ITI
80306	500.0	n/a	-1	-1	500	0.0	fixation	poldrack-single-stim	621	1711724	0.0-25.16-0.16	beast_fmri_test	387	1711659,/	t	<div class = centerbox2><div class = fixation>+</div></div>	none	500.0	test	n/a	n/a	n/a	n/a	n/a	n/a	n/a	n/a	n/a	n/a	n/a	n/a	n/a	n/a	n/a	n/a	n/a	n/a	fixation
80249.337753599975	800.0	n/a	1030	71	2750	58.6622464	stim	stop-signal	622	1714476	0.0-25.16-1.16	beast_fmri_test	387	1712338,/,1713019,/,1713698,/,1714379,/	t,t,t,t	<img class = center src='/static/experiments/beast_fmri_test/images/T.png'></img>	89,71	2750.0	test	<img class = center src='/static/experiments/beast_fmri_test/images/redT.png'></img>	stop	1950.0	2.0	16.0	stop	non-target	T	89,Middle Finger	71,Index Finger	500.0	800.0	2300.0	1950.0	0.0	0.0	800.0	n/a	go_stim
82199.337753599975	1950.0	n/a	1030	71	2750	58.6622464	stim	stop-signal	622	1714476	0.0-25.16-1.16	beast_fmri_test	387	1712338,/,1713019,/,1713698,/,1714379,/	t,t,t,t	<img class = center src='/static/experiments/beast_fmri_test/images/T.png'></img>	89,71	2750.0	test	<img class = center src='/static/experiments/beast_fmri_test/images/redT.png'></img>	stop	1950.0	2.0	16.0	stop	non-target	T	89,Middle Finger	71,Index Finger	500.0	800.0	2300.0	1950.0	0.0	0.0	800.0	n/a	stop_stim
82999.337753599975	58.6622464	n/a	1030	71	2750	58.6622464	stim	stop-signal	622	1714476	0.0-25.16-1.16	beast_fmri_test	387	1712338,/,1713019,/,1713698,/,1714379,/	t,t,t,t	<img class = center src='/static/experiments/beast_fmri_test/images/T.png'></img>	89,71	2750.0	test	<img class = center src='/static/experiments/beast_fmri_test/images/redT.png'></img>	stop	1950.0	2.0	16.0	stop	non-target	T	89,Middle Finger	71,Index Finger	500.0	800.0	2300.0	1950.0	0.0	0.0	800.0	n/a	ITI
83637	500.0	n/a	-1	-1	500	0.0	fixation	poldrack-single-stim	623	1715055	0.0-25.17-0.17	beast_fmri_test	387	n/a	n/a	<div class = centerbox2><div class = fixation>+</div></div>	none	500.0	test	n/a	n/a	n/a	n/a	n/a	n/a	n/a	n/a	n/a	n/a	n/a	n/a	n/a	n/a	n/a	n/a	n/a	n/a	fixation
83484.539445899893	2750.0	n/a	1089	71	2750	154.4605541	stim	stop-signal	624	1717807	0.0-25.17-1.17	beast_fmri_test	387	1715058,/,1715739,/,1716418,/,1717098,/,1717778,/	t,t,t,t,t	<img class = center src='/static/experiments/beast_fmri_test/images/T.png'></img>	89,71	2750.0	test	<img class = center src='/static/experiments/beast_fmri_test/images/redT.png'></img>	go	2000.0	2.0	17.0	go	non-target	T	89,Middle Finger	71,Index Finger	500.0	750.0	2300.0	2000.0	1.0	n/a	750.0	1.0	go_stim
86234.539445899893	154.4605541	n/a	1089	71	2750	154.4605541	stim	stop-signal	624	1717807	0.0-25.17-1.17	beast_fmri_test	387	1715058,/,1715739,/,1716418,/,1717098,/,1717778,/	t,t,t,t,t	<img class = center src='/static/experiments/beast_fmri_test/images/T.png'></img>	89,71	2750.0	test	<img class = center src='/static/experiments/beast_fmri_test/images/redT.png'></img>	go	2000.0	2.0	17.0	go	non-target	T	89,Middle Finger	71,Index Finger	500.0	750.0	2300.0	2000.0	1.0	n/a	750.0	1.0	ITI
87063	500.0	n/a	-1	-1	500	0.0	fixation	poldrack-single-stim	625	1718481	0.0-25.18-0.18	beast_fmri_test	387	1718459,/	t	<div class = centerbox2><div class = fixation>+</div></div>	none	500.0	test	n/a	n/a	n/a	n/a	n/a	n/a	n/a	n/a	n/a	n/a	n/a	n/a	n/a	n/a	n/a	n/a	n/a	n/a	fixation
86561.05041850009	750.0	n/a	-1	-1	2750	502.9495815	stim	stop-signal	626	1721232	0.0-25.18-1.18	beast_fmri_test	387	1719139,/,1719819,/,1720498,/,1721178,/	t,t,t,t	<img class = center src='/static/experiments/beast_fmri_test/images/V.png'></img>	89,71	2750.0	test	<img class = center src='/static/experiments/beast_fmri_test/images/redV.png'></img>	stop	2000.0	2.0	18.0	stop	non-target	V	89,Middle Finger	71,Index Finger	500.0	750.0	2300.0	2000.0	0.0	1.0	750.0	n/a	go_stim
88561.05041850009	2000.0	n/a	-1	-1	2750	502.9495815	stim	stop-signal	626	1721232	0.0-25.18-1.18	beast_fmri_test	387	1719139,/,1719819,/,1720498,/,1721178,/	t,t,t,t	<img class = center src='/static/experiments/beast_fmri_test/images/V.png'></img>	89,71	2750.0	test	<img class = center src='/static/experiments/beast_fmri_test/images/redV.png'></img>	stop	2000.0	2.0	18.0	stop	non-target	V	89,Middle Finger	71,Index Finger	500.0	750.0	2300.0	2000.0	0.0	1.0	750.0	n/a	stop_stim
89311.05041850009	502.9495815	n/a	-1	-1	2750	502.9495815	stim	stop-signal	626	1721232	0.0-25.18-1.18	beast_fmri_test	387	1719139,/,1719819,/,1720498,/,1721178,/	t,t,t,t	<img class = center src='/static/experiments/beast_fmri_test/images/V.png'></img>	89,71	2750.0	test	<img class = center src='/static/experiments/beast_fmri_test/images/redV.png'></img>	stop	2000.0	2.0	18.0	stop	non-target	V	89,Middle Finger	71,Index Finger	500.0	750.0	2300.0	2000.0	0.0	1.0	750.0	n/a	ITI
90839	500.0	n/a	-1	-1	500	0.0	fixation	poldrack-single-stim	627	1722257	0.0-25.19-0.19	beast_fmri_test	387	1721858,/	t	<div class = centerbox2><div class = fixation>+</div></div>	none	500.0	test	n/a	n/a	n/a	n/a	n/a	n/a	n/a	n/a	n/a	n/a	n/a	n/a	n/a	n/a	n/a	n/a	n/a	n/a	fixation
89309.132904999889	500.0	n/a	527	89	2750	1532.867095	stim	stop-signal	628	1725010	0.0-25.19-1.19	beast_fmri_test	387	1722538,/,1723218,/,1723898,/,1724578,/,1725258,/,1725938,/	t,t,t,t,t,t	<img class = center src='/static/experiments/beast_fmri_test/images/T.png'></img>	89,71	2750.0	test	<img class = center src='/static/experiments/beast_fmri_test/images/redT.png'></img>	stop	2250.0	2.0	19.0	stop	target	T	89,Middle Finger	71,Index Finger	500.0	800.0	2250.0	2000.0	0.0	0.0	500.0	n/a	go_stim
91559.132904999889	2250.0	n/a	527	89	2750	1532.867095	stim	stop-signal	628	1725010	0.0-25.19-1.19	beast_fmri_test	387	1722538,/,1723218,/,1723898,/,1724578,/,1725258,/,1725938,/	t,t,t,t,t,t	<img class = center src='/static/experiments/beast_fmri_test/images/T.png'></img>	89,71	2750.0	test	<img class = center src='/static/experiments/beast_fmri_test/images/redT.png'></img>	stop	2250.0	2.0	19.0	stop	target	T	89,Middle Finger	71,Index Finger	500.0	800.0	2250.0	2000.0	0.0	0.0	500.0	n/a	stop_stim
92059.132904999889	1532.867095	n/a	527	89	2750	1532.867095	stim	stop-signal	628	1725010	0.0-25.19-1.19	beast_fmri_test	387	1722538,/,1723218,/,1723898,/,1724578,/,1725258,/,1725938,/	t,t,t,t,t,t	<img class = center src='/static/experiments/beast_fmri_test/images/T.png'></img>	89,71	2750.0	test	<img class = center src='/static/experiments/beast_fmri_test/images/redT.png'></img>	stop	2250.0	2.0	19.0	stop	target	T	89,Middle Finger	71,Index Finger	500.0	800.0	2250.0	2000.0	0.0	0.0	500.0	n/a	ITI
95648	500.0	n/a	-1	-1	500	0.0	fixation	poldrack-single-stim	629	1727066	0.0-25.20-0.20	beast_fmri_test	387	1726618,/	t	<div class = centerbox2><div class = fixation>+</div></div>	none	500.0	test	n/a	n/a	n/a	n/a	n/a	n/a	n/a	n/a	n/a	n/a	n/a	n/a	n/a	n/a	n/a	n/a	n/a	n/a	fixation
95334.374602699885	450.0	n/a	-1	-1	2750	315.6253973	stim	stop-signal	630	1729818	0.0-25.20-1.20	beast_fmri_test	387	1727298,/,1727978,/,1728658,/,1729339,/,1730018,/	t,t,t,t,t	<img class = center src='/static/experiments/beast_fmri_test/images/V.png'></img>	89,71	2750.0	test	<img class = center src='/static/experiments/beast_fmri_test/images/redV.png'></img>	stop	2300.0	2.0	20.0	stop	target	V	89,Middle Finger	71,Index Finger	450.0	800.0	2300.0	2000.0	0.0	1.0	450.0	n/a	go_stim
97634.374602699885	2300.0	n/a	-1	-1	2750	315.6253973	stim	stop-signal	630	1729818	0.0-25.20-1.20	beast_fmri_test	387	1727298,/,1727978,/,1728658,/,1729339,/,1730018,/	t,t,t,t,t	<img class = center src='/static/experiments/beast_fmri_test/images/V.png'></img>	89,71	2750.0	test	<img class = center src='/static/experiments/beast_fmri_test/images/redV.png'></img>	stop	2300.0	2.0	20.0	stop	target	V	89,Middle Finger	71,Index Finger	450.0	800.0	2300.0	2000.0	0.0	1.0	450.0	n/a	stop_stim
98084.374602699885	315.6253973	n/a	-1	-1	2750	315.6253973	stim	stop-signal	630	1729818	0.0-25.20-1.20	beast_fmri_test	387	1727298,/,1727978,/,1728658,/,1729339,/,1730018,/	t,t,t,t,t	<img class = center src='/static/experiments/beast_fmri_test/images/V.png'></img>	89,71	2750.0	test	<img class = center src='/static/experiments/beast_fmri_test/images/redV.png'></img>	stop	2300.0	2.0	20.0	stop	target	V	89,Middle Finger	71,Index Finger	450.0	800.0	2300.0	2000.0	0.0	1.0	450.0	n/a	ITI
99239	500.0	n/a	-1	-1	500	0.0	fixation	poldrack-single-stim	631	1730657	0.0-25.21-0.21	beast_fmri_test	387	n/a	n/a	<div class = centerbox2><div class = fixation>+</div></div>	none	500.0	test	n/a	n/a	n/a	n/a	n/a	n/a	n/a	n/a	n/a	n/a	n/a	n/a	n/a	n/a	n/a	n/a	n/a	n/a	fixation
99191.084918899927	2750.0	n/a	807	71	2750	49.9150811	stim	stop-signal	632	1733409	0.0-25.21-1.21	beast_fmri_test	387	1730698,/,1731378,/,1732058,/,1732738,/,1733417,/	t,t,t,t,t	<img class = center src='/static/experiments/beast_fmri_test/images/B.png'></img>	89,71	2750.0	test	<img class = center src='/static/experiments/beast_fmri_test/images/redB.png'></img>	go	1950.0	2.0	21.0	go	non-target	B	89,Middle Finger	71,Index Finger	500.0	800.0	2300.0	1950.0	1.0	n/a	800.0	1.0	go_stim
101941.08491889993	49.9150811	n/a	807	71	2750	49.9150811	stim	stop-signal	632	1733409	0.0-25.21-1.21	beast_fmri_test	387	1730698,/,1731378,/,1732058,/,1732738,/,1733417,/	t,t,t,t,t	<img class = center src='/static/experiments/beast_fmri_test/images/B.png'></img>	89,71	2750.0	test	<img class = center src='/static/experiments/beast_fmri_test/images/redB.png'></img>	go	1950.0	2.0	21.0	go	non-target	B	89,Middle Finger	71,Index Finger	500.0	800.0	2300.0	1950.0	1.0	n/a	800.0	1.0	ITI
102565	500.0	n/a	-1	-1	500	0.0	fixation	poldrack-single-stim	633	1733983	0.0-25.22-0.22	beast_fmri_test	387	n/a	n/a	<div class = centerbox2><div class = fixation>+</div></div>	none	500.0	test	n/a	n/a	n/a	n/a	n/a	n/a	n/a	n/a	n/a	n/a	n/a	n/a	n/a	n/a	n/a	n/a	n/a	n/a	fixation
99402.119537000079	2750.0	n/a	770	89	2750	3165.880463	stim	stop-signal	634	1736736	0.0-25.22-1.22	beast_fmri_test	387	1734098,/,1734778,/,1735458,/,1736138,/,1736818,/,1737498,/,1738178,/,1738858,/,1739538,/	t,t,t,t,t,t,t,t,t	<img class = center src='/static/experiments/beast_fmri_test/images/V.png'></img>	89,71	2750.0	test	<img class = center src='/static/experiments/beast_fmri_test/images/redV.png'></img>	go	2250.0	2.0	22.0	go	target	V	89,Middle Finger	71,Index Finger	500.0	800.0	2250.0	1950.0	1.0	n/a	500.0	1.0	go_stim
102152.11953700008	3165.880463	n/a	770	89	2750	3165.880463	stim	stop-signal	634	1736736	0.0-25.22-1.22	beast_fmri_test	387	1734098,/,1734778,/,1735458,/,1736138,/,1736818,/,1737498,/,1738178,/,1738858,/,1739538,/	t,t,t,t,t,t,t,t,t	<img class = center src='/static/experiments/beast_fmri_test/images/V.png'></img>	89,71	2750.0	test	<img class = center src='/static/experiments/beast_fmri_test/images/redV.png'></img>	go	2250.0	2.0	22.0	go	target	V	89,Middle Finger	71,Index Finger	500.0	800.0	2250.0	1950.0	1.0	n/a	500.0	1.0	ITI
109003	500.0	n/a	-1	-1	500	0.0	fixation	poldrack-single-stim	635	1740421	0.0-25.23-0.23	beast_fmri_test	387	1740218,/	t	<div class = centerbox2><div class = fixation>+</div></div>	none	500.0	test	n/a	n/a	n/a	n/a	n/a	n/a	n/a	n/a	n/a	n/a	n/a	n/a	n/a	n/a	n/a	n/a	n/a	n/a	fixation
108176.41850459995	800.0	n/a	760	71	2750	828.5814954	stim	stop-signal	636	1743173	0.0-25.23-1.23	beast_fmri_test	387	1740898,/,1741578,/,1742257,/,1742938,/,1743618,/	t,t,t,t,t	<img class = center src='/static/experiments/beast_fmri_test/images/P.png'></img>	89,71	2750.0	test	<img class = center src='/static/experiments/beast_fmri_test/images/redP.png'></img>	stop	1950.0	2.0	23.0	stop	non-target	P	89,Middle Finger	71,Index Finger	500.0	800.0	2250.0	1950.0	0.0	0.0	800.0	n/a	go_stim
110126.41850459995	1950.0	n/a	760	71	2750	828.5814954	stim	stop-signal	636	1743173	0.0-25.23-1.23	beast_fmri_test	387	1740898,/,1741578,/,1742257,/,1742938,/,1743618,/	t,t,t,t,t	<img class = center src='/static/experiments/beast_fmri_test/images/P.png'></img>	89,71	2750.0	test	<img class = center src='/static/experiments/beast_fmri_test/images/redP.png'></img>	stop	1950.0	2.0	23.0	stop	non-target	P	89,Middle Finger	71,Index Finger	500.0	800.0	2250.0	1950.0	0.0	0.0	800.0	n/a	stop_stim
110926.41850459995	828.5814954	n/a	760	71	2750	828.5814954	stim	stop-signal	636	1743173	0.0-25.23-1.23	beast_fmri_test	387	1740898,/,1741578,/,1742257,/,1742938,/,1743618,/	t,t,t,t,t	<img class = center src='/static/experiments/beast_fmri_test/images/P.png'></img>	89,71	2750.0	test	<img class = center src='/static/experiments/beast_fmri_test/images/redP.png'></img>	stop	1950.0	2.0	23.0	stop	non-target	P	89,Middle Finger	71,Index Finger	500.0	800.0	2250.0	1950.0	0.0	0.0	800.0	n/a	ITI
113102	500.0	n/a	-1	-1	500	0.0	fixation	poldrack-single-stim	637	1744520	0.0-25.24-0.24	beast_fmri_test	387	1744299,/	t	<div class = centerbox2><div class = fixation>+</div></div>	none	500.0	test	n/a	n/a	n/a	n/a	n/a	n/a	n/a	n/a	n/a	n/a	n/a	n/a	n/a	n/a	n/a	n/a	n/a	n/a	fixation
112704.63194940006	2750.0	n/a	672	89	2750	399.3680506	stim	stop-signal	638	1747272	0.0-25.24-1.24	beast_fmri_test	387	1744979,/,1745659,/,1746339,/,1747019,/	t,t,t,t	<img class = center src='/static/experiments/beast_fmri_test/images/V.png'></img>	89,71	2750.0	test	<img class = center src='/static/experiments/beast_fmri_test/images/redV.png'></img>	go	2250.0	2.0	24.0	go	target	V	89,Middle Finger	71,Index Finger	500.0	750.0	2250.0	1950.0	1.0	n/a	500.0	1.0	go_stim
115454.63194940006	399.3680506	n/a	672	89	2750	399.3680506	stim	stop-signal	638	1747272	0.0-25.24-1.24	beast_fmri_test	387	1744979,/,1745659,/,1746339,/,1747019,/	t,t,t,t	<img class = center src='/static/experiments/beast_fmri_test/images/V.png'></img>	89,71	2750.0	test	<img class = center src='/static/experiments/beast_fmri_test/images/redV.png'></img>	go	2250.0	2.0	24.0	go	target	V	89,Middle Finger	71,Index Finger	500.0	750.0	2250.0	1950.0	1.0	n/a	500.0	1.0	ITI
116773	500.0	n/a	-1	-1	500	0.0	fixation	poldrack-single-stim	639	1748191	0.0-25.25-0.25	beast_fmri_test	387	1747698,/	t	<div class = centerbox2><div class = fixation>+</div></div>	none	500.0	test	n/a	n/a	n/a	n/a	n/a	n/a	n/a	n/a	n/a	n/a	n/a	n/a	n/a	n/a	n/a	n/a	n/a	n/a	fixation
116526.96173630003	2750.0	n/a	1893	89	2750	248.0382637	stim	stop-signal	640	1750943	0.0-25.25-1.25	beast_fmri_test	387	1748379,/,1749059,/,1749739,/,1750418,/,1751098,/	t,t,t,t,t	<img class = center src='/static/experiments/beast_fmri_test/images/P.png'></img>	89,71	2750.0	test	<img class = center src='/static/experiments/beast_fmri_test/images/redP.png'></img>	go	2250.0	2.0	25.0	go	target	P	89,Middle Finger	71,Index Finger	500.0	750.0	2250.0	1950.0	1.0	n/a	500.0	1.0	go_stim
119276.96173630003	248.0382637	n/a	1893	89	2750	248.0382637	stim	stop-signal	640	1750943	0.0-25.25-1.25	beast_fmri_test	387	1748379,/,1749059,/,1749739,/,1750418,/,1751098,/	t,t,t,t,t	<img class = center src='/static/experiments/beast_fmri_test/images/P.png'></img>	89,71	2750.0	test	<img class = center src='/static/experiments/beast_fmri_test/images/redP.png'></img>	go	2250.0	2.0	25.0	go	target	P	89,Middle Finger	71,Index Finger	500.0	750.0	2250.0	1950.0	1.0	n/a	500.0	1.0	ITI
120295	500.0	n/a	-1	-1	500	0.0	fixation	poldrack-single-stim	641	1751713	0.0-25.26-0.26	beast_fmri_test	387	n/a	n/a	<div class = centerbox2><div class = fixation>+</div></div>	none	500.0	test	n/a	n/a	n/a	n/a	n/a	n/a	n/a	n/a	n/a	n/a	n/a	n/a	n/a	n/a	n/a	n/a	n/a	n/a	fixation
120180.8727084999	2750.0	n/a	1310	89	2750	116.1272915	stim	stop-signal	642	1754465	0.0-25.26-1.26	beast_fmri_test	387	1751779,/,1752459,/,1753138,/,1753818,/,1754498,/	t,t,t,t,t	<img class = center src='/static/experiments/beast_fmri_test/images/V.png'></img>	89,71	2750.0	test	<img class = center src='/static/experiments/beast_fmri_test/images/redV.png'></img>	go	2250.0	2.0	26.0	go	target	V	89,Middle Finger	71,Index Finger	500.0	750.0	2250.0	1950.0	1.0	n/a	500.0	1.0	go_stim
122930.8727084999	116.1272915	n/a	1310	89	2750	116.1272915	stim	stop-signal	642	1754465	0.0-25.26-1.26	beast_fmri_test	387	1751779,/,1752459,/,1753138,/,1753818,/,1754498,/	t,t,t,t,t	<img class = center src='/static/experiments/beast_fmri_test/images/V.png'></img>	89,71	2750.0	test	<img class = center src='/static/experiments/beast_fmri_test/images/redV.png'></img>	go	2250.0	2.0	26.0	go	target	V	89,Middle Finger	71,Index Finger	500.0	750.0	2250.0	1950.0	1.0	n/a	500.0	1.0	ITI
123685	500.0	n/a	-1	-1	500	0.0	fixation	poldrack-single-stim	643	1755103	0.0-25.27-0.27	beast_fmri_test	387	n/a	n/a	<div class = centerbox2><div class = fixation>+</div></div>	none	500.0	test	n/a	n/a	n/a	n/a	n/a	n/a	n/a	n/a	n/a	n/a	n/a	n/a	n/a	n/a	n/a	n/a	n/a	n/a	fixation
122086.66456399998	750.0	n/a	901	71	2750	1600.335436	stim	stop-signal	644	1757855	0.0-25.27-1.27	beast_fmri_test	387	1755178,/,1755858,/,1756538,/,1757218,/,1757898,/,1758578,/,1759258,/	t,t,t,t,t,t,t	<img class = center src='/static/experiments/beast_fmri_test/images/T.png'></img>	89,71	2750.0	test	<img class = center src='/static/experiments/beast_fmri_test/images/redT.png'></img>	stop	2000.0	2.0	27.0	stop	non-target	T	89,Middle Finger	71,Index Finger	500.0	750.0	2250.0	2000.0	0.0	0.0	750.0	n/a	go_stim
124086.66456399998	2000.0	n/a	901	71	2750	1600.335436	stim	stop-signal	644	1757855	0.0-25.27-1.27	beast_fmri_test	387	1755178,/,1755858,/,1756538,/,1757218,/,1757898,/,1758578,/,1759258,/	t,t,t,t,t,t,t	<img class = center src='/static/experiments/beast_fmri_test/images/T.png'></img>	89,71	2750.0	test	<img class = center src='/static/experiments/beast_fmri_test/images/redT.png'></img>	stop	2000.0	2.0	27.0	stop	non-target	T	89,Middle Finger	71,Index Finger	500.0	750.0	2250.0	2000.0	0.0	0.0	750.0	n/a	stop_stim
124836.66456399998	1600.335436	n/a	901	71	2750	1600.335436	stim	stop-signal	644	1757855	0.0-25.27-1.27	beast_fmri_test	387	1755178,/,1755858,/,1756538,/,1757218,/,1757898,/,1758578,/,1759258,/	t,t,t,t,t,t,t	<img class = center src='/static/experiments/beast_fmri_test/images/T.png'></img>	89,71	2750.0	test	<img class = center src='/static/experiments/beast_fmri_test/images/redT.png'></img>	stop	2000.0	2.0	27.0	stop	non-target	T	89,Middle Finger	71,Index Finger	500.0	750.0	2250.0	2000.0	0.0	0.0	750.0	n/a	ITI
128560	500.0	n/a	-1	-1	500	0.0	fixation	poldrack-single-stim	645	1759978	0.0-25.28-0.28	beast_fmri_test	387	1759939,/	t	<div class = centerbox2><div class = fixation>+</div></div>	none	500.0	test	n/a	n/a	n/a	n/a	n/a	n/a	n/a	n/a	n/a	n/a	n/a	n/a	n/a	n/a	n/a	n/a	n/a	n/a	fixation
127966.37944149994	2750.0	n/a	694	71	2750	595.6205585	stim	stop-signal	646	1762730	0.0-25.28-1.28	beast_fmri_test	387	1760618,/,1761298,/,1761978,/,1762658,/	t,t,t,t	<img class = center src='/static/experiments/beast_fmri_test/images/D.png'></img>	89,71	2750.0	test	<img class = center src='/static/experiments/beast_fmri_test/images/redD.png'></img>	go	2050.0	2.0	28.0	go	non-target	D	89,Middle Finger	71,Index Finger	500.0	700.0	2250.0	2050.0	1.0	n/a	700.0	1.0	go_stim
130716.37944149994	595.6205585	n/a	694	71	2750	595.6205585	stim	stop-signal	646	1762730	0.0-25.28-1.28	beast_fmri_test	387	1760618,/,1761298,/,1761978,/,1762658,/	t,t,t,t	<img class = center src='/static/experiments/beast_fmri_test/images/D.png'></img>	89,71	2750.0	test	<img class = center src='/static/experiments/beast_fmri_test/images/redD.png'></img>	go	2050.0	2.0	28.0	go	non-target	D	89,Middle Finger	71,Index Finger	500.0	700.0	2250.0	2050.0	1.0	n/a	700.0	1.0	ITI
132429	500.0	n/a	-1	-1	500	0.0	fixation	poldrack-single-stim	647	1763847	0.0-25.29-0.29	beast_fmri_test	387	1763345,/	t	<div class = centerbox2><div class = fixation>+</div></div>	none	500.0	test	n/a	n/a	n/a	n/a	n/a	n/a	n/a	n/a	n/a	n/a	n/a	n/a	n/a	n/a	n/a	n/a	n/a	n/a	fixation
131819.4388170999	2750.0	n/a	691	89	2750	611.5611829	stim	stop-signal	648	1766599	0.0-25.29-1.29	beast_fmri_test	387	1764018,/,1764698,/,1765378,/,1766058,/,1766738,/	t,t,t,t,t	<img class = center src='/static/experiments/beast_fmri_test/images/T.png'></img>	89,71	2750.0	test	<img class = center src='/static/experiments/beast_fmri_test/images/redT.png'></img>	go	2250.0	2.0	29.0	go	target	T	89,Middle Finger	71,Index Finger	500.0	700.0	2250.0	2050.0	1.0	n/a	500.0	1.0	go_stim
134569.4388170999	611.5611829	n/a	691	89	2750	611.5611829	stim	stop-signal	648	1766599	0.0-25.29-1.29	beast_fmri_test	387	1764018,/,1764698,/,1765378,/,1766058,/,1766738,/	t,t,t,t,t	<img class = center src='/static/experiments/beast_fmri_test/images/T.png'></img>	89,71	2750.0	test	<img class = center src='/static/experiments/beast_fmri_test/images/redT.png'></img>	go	2250.0	2.0	29.0	go	target	T	89,Middle Finger	71,Index Finger	500.0	700.0	2250.0	2050.0	1.0	n/a	500.0	1.0	ITI
136314	500.0	n/a	-1	-1	500	0.0	fixation	poldrack-single-stim	649	1767732	0.0-25.30-0.30	beast_fmri_test	387	1767418,/	t	<div class = centerbox2><div class = fixation>+</div></div>	none	500.0	test	n/a	n/a	n/a	n/a	n/a	n/a	n/a	n/a	n/a	n/a	n/a	n/a	n/a	n/a	n/a	n/a	n/a	n/a	fixation
136013.9277325999	2750.0	n/a	725	71	2750	302.0722674	stim	stop-signal	650	1770484	0.0-25.30-1.30	beast_fmri_test	387	1768098,/,1768778,/,1769458,/,1770139,/	t,t,t,t	<img class = center src='/static/experiments/beast_fmri_test/images/P.png'></img>	89,71	2750.0	test	<img class = center src='/static/experiments/beast_fmri_test/images/redP.png'></img>	go	2050.0	2.0	30.0	go	non-target	P	89,Middle Finger	71,Index Finger	500.0	700.0	2250.0	2050.0	1.0	n/a	700.0	1.0	go_stim
138763.9277325999	302.0722674	n/a	725	71	2750	302.0722674	stim	stop-signal	650	1770484	0.0-25.30-1.30	beast_fmri_test	387	1768098,/,1768778,/,1769458,/,1770139,/	t,t,t,t	<img class = center src='/static/experiments/beast_fmri_test/images/P.png'></img>	89,71	2750.0	test	<img class = center src='/static/experiments/beast_fmri_test/images/redP.png'></img>	go	2050.0	2.0	30.0	go	non-target	P	89,Middle Finger	71,Index Finger	500.0	700.0	2250.0	2050.0	1.0	n/a	700.0	1.0	ITI
139888	500.0	n/a	-1	-1	500	0.0	fixation	poldrack-single-stim	651	1771306	0.0-25.31-0.31	beast_fmri_test	387	1770817,/	t	<div class = centerbox2><div class = fixation>+</div></div>	none	500.0	test	n/a	n/a	n/a	n/a	n/a	n/a	n/a	n/a	n/a	n/a	n/a	n/a	n/a	n/a	n/a	n/a	n/a	n/a	fixation
139054.84387420001	2750.0	n/a	1269	71	2750	834.1561258	stim	stop-signal	652	1774057	0.0-25.31-1.31	beast_fmri_test	387	1771498,/,1772178,/,1772858,/,1773538,/,1774218,/	t,t,t,t,t	<img class = center src='/static/experiments/beast_fmri_test/images/D.png'></img>	89,71	2750.0	test	<img class = center src='/static/experiments/beast_fmri_test/images/redD.png'></img>	go	2050.0	2.0	31.0	go	non-target	D	89,Middle Finger	71,Index Finger	500.0	700.0	2250.0	2050.0	1.0	n/a	700.0	1.0	go_stim
141804.84387420001	834.1561258	n/a	1269	71	2750	834.1561258	stim	stop-signal	652	1774057	0.0-25.31-1.31	beast_fmri_test	387	1771498,/,1772178,/,1772858,/,1773538,/,1774218,/	t,t,t,t,t	<img class = center src='/static/experiments/beast_fmri_test/images/D.png'></img>	89,71	2750.0	test	<img class = center src='/static/experiments/beast_fmri_test/images/redD.png'></img>	go	2050.0	2.0	31.0	go	non-target	D	89,Middle Finger	71,Index Finger	500.0	700.0	2250.0	2050.0	1.0	n/a	700.0	1.0	ITI
143994	500.0	n/a	-1	-1	500	0.0	fixation	poldrack-single-stim	653	1775412	0.0-25.32-0.32	beast_fmri_test	387	1774912,/	t	<div class = centerbox2><div class = fixation>+</div></div>	none	500.0	test	n/a	n/a	n/a	n/a	n/a	n/a	n/a	n/a	n/a	n/a	n/a	n/a	n/a	n/a	n/a	n/a	n/a	n/a	fixation
143333.79934310005	500.0	n/a	-1	-1	2750	662.2006569	stim	stop-signal	654	1778164	0.0-25.32-1.32	beast_fmri_test	387	1775578,/,1776258,/,1776938,/,1777619,/,1778299,/	t,t,t,t,t	<img class = center src='/static/experiments/beast_fmri_test/images/P.png'></img>	89,71	2750.0	test	<img class = center src='/static/experiments/beast_fmri_test/images/redP.png'></img>	stop	2250.0	2.0	32.0	stop	target	P	89,Middle Finger	71,Index Finger	500.0	700.0	2250.0	2050.0	0.0	1.0	500.0	n/a	go_stim
145583.79934310005	2250.0	n/a	-1	-1	2750	662.2006569	stim	stop-signal	654	1778164	0.0-25.32-1.32	beast_fmri_test	387	1775578,/,1776258,/,1776938,/,1777619,/,1778299,/	t,t,t,t,t	<img class = center src='/static/experiments/beast_fmri_test/images/P.png'></img>	89,71	2750.0	test	<img class = center src='/static/experiments/beast_fmri_test/images/redP.png'></img>	stop	2250.0	2.0	32.0	stop	target	P	89,Middle Finger	71,Index Finger	500.0	700.0	2250.0	2050.0	0.0	1.0	500.0	n/a	stop_stim
146083.79934310005	662.2006569	n/a	-1	-1	2750	662.2006569	stim	stop-signal	654	1778164	0.0-25.32-1.32	beast_fmri_test	387	1775578,/,1776258,/,1776938,/,1777619,/,1778299,/	t,t,t,t,t	<img class = center src='/static/experiments/beast_fmri_test/images/P.png'></img>	89,71	2750.0	test	<img class = center src='/static/experiments/beast_fmri_test/images/redP.png'></img>	stop	2250.0	2.0	32.0	stop	target	P	89,Middle Finger	71,Index Finger	500.0	700.0	2250.0	2050.0	0.0	1.0	500.0	n/a	ITI
147934	500.0	n/a	-1	-1	500	0.0	fixation	poldrack-single-stim	655	1779352	0.0-25.33-0.33	beast_fmri_test	387	1778979,/	t	<div class = centerbox2><div class = fixation>+</div></div>	none	500.0	test	n/a	n/a	n/a	n/a	n/a	n/a	n/a	n/a	n/a	n/a	n/a	n/a	n/a	n/a	n/a	n/a	n/a	n/a	fixation
147471.55435499991	2750.0	n/a	683	71	2750	465.445645	stim	stop-signal	656	1782105	0.0-25.33-1.33	beast_fmri_test	387	1779658,/,1780340,/,1781018,/,1781699,/,1782378,/	t,t,t,t,t	<img class = center src='/static/experiments/beast_fmri_test/images/T.png'></img>	89,71	2750.0	test	<img class = center src='/static/experiments/beast_fmri_test/images/redT.png'></img>	go	2050.0	2.0	33.0	go	non-target	T	89,Middle Finger	71,Index Finger	550.0	700.0	2250.0	2050.0	1.0	n/a	700.0	1.0	go_stim
150221.55435499991	465.445645	n/a	683	71	2750	465.445645	stim	stop-signal	656	1782105	0.0-25.33-1.33	beast_fmri_test	387	1779658,/,1780340,/,1781018,/,1781699,/,1782378,/	t,t,t,t,t	<img class = center src='/static/experiments/beast_fmri_test/images/T.png'></img>	89,71	2750.0	test	<img class = center src='/static/experiments/beast_fmri_test/images/redT.png'></img>	go	2050.0	2.0	33.0	go	non-target	T	89,Middle Finger	71,Index Finger	550.0	700.0	2250.0	2050.0	1.0	n/a	700.0	1.0	ITI
151675	500.0	n/a	-1	-1	500	0.0	fixation	poldrack-single-stim	657	1783093	0.0-25.34-0.34	beast_fmri_test	387	1783059,/	t	<div class = centerbox2><div class = fixation>+</div></div>	none	500.0	test	n/a	n/a	n/a	n/a	n/a	n/a	n/a	n/a	n/a	n/a	n/a	n/a	n/a	n/a	n/a	n/a	n/a	n/a	fixation
149889.55733700003	700.0	n/a	831	71	2750	1787.442663	stim	stop-signal	658	1785845	0.0-25.34-1.34	beast_fmri_test	387	1783738,/,1784418,/,1785098,/,1785778,/,1786458,/,1787138,/	t,t,t,t,t,t	<img class = center src='/static/experiments/beast_fmri_test/images/V.png'></img>	89,71	2750.0	test	<img class = center src='/static/experiments/beast_fmri_test/images/redV.png'></img>	stop	2050.0	2.0	34.0	stop	non-target	V	89,Middle Finger	71,Index Finger	550.0	700.0	2250.0	2050.0	0.0	0.0	700.0	n/a	go_stim
151939.55733700003	2050.0	n/a	831	71	2750	1787.442663	stim	stop-signal	658	1785845	0.0-25.34-1.34	beast_fmri_test	387	1783738,/,1784418,/,1785098,/,1785778,/,1786458,/,1787138,/	t,t,t,t,t,t	<img class = center src='/static/experiments/beast_fmri_test/images/V.png'></img>	89,71	2750.0	test	<img class = center src='/static/experiments/beast_fmri_test/images/redV.png'></img>	stop	2050.0	2.0	34.0	stop	non-target	V	89,Middle Finger	71,Index Finger	550.0	700.0	2250.0	2050.0	0.0	0.0	700.0	n/a	stop_stim
152639.55733700003	1787.442663	n/a	831	71	2750	1787.442663	stim	stop-signal	658	1785845	0.0-25.34-1.34	beast_fmri_test	387	1783738,/,1784418,/,1785098,/,1785778,/,1786458,/,1787138,/	t,t,t,t,t,t	<img class = center src='/static/experiments/beast_fmri_test/images/V.png'></img>	89,71	2750.0	test	<img class = center src='/static/experiments/beast_fmri_test/images/redV.png'></img>	stop	2050.0	2.0	34.0	stop	non-target	V	89,Middle Finger	71,Index Finger	550.0	700.0	2250.0	2050.0	0.0	0.0	700.0	n/a	ITI
156734	500.0	n/a	-1	-1	500	0.0	fixation	poldrack-single-stim	659	1788152	0.0-25.35-0.35	beast_fmri_test	387	1787818,/	t	<div class = centerbox2><div class = fixation>+</div></div>	none	500.0	test	n/a	n/a	n/a	n/a	n/a	n/a	n/a	n/a	n/a	n/a	n/a	n/a	n/a	n/a	n/a	n/a	n/a	n/a	fixation
156646.97113089007	2750.0	n/a	872	71	2750	88.02886911	stim	stop-signal	660	1790903	0.0-25.35-1.35	beast_fmri_test	387	1788499,/,1789178,/,1789858,/,1790539,/	t,t,t,t	<img class = center src='/static/experiments/beast_fmri_test/images/D.png'></img>	89,71	2750.0	test	<img class = center src='/static/experiments/beast_fmri_test/images/redD.png'></img>	go	2100.0	2.0	35.0	go	non-target	D	89,Middle Finger	71,Index Finger	550.0	650.0	2250.0	2100.0	1.0	n/a	650.0	1.0	go_stim
159396.97113089007	88.02886911	n/a	872	71	2750	88.02886911	stim	stop-signal	660	1790903	0.0-25.35-1.35	beast_fmri_test	387	1788499,/,1789178,/,1789858,/,1790539,/	t,t,t,t	<img class = center src='/static/experiments/beast_fmri_test/images/D.png'></img>	89,71	2750.0	test	<img class = center src='/static/experiments/beast_fmri_test/images/redD.png'></img>	go	2100.0	2.0	35.0	go	non-target	D	89,Middle Finger	71,Index Finger	550.0	650.0	2250.0	2100.0	1.0	n/a	650.0	1.0	ITI
160097	500.0	n/a	-1	-1	500	0.0	fixation	poldrack-single-stim	661	1791515	0.0-25.36-0.36	beast_fmri_test	387	1791218,/	t	<div class = centerbox2><div class = fixation>+</div></div>	none	500.0	test	n/a	n/a	n/a	n/a	n/a	n/a	n/a	n/a	n/a	n/a	n/a	n/a	n/a	n/a	n/a	n/a	n/a	n/a	fixation
159992.02421270008	2750.0	n/a	996	71	2750	105.9757873	stim	stop-signal	662	1794266	0.0-25.36-1.36	beast_fmri_test	387	1791898,/,1792578,/,1793258,/,1793938,/	t,t,t,t	<img class = center src='/static/experiments/beast_fmri_test/images/P.png'></img>	89,71	2750.0	test	<img class = center src='/static/experiments/beast_fmri_test/images/redP.png'></img>	go	2100.0	2.0	36.0	go	non-target	P	89,Middle Finger	71,Index Finger	550.0	650.0	2250.0	2100.0	1.0	n/a	650.0	1.0	go_stim
162742.02421270008	105.9757873	n/a	996	71	2750	105.9757873	stim	stop-signal	662	1794266	0.0-25.36-1.36	beast_fmri_test	387	1791898,/,1792578,/,1793258,/,1793938,/	t,t,t,t	<img class = center src='/static/experiments/beast_fmri_test/images/P.png'></img>	89,71	2750.0	test	<img class = center src='/static/experiments/beast_fmri_test/images/redP.png'></img>	go	2100.0	2.0	36.0	go	non-target	P	89,Middle Finger	71,Index Finger	550.0	650.0	2250.0	2100.0	1.0	n/a	650.0	1.0	ITI
163476	500.0	n/a	-1	-1	500	0.0	fixation	poldrack-single-stim	663	1794894	0.0-25.37-0.37	beast_fmri_test	387	1794618,/	t	<div class = centerbox2><div class = fixation>+</div></div>	none	500.0	test	n/a	n/a	n/a	n/a	n/a	n/a	n/a	n/a	n/a	n/a	n/a	n/a	n/a	n/a	n/a	n/a	n/a	n/a	fixation
163122.87458369997	650.0	n/a	-1	-1	2750	354.1254163	stim	stop-signal	664	1797645	0.0-25.37-1.37	beast_fmri_test	387	1795298,/,1795978,/,1796658,/,1797338,/	t,t,t,t	<img class = center src='/static/experiments/beast_fmri_test/images/P.png'></img>	89,71	2750.0	test	<img class = center src='/static/experiments/beast_fmri_test/images/redP.png'></img>	stop	2100.0	2.0	37.0	stop	non-target	P	89,Middle Finger	71,Index Finger	550.0	650.0	2250.0	2100.0	0.0	1.0	650.0	n/a	go_stim
165222.87458369997	2100.0	n/a	-1	-1	2750	354.1254163	stim	stop-signal	664	1797645	0.0-25.37-1.37	beast_fmri_test	387	1795298,/,1795978,/,1796658,/,1797338,/	t,t,t,t	<img class = center src='/static/experiments/beast_fmri_test/images/P.png'></img>	89,71	2750.0	test	<img class = center src='/static/experiments/beast_fmri_test/images/redP.png'></img>	stop	2100.0	2.0	37.0	stop	non-target	P	89,Middle Finger	71,Index Finger	550.0	650.0	2250.0	2100.0	0.0	1.0	650.0	n/a	stop_stim
165872.87458369997	354.1254163	n/a	-1	-1	2750	354.1254163	stim	stop-signal	664	1797645	0.0-25.37-1.37	beast_fmri_test	387	1795298,/,1795978,/,1796658,/,1797338,/	t,t,t,t	<img class = center src='/static/experiments/beast_fmri_test/images/P.png'></img>	89,71	2750.0	test	<img class = center src='/static/experiments/beast_fmri_test/images/redP.png'></img>	stop	2100.0	2.0	37.0	stop	non-target	P	89,Middle Finger	71,Index Finger	550.0	650.0	2250.0	2100.0	0.0	1.0	650.0	n/a	ITI
167103	500.0	n/a	-1	-1	500	0.0	fixation	poldrack-single-stim	665	1798521	0.0-25.38-0.38	beast_fmri_test	387	1798019,/	t	<div class = centerbox2><div class = fixation>+</div></div>	none	500.0	test	n/a	n/a	n/a	n/a	n/a	n/a	n/a	n/a	n/a	n/a	n/a	n/a	n/a	n/a	n/a	n/a	n/a	n/a	fixation
165548.87491600006	2750.0	n/a	577	89	2750	1556.125084	stim	stop-signal	666	1801273	0.0-25.38-1.38	beast_fmri_test	387	1798698,/,1799378,/,1800058,/,1800739,/,1801418,/,1802098,/,1802778,/	t,t,t,t,t,t,t	<img class = center src='/static/experiments/beast_fmri_test/images/P.png'></img>	89,71	2750.0	test	<img class = center src='/static/experiments/beast_fmri_test/images/redP.png'></img>	go	2200.0	2.0	38.0	go	target	P	89,Middle Finger	71,Index Finger	550.0	700.0	2200.0	2100.0	1.0	n/a	550.0	1.0	go_stim
168298.87491600006	1556.125084	n/a	577	89	2750	1556.125084	stim	stop-signal	666	1801273	0.0-25.38-1.38	beast_fmri_test	387	1798698,/,1799378,/,1800058,/,1800739,/,1801418,/,1802098,/,1802778,/	t,t,t,t,t,t,t	<img class = center src='/static/experiments/beast_fmri_test/images/P.png'></img>	89,71	2750.0	test	<img class = center src='/static/experiments/beast_fmri_test/images/redP.png'></img>	go	2200.0	2.0	38.0	go	target	P	89,Middle Finger	71,Index Finger	550.0	700.0	2200.0	2100.0	1.0	n/a	550.0	1.0	ITI
171933	500.0	n/a	-1	-1	500	0.0	fixation	poldrack-single-stim	667	1803351	0.0-25.39-0.39	beast_fmri_test	387	n/a	n/a	<div class = centerbox2><div class = fixation>+</div></div>	none	500.0	test	n/a	n/a	n/a	n/a	n/a	n/a	n/a	n/a	n/a	n/a	n/a	n/a	n/a	n/a	n/a	n/a	n/a	n/a	fixation
171871.42666594009	2750.0	n/a	839	71	2750	63.57333406	stim	stop-signal	668	1806103	0.0-25.39-1.39	beast_fmri_test	387	1803458,/,1804137,/,1804818,/,1805498,/	t,t,t,t	<img class = center src='/static/experiments/beast_fmri_test/images/T.png'></img>	89,71	2750.0	test	<img class = center src='/static/experiments/beast_fmri_test/images/redT.png'></img>	go	2050.0	2.0	39.0	go	non-target	T	89,Middle Finger	71,Index Finger	550.0	700.0	2200.0	2050.0	1.0	n/a	700.0	1.0	go_stim
174621.42666594009	63.57333406	n/a	839	71	2750	63.57333406	stim	stop-signal	668	1806103	0.0-25.39-1.39	beast_fmri_test	387	1803458,/,1804137,/,1804818,/,1805498,/	t,t,t,t	<img class = center src='/static/experiments/beast_fmri_test/images/T.png'></img>	89,71	2750.0	test	<img class = center src='/static/experiments/beast_fmri_test/images/redT.png'></img>	go	2050.0	2.0	39.0	go	non-target	T	89,Middle Finger	71,Index Finger	550.0	700.0	2200.0	2050.0	1.0	n/a	700.0	1.0	ITI
175272	500.0	n/a	-1	-1	500	0.0	fixation	poldrack-single-stim	669	1806690	0.0-25.40-0.40	beast_fmri_test	387	1806188,/	t	<div class = centerbox2><div class = fixation>+</div></div>	none	500.0	test	n/a	n/a	n/a	n/a	n/a	n/a	n/a	n/a	n/a	n/a	n/a	n/a	n/a	n/a	n/a	n/a	n/a	n/a	fixation
174874.69118670002	2750.0	n/a	750	89	2750	399.3088133	stim	stop-signal	670	1809442	0.0-25.40-1.40	beast_fmri_test	387	1806857,/,1807537,/,1808217,/,1808898,/,1809577,/	t,t,t,t,t	<img class = center src='/static/experiments/beast_fmri_test/images/P.png'></img>	89,71	2750.0	test	<img class = center src='/static/experiments/beast_fmri_test/images/redP.png'></img>	go	2200.0	2.0	40.0	go	target	P	89,Middle Finger	71,Index Finger	550.0	700.0	2200.0	2050.0	1.0	n/a	550.0	1.0	go_stim
177624.69118670002	399.3088133	n/a	750	89	2750	399.3088133	stim	stop-signal	670	1809442	0.0-25.40-1.40	beast_fmri_test	387	1806857,/,1807537,/,1808217,/,1808898,/,1809577,/	t,t,t,t,t	<img class = center src='/static/experiments/beast_fmri_test/images/P.png'></img>	89,71	2750.0	test	<img class = center src='/static/experiments/beast_fmri_test/images/redP.png'></img>	go	2200.0	2.0	40.0	go	target	P	89,Middle Finger	71,Index Finger	550.0	700.0	2200.0	2050.0	1.0	n/a	550.0	1.0	ITI
178945	500.0	n/a	-1	-1	500	0.0	fixation	poldrack-single-stim	671	1810363	0.0-25.41-0.41	beast_fmri_test	387	1810259,/	t	<div class = centerbox2><div class = fixation>+</div></div>	none	500.0	test	n/a	n/a	n/a	n/a	n/a	n/a	n/a	n/a	n/a	n/a	n/a	n/a	n/a	n/a	n/a	n/a	n/a	n/a	fixation
178743.71077160002	2750.0	n/a	1451	89	2750	203.2892284	stim	stop-signal	672	1813115	0.0-25.41-1.41	beast_fmri_test	387	1810939,/,1811619,/,1812299,/,1812979,/	t,t,t,t	<img class = center src='/static/experiments/beast_fmri_test/images/P.png'></img>	89,71	2750.0	test	<img class = center src='/static/experiments/beast_fmri_test/images/redP.png'></img>	go	2050.0	2.0	41.0	go	non-target	P	89,Middle Finger	71,Index Finger	550.0	700.0	2200.0	2050.0	0.0	n/a	700.0	0.0	go_stim
181493.71077160002	203.2892284	n/a	1451	89	2750	203.2892284	stim	stop-signal	672	1813115	0.0-25.41-1.41	beast_fmri_test	387	1810939,/,1811619,/,1812299,/,1812979,/	t,t,t,t	<img class = center src='/static/experiments/beast_fmri_test/images/P.png'></img>	89,71	2750.0	test	<img class = center src='/static/experiments/beast_fmri_test/images/redP.png'></img>	go	2050.0	2.0	41.0	go	non-target	P	89,Middle Finger	71,Index Finger	550.0	700.0	2200.0	2050.0	0.0	n/a	700.0	0.0	ITI
182421	500.0	n/a	-1	-1	500	0.0	fixation	poldrack-single-stim	673	1813839	0.0-25.42-0.42	beast_fmri_test	387	1813658,/	t	<div class = centerbox2><div class = fixation>+</div></div>	none	500.0	test	n/a	n/a	n/a	n/a	n/a	n/a	n/a	n/a	n/a	n/a	n/a	n/a	n/a	n/a	n/a	n/a	n/a	n/a	fixation
180648.86235200008	2750.0	n/a	1020	89	2750	1774.137648	stim	stop-signal	674	1816591	0.0-25.42-1.42	beast_fmri_test	387	1814339,/,1815018,/,1815699,/,1816378,/,1817058,/,1817738,/	t,t,t,t,t,t	<img class = center src='/static/experiments/beast_fmri_test/images/P.png'></img>	89,71	2750.0	test	<img class = center src='/static/experiments/beast_fmri_test/images/redP.png'></img>	go	2200.0	2.0	42.0	go	target	P	89,Middle Finger	71,Index Finger	550.0	700.0	2200.0	2050.0	1.0	n/a	550.0	1.0	go_stim
183398.86235200008	1774.137648	n/a	1020	89	2750	1774.137648	stim	stop-signal	674	1816591	0.0-25.42-1.42	beast_fmri_test	387	1814339,/,1815018,/,1815699,/,1816378,/,1817058,/,1817738,/	t,t,t,t,t,t	<img class = center src='/static/experiments/beast_fmri_test/images/P.png'></img>	89,71	2750.0	test	<img class = center src='/static/experiments/beast_fmri_test/images/redP.png'></img>	go	2200.0	2.0	42.0	go	target	P	89,Middle Finger	71,Index Finger	550.0	700.0	2200.0	2050.0	1.0	n/a	550.0	1.0	ITI
187470	500.0	n/a	-1	-1	500	0.0	fixation	poldrack-single-stim	675	1818888	0.0-25.43-0.43	beast_fmri_test	387	1818419,/	t	<div class = centerbox2><div class = fixation>+</div></div>	none	500.0	test	n/a	n/a	n/a	n/a	n/a	n/a	n/a	n/a	n/a	n/a	n/a	n/a	n/a	n/a	n/a	n/a	n/a	n/a	fixation
187292.71988300001	2750.0	n/a	645	71	2750	179.280117	stim	stop-signal	676	1821640	0.0-25.43-1.43	beast_fmri_test	387	1819098,/,1819778,/,1820458,/,1821139,/,1821818,/	t,t,t,t,t	<img class = center src='/static/experiments/beast_fmri_test/images/D.png'></img>	89,71	2750.0	test	<img class = center src='/static/experiments/beast_fmri_test/images/redD.png'></img>	go	2050.0	2.0	43.0	go	non-target	D	89,Middle Finger	71,Index Finger	550.0	700.0	2200.0	2050.0	1.0	n/a	700.0	1.0	go_stim
190042.71988300001	179.280117	n/a	645	71	2750	179.280117	stim	stop-signal	676	1821640	0.0-25.43-1.43	beast_fmri_test	387	1819098,/,1819778,/,1820458,/,1821139,/,1821818,/	t,t,t,t,t	<img class = center src='/static/experiments/beast_fmri_test/images/D.png'></img>	89,71	2750.0	test	<img class = center src='/static/experiments/beast_fmri_test/images/redD.png'></img>	go	2050.0	2.0	43.0	go	non-target	D	89,Middle Finger	71,Index Finger	550.0	700.0	2200.0	2050.0	1.0	n/a	700.0	1.0	ITI
190919	500.0	n/a	-1	-1	500	0.0	fixation	poldrack-single-stim	677	1822337	0.0-25.44-0.44	beast_fmri_test	387	n/a	n/a	<div class = centerbox2><div class = fixation>+</div></div>	none	500.0	test	n/a	n/a	n/a	n/a	n/a	n/a	n/a	n/a	n/a	n/a	n/a	n/a	n/a	n/a	n/a	n/a	n/a	n/a	fixation
188992.97997400002	700.0	n/a	-1	-1	2750	1928.020026	stim	stop-signal	678	1825089	0.0-25.44-1.44	beast_fmri_test	387	1822498,/,1823178,/,1823858,/,1824538,/,1825218,/,1825898,/,1826578,/	t,t,t,t,t,t,t	<img class = center src='/static/experiments/beast_fmri_test/images/V.png'></img>	89,71	2750.0	test	<img class = center src='/static/experiments/beast_fmri_test/images/redV.png'></img>	stop	2050.0	2.0	44.0	stop	non-target	V	89,Middle Finger	71,Index Finger	550.0	700.0	2200.0	2050.0	0.0	1.0	700.0	n/a	go_stim
191042.97997400002	2050.0	n/a	-1	-1	2750	1928.020026	stim	stop-signal	678	1825089	0.0-25.44-1.44	beast_fmri_test	387	1822498,/,1823178,/,1823858,/,1824538,/,1825218,/,1825898,/,1826578,/	t,t,t,t,t,t,t	<img class = center src='/static/experiments/beast_fmri_test/images/V.png'></img>	89,71	2750.0	test	<img class = center src='/static/experiments/beast_fmri_test/images/redV.png'></img>	stop	2050.0	2.0	44.0	stop	non-target	V	89,Middle Finger	71,Index Finger	550.0	700.0	2200.0	2050.0	0.0	1.0	700.0	n/a	stop_stim
191742.97997400002	1928.020026	n/a	-1	-1	2750	1928.020026	stim	stop-signal	678	1825089	0.0-25.44-1.44	beast_fmri_test	387	1822498,/,1823178,/,1823858,/,1824538,/,1825218,/,1825898,/,1826578,/	t,t,t,t,t,t,t	<img class = center src='/static/experiments/beast_fmri_test/images/V.png'></img>	89,71	2750.0	test	<img class = center src='/static/experiments/beast_fmri_test/images/redV.png'></img>	stop	2050.0	2.0	44.0	stop	non-target	V	89,Middle Finger	71,Index Finger	550.0	700.0	2200.0	2050.0	0.0	1.0	700.0	n/a	ITI
196126	500.0	n/a	-1	-1	500	0.0	fixation	poldrack-single-stim	679	1827544	0.0-25.45-0.45	beast_fmri_test	387	1827258,/	t	<div class = centerbox2><div class = fixation>+</div></div>	none	500.0	test	n/a	n/a	n/a	n/a	n/a	n/a	n/a	n/a	n/a	n/a	n/a	n/a	n/a	n/a	n/a	n/a	n/a	n/a	fixation
195286.4273959999	2750.0	n/a	520	89	2750	841.572604	stim	stop-signal	680	1830296	0.0-25.45-1.45	beast_fmri_test	387	1827938,/,1828618,/,1829298,/,1829978,/,1830658,/	t,t,t,t,t	<img class = center src='/static/experiments/beast_fmri_test/images/D.png'></img>	89,71	2750.0	test	<img class = center src='/static/experiments/beast_fmri_test/images/redD.png'></img>	go	2200.0	2.0	45.0	go	target	D	89,Middle Finger	71,Index Finger	550.0	750.0	2200.0	2050.0	1.0	n/a	550.0	1.0	go_stim
198036.4273959999	841.572604	n/a	520	89	2750	841.572604	stim	stop-signal	680	1830296	0.0-25.45-1.45	beast_fmri_test	387	1827938,/,1828618,/,1829298,/,1829978,/,1830658,/	t,t,t,t,t	<img class = center src='/static/experiments/beast_fmri_test/images/D.png'></img>	89,71	2750.0	test	<img class = center src='/static/experiments/beast_fmri_test/images/redD.png'></img>	go	2200.0	2.0	45.0	go	target	D	89,Middle Finger	71,Index Finger	550.0	750.0	2200.0	2050.0	1.0	n/a	550.0	1.0	ITI
200240	500.0	n/a	-1	-1	500	0.0	fixation	poldrack-single-stim	681	1831658	0.0-25.46-0.46	beast_fmri_test	387	1831339,/	t	<div class = centerbox2><div class = fixation>+</div></div>	none	500.0	test	n/a	n/a	n/a	n/a	n/a	n/a	n/a	n/a	n/a	n/a	n/a	n/a	n/a	n/a	n/a	n/a	n/a	n/a	fixation
197865.64258700004	750.0	n/a	652	71	2750	2376.357413	stim	stop-signal	682	1834410	0.0-25.46-1.46	beast_fmri_test	387	1832018,/,1832698,/,1833378,/,1834058,/,1834738,/,1835418,/,1836098,/,1836778,/	t,t,t,t,t,t,t,t	<img class = center src='/static/experiments/beast_fmri_test/images/B.png'></img>	89,71	2750.0	test	<img class = center src='/static/experiments/beast_fmri_test/images/redB.png'></img>	stop	2000.0	2.0	46.0	stop	non-target	B	89,Middle Finger	71,Index Finger	550.0	750.0	2200.0	2000.0	0.0	0.0	750.0	n/a	go_stim
199865.64258700004	2000.0	n/a	652	71	2750	2376.357413	stim	stop-signal	682	1834410	0.0-25.46-1.46	beast_fmri_test	387	1832018,/,1832698,/,1833378,/,1834058,/,1834738,/,1835418,/,1836098,/,1836778,/	t,t,t,t,t,t,t,t	<img class = center src='/static/experiments/beast_fmri_test/images/B.png'></img>	89,71	2750.0	test	<img class = center src='/static/experiments/beast_fmri_test/images/redB.png'></img>	stop	2000.0	2.0	46.0	stop	non-target	B	89,Middle Finger	71,Index Finger	550.0	750.0	2200.0	2000.0	0.0	0.0	750.0	n/a	stop_stim
200615.64258700004	2376.357413	n/a	652	71	2750	2376.357413	stim	stop-signal	682	1834410	0.0-25.46-1.46	beast_fmri_test	387	1832018,/,1832698,/,1833378,/,1834058,/,1834738,/,1835418,/,1836098,/,1836778,/	t,t,t,t,t,t,t,t	<img class = center src='/static/experiments/beast_fmri_test/images/B.png'></img>	89,71	2750.0	test	<img class = center src='/static/experiments/beast_fmri_test/images/redB.png'></img>	stop	2000.0	2.0	46.0	stop	non-target	B	89,Middle Finger	71,Index Finger	550.0	750.0	2200.0	2000.0	0.0	0.0	750.0	n/a	ITI
220389	15000.0	n/a	-1	-1	15000	0.0	practice-no-stop-feedback	poldrack-single-stim	683	1851807	0.0-26.0	beast_fmri_test	387	1837458,/,1838138,/,1838818,/,1839498,/,1840178,/,1840858,/,1841539,/,1842217,/,1842899,/,1843579,/,1844259,/,1844939,/,1845619,/,1846299,/,1846979,/,1847659,/,1848339,/,1849019,/,1849699,/,1850379,/,1851058,/,1851739,/	t,t,t,t,t,t,t,t,t,t,t,t,t,t,t,t,t,t,t,t,t,t	"<div class = ""centerbox2_2""><p class = ""block-text2"">Your delay is 3 trials.</p><p class = block-text2>Please wait for the scanner to start the block</p></div>"	77	15000.0	n/a	n/a	n/a	n/a	n/a	n/a	n/a	n/a	n/a	n/a	n/a	n/a	n/a	n/a	n/a	n/a	n/a	n/a	n/a	practice-no-stop-feedback
220891	500.0	n/a	-1	-1	500	0.0	fixation	poldrack-single-stim	684	1852309	0.0-27.0-0.0	beast_fmri_test	387	n/a	n/a	<div class = centerbox2><div class = fixation>+</div></div>	none	500.0	test	n/a	n/a	n/a	n/a	n/a	n/a	n/a	n/a	n/a	n/a	n/a	n/a	n/a	n/a	n/a	n/a	n/a	n/a	fixation
220391.63105729991	2750.0	n/a	737	71	2750	501.3689427	stim	stop-signal	685	1855061	0.0-27.0-1.0	beast_fmri_test	387	1852418,/,1853098,/,1853778,/,1854458,/,1855138,/	t,t,t,t,t	<img class = center src='/static/experiments/beast_fmri_test/images/V.png'></img>	89,71	2750.0	test	<img class = center src='/static/experiments/beast_fmri_test/images/redV.png'></img>	go	-1.0	3.0	0.0	go	temp-non-target	V	89,Middle Finger	71,Index Finger	550.0	700.0	2200.0	2000.0	0.0	n/a	n/a	n/a	go_stim
223141.63105729991	501.3689427	n/a	737	71	2750	501.3689427	stim	stop-signal	685	1855061	0.0-27.0-1.0	beast_fmri_test	387	1852418,/,1853098,/,1853778,/,1854458,/,1855138,/	t,t,t,t,t	<img class = center src='/static/experiments/beast_fmri_test/images/V.png'></img>	89,71	2750.0	test	<img class = center src='/static/experiments/beast_fmri_test/images/redV.png'></img>	go	-1.0	3.0	0.0	go	temp-non-target	V	89,Middle Finger	71,Index Finger	550.0	700.0	2200.0	2000.0	0.0	n/a	n/a	n/a	ITI
224667	500.0	n/a	-1	-1	500	0.0	fixation	poldrack-single-stim	686	1856085	0.0-27.1-0.1	beast_fmri_test	387	1855818,/	t	<div class = centerbox2><div class = fixation>+</div></div>	none	500.0	test	n/a	n/a	n/a	n/a	n/a	n/a	n/a	n/a	n/a	n/a	n/a	n/a	n/a	n/a	n/a	n/a	n/a	n/a	fixation
224665.72530899406	2750.0	n/a	681	71	2750	2.274691006	stim	stop-signal	687	1858836	0.0-27.1-1.1	beast_fmri_test	387	1856498,/,1857178,/,1857858,/,1858538,/	t,t,t,t	<img class = center src='/static/experiments/beast_fmri_test/images/D.png'></img>	89,71	2750.0	test	<img class = center src='/static/experiments/beast_fmri_test/images/redD.png'></img>	go	-1.0	3.0	1.0	go	temp-non-target	D	89,Middle Finger	71,Index Finger	550.0	700.0	2200.0	2000.0	0.0	n/a	n/a	n/a	go_stim
227415.72530899406	2.274691006	n/a	681	71	2750	2.274691006	stim	stop-signal	687	1858836	0.0-27.1-1.1	beast_fmri_test	387	1856498,/,1857178,/,1857858,/,1858538,/	t,t,t,t	<img class = center src='/static/experiments/beast_fmri_test/images/D.png'></img>	89,71	2750.0	test	<img class = center src='/static/experiments/beast_fmri_test/images/redD.png'></img>	go	-1.0	3.0	1.0	go	temp-non-target	D	89,Middle Finger	71,Index Finger	550.0	700.0	2200.0	2000.0	0.0	n/a	n/a	n/a	ITI
227941	500.0	n/a	-1	-1	500	0.0	fixation	poldrack-single-stim	688	1859359	0.0-27.2-0.2	beast_fmri_test	387	1859218,/	t	<div class = centerbox2><div class = fixation>+</div></div>	none	500.0	test	n/a	n/a	n/a	n/a	n/a	n/a	n/a	n/a	n/a	n/a	n/a	n/a	n/a	n/a	n/a	n/a	n/a	n/a	fixation
227062.46594749996	2750.0	n/a	811	71	2750	880.5340525	stim	stop-signal	689	1862111	0.0-27.2-1.2	beast_fmri_test	387	1859898,/,1860578,/,1861258,/,1861939,/,1862618,/	t,t,t,t,t	<img class = center src='/static/experiments/beast_fmri_test/images/D.png'></img>	89,71	2750.0	test	<img class = center src='/static/experiments/beast_fmri_test/images/redD.png'></img>	go	-1.0	3.0	2.0	go	temp-non-target	D	89,Middle Finger	71,Index Finger	550.0	700.0	2200.0	2000.0	0.0	n/a	n/a	n/a	go_stim
229812.46594749996	880.5340525	n/a	811	71	2750	880.5340525	stim	stop-signal	689	1862111	0.0-27.2-1.2	beast_fmri_test	387	1859898,/,1860578,/,1861258,/,1861939,/,1862618,/	t,t,t,t,t	<img class = center src='/static/experiments/beast_fmri_test/images/D.png'></img>	89,71	2750.0	test	<img class = center src='/static/experiments/beast_fmri_test/images/redD.png'></img>	go	-1.0	3.0	2.0	go	temp-non-target	D	89,Middle Finger	71,Index Finger	550.0	700.0	2200.0	2000.0	0.0	n/a	n/a	n/a	ITI
232095	500.0	n/a	-1	-1	500	0.0	fixation	poldrack-single-stim	690	1863513	0.0-27.3-0.3	beast_fmri_test	387	1863298,/	t	<div class = centerbox2><div class = fixation>+</div></div>	none	500.0	test	n/a	n/a	n/a	n/a	n/a	n/a	n/a	n/a	n/a	n/a	n/a	n/a	n/a	n/a	n/a	n/a	n/a	n/a	fixation
231339.2124663	700.0	n/a	857	71	2750	757.7875337	stim	stop-signal	691	1866265	0.0-27.3-1.3	beast_fmri_test	387	1863978,/,1864658,/,1865338,/,1866018,/,1866698,/	t,t,t,t,t	<img class = center src='/static/experiments/beast_fmri_test/images/P.png'></img>	89,71	2750.0	test	<img class = center src='/static/experiments/beast_fmri_test/images/redP.png'></img>	stop	2050.0	3.0	3.0	stop	non-target	P	89,Middle Finger	71,Index Finger	550.0	700.0	2200.0	2050.0	0.0	0.0	700.0	n/a	go_stim
233389.2124663	2050.0	n/a	857	71	2750	757.7875337	stim	stop-signal	691	1866265	0.0-27.3-1.3	beast_fmri_test	387	1863978,/,1864658,/,1865338,/,1866018,/,1866698,/	t,t,t,t,t	<img class = center src='/static/experiments/beast_fmri_test/images/P.png'></img>	89,71	2750.0	test	<img class = center src='/static/experiments/beast_fmri_test/images/redP.png'></img>	stop	2050.0	3.0	3.0	stop	non-target	P	89,Middle Finger	71,Index Finger	550.0	700.0	2200.0	2050.0	0.0	0.0	700.0	n/a	stop_stim
234089.2124663	757.7875337	n/a	857	71	2750	757.7875337	stim	stop-signal	691	1866265	0.0-27.3-1.3	beast_fmri_test	387	1863978,/,1864658,/,1865338,/,1866018,/,1866698,/	t,t,t,t,t	<img class = center src='/static/experiments/beast_fmri_test/images/P.png'></img>	89,71	2750.0	test	<img class = center src='/static/experiments/beast_fmri_test/images/redP.png'></img>	stop	2050.0	3.0	3.0	stop	non-target	P	89,Middle Finger	71,Index Finger	550.0	700.0	2200.0	2050.0	0.0	0.0	700.0	n/a	ITI
236125	500.0	n/a	-1	-1	500	0.0	fixation	poldrack-single-stim	692	1867543	0.0-27.4-0.4	beast_fmri_test	387	1867378,/	t	<div class = centerbox2><div class = fixation>+</div></div>	none	500.0	test	n/a	n/a	n/a	n/a	n/a	n/a	n/a	n/a	n/a	n/a	n/a	n/a	n/a	n/a	n/a	n/a	n/a	n/a	fixation
235881.74956430006	2750.0	n/a	1272	71	2750	245.2504357	stim	stop-signal	693	1870295	0.0-27.4-1.4	beast_fmri_test	387	1868058,/,1868738,/,1869417,/,1870098,/	t,t,t,t	<img class = center src='/static/experiments/beast_fmri_test/images/P.png'></img>	89,71	2750.0	test	<img class = center src='/static/experiments/beast_fmri_test/images/redP.png'></img>	go	2100.0	3.0	4.0	go	non-target	P	89,Middle Finger	71,Index Finger	550.0	650.0	2200.0	2100.0	1.0	n/a	650.0	1.0	go_stim
238631.74956430006	245.2504357	n/a	1272	71	2750	245.2504357	stim	stop-signal	693	1870295	0.0-27.4-1.4	beast_fmri_test	387	1868058,/,1868738,/,1869417,/,1870098,/	t,t,t,t	<img class = center src='/static/experiments/beast_fmri_test/images/P.png'></img>	89,71	2750.0	test	<img class = center src='/static/experiments/beast_fmri_test/images/redP.png'></img>	go	2100.0	3.0	4.0	go	non-target	P	89,Middle Finger	71,Index Finger	550.0	650.0	2200.0	2100.0	1.0	n/a	650.0	1.0	ITI
239644	500.0	n/a	-1	-1	500	0.0	fixation	poldrack-single-stim	694	1871062	0.0-27.5-0.5	beast_fmri_test	387	1870778,/	t	<div class = centerbox2><div class = fixation>+</div></div>	none	500.0	test	n/a	n/a	n/a	n/a	n/a	n/a	n/a	n/a	n/a	n/a	n/a	n/a	n/a	n/a	n/a	n/a	n/a	n/a	fixation
239446.75320250005	2750.0	n/a	1152	89	2750	200.2467975	stim	stop-signal	695	1873815	0.0-27.5-1.5	beast_fmri_test	387	1871458,/,1872138,/,1872818,/,1873497,/	t,t,t,t	<img class = center src='/static/experiments/beast_fmri_test/images/D.png'></img>	89,71	2750.0	test	<img class = center src='/static/experiments/beast_fmri_test/images/redD.png'></img>	go	2200.0	3.0	5.0	go	target	D	89,Middle Finger	71,Index Finger	550.0	650.0	2200.0	2100.0	1.0	n/a	550.0	1.0	go_stim
242196.75320250005	200.2467975	n/a	1152	89	2750	200.2467975	stim	stop-signal	695	1873815	0.0-27.5-1.5	beast_fmri_test	387	1871458,/,1872138,/,1872818,/,1873497,/	t,t,t,t	<img class = center src='/static/experiments/beast_fmri_test/images/D.png'></img>	89,71	2750.0	test	<img class = center src='/static/experiments/beast_fmri_test/images/redD.png'></img>	go	2200.0	3.0	5.0	go	target	D	89,Middle Finger	71,Index Finger	550.0	650.0	2200.0	2100.0	1.0	n/a	550.0	1.0	ITI
243121	500.0	n/a	-1	-1	500	0.0	fixation	poldrack-single-stim	696	1874539	0.0-27.6-0.6	beast_fmri_test	387	1874178,/	t	<div class = centerbox2><div class = fixation>+</div></div>	none	500.0	test	n/a	n/a	n/a	n/a	n/a	n/a	n/a	n/a	n/a	n/a	n/a	n/a	n/a	n/a	n/a	n/a	n/a	n/a	fixation
241945.214959	650.0	n/a	1512	71	2750	1177.785041	stim	stop-signal	697	1877291	0.0-27.6-1.6	beast_fmri_test	387	1874858,/,1875537,/,1876217,/,1876899,/,1877579,/,1878258,/	t,t,t,t,t,t	<img class = center src='/static/experiments/beast_fmri_test/images/V.png'></img>	89,71	2750.0	test	<img class = center src='/static/experiments/beast_fmri_test/images/redV.png'></img>	stop	2100.0	3.0	6.0	stop	non-target	V	89,Middle Finger	71,Index Finger	550.0	650.0	2200.0	2100.0	0.0	0.0	650.0	n/a	go_stim
244045.214959	2100.0	n/a	1512	71	2750	1177.785041	stim	stop-signal	697	1877291	0.0-27.6-1.6	beast_fmri_test	387	1874858,/,1875537,/,1876217,/,1876899,/,1877579,/,1878258,/	t,t,t,t,t,t	<img class = center src='/static/experiments/beast_fmri_test/images/V.png'></img>	89,71	2750.0	test	<img class = center src='/static/experiments/beast_fmri_test/images/redV.png'></img>	stop	2100.0	3.0	6.0	stop	non-target	V	89,Middle Finger	71,Index Finger	550.0	650.0	2200.0	2100.0	0.0	0.0	650.0	n/a	stop_stim
244695.214959	1177.785041	n/a	1512	71	2750	1177.785041	stim	stop-signal	697	1877291	0.0-27.6-1.6	beast_fmri_test	387	1874858,/,1875537,/,1876217,/,1876899,/,1877579,/,1878258,/	t,t,t,t,t,t	<img class = center src='/static/experiments/beast_fmri_test/images/V.png'></img>	89,71	2750.0	test	<img class = center src='/static/experiments/beast_fmri_test/images/redV.png'></img>	stop	2100.0	3.0	6.0	stop	non-target	V	89,Middle Finger	71,Index Finger	550.0	650.0	2200.0	2100.0	0.0	0.0	650.0	n/a	ITI
247573	500.0	n/a	-1	-1	500	0.0	fixation	poldrack-single-stim	698	1878991	0.0-27.7-0.7	beast_fmri_test	387	1878939,/	t	<div class = centerbox2><div class = fixation>+</div></div>	none	500.0	test	n/a	n/a	n/a	n/a	n/a	n/a	n/a	n/a	n/a	n/a	n/a	n/a	n/a	n/a	n/a	n/a	n/a	n/a	fixation
245725.08219099999	2750.0	n/a	1510	71	2750	1849.917809	stim	stop-signal	699	1881743	0.0-27.7-1.7	beast_fmri_test	387	1879618,/,1880299,/,1880978,/,1881658,/,1882339,/,1883018,/	t,t,t,t,t,t	<img class = center src='/static/experiments/beast_fmri_test/images/P.png'></img>	89,71	2750.0	test	<img class = center src='/static/experiments/beast_fmri_test/images/redP.png'></img>	go	2200.0	3.0	7.0	go	target	P	89,Middle Finger	71,Index Finger	550.0	600.0	2200.0	2100.0	0.0	n/a	550.0	0.0	go_stim
248475.08219099999	1849.917809	n/a	1510	71	2750	1849.917809	stim	stop-signal	699	1881743	0.0-27.7-1.7	beast_fmri_test	387	1879618,/,1880299,/,1880978,/,1881658,/,1882339,/,1883018,/	t,t,t,t,t,t	<img class = center src='/static/experiments/beast_fmri_test/images/P.png'></img>	89,71	2750.0	test	<img class = center src='/static/experiments/beast_fmri_test/images/redP.png'></img>	go	2200.0	3.0	7.0	go	target	P	89,Middle Finger	71,Index Finger	550.0	600.0	2200.0	2100.0	0.0	n/a	550.0	0.0	ITI
252698	500.0	n/a	-1	-1	500	0.0	fixation	poldrack-single-stim	700	1884116	0.0-27.8-0.8	beast_fmri_test	387	1883698,/	t	<div class = centerbox2><div class = fixation>+</div></div>	none	500.0	test	n/a	n/a	n/a	n/a	n/a	n/a	n/a	n/a	n/a	n/a	n/a	n/a	n/a	n/a	n/a	n/a	n/a	n/a	fixation
252353.98945949995	2750.0	n/a	1262	71	2750	346.0105405	stim	stop-signal	701	1886868	0.0-27.8-1.8	beast_fmri_test	387	1884379,/,1885058,/,1885738,/,1886418,/,1887098,/	t,t,t,t,t	<img class = center src='/static/experiments/beast_fmri_test/images/D.png'></img>	89,71	2750.0	test	<img class = center src='/static/experiments/beast_fmri_test/images/redD.png'></img>	go	2200.0	3.0	8.0	go	target	D	89,Middle Finger	71,Index Finger	550.0	600.0	2200.0	2100.0	0.0	n/a	550.0	0.0	go_stim
255103.98945949995	346.0105405	n/a	1262	71	2750	346.0105405	stim	stop-signal	701	1886868	0.0-27.8-1.8	beast_fmri_test	387	1884379,/,1885058,/,1885738,/,1886418,/,1887098,/	t,t,t,t,t	<img class = center src='/static/experiments/beast_fmri_test/images/D.png'></img>	89,71	2750.0	test	<img class = center src='/static/experiments/beast_fmri_test/images/redD.png'></img>	go	2200.0	3.0	8.0	go	target	D	89,Middle Finger	71,Index Finger	550.0	600.0	2200.0	2100.0	0.0	n/a	550.0	0.0	ITI
256322	500.0	n/a	-1	-1	500	0.0	fixation	poldrack-single-stim	702	1887740	0.0-27.9-0.9	beast_fmri_test	387	n/a	n/a	<div class = centerbox2><div class = fixation>+</div></div>	none	500.0	test	n/a	n/a	n/a	n/a	n/a	n/a	n/a	n/a	n/a	n/a	n/a	n/a	n/a	n/a	n/a	n/a	n/a	n/a	fixation
254976.75687499996	2750.0	n/a	1205	71	2750	1347.243125	stim	stop-signal	703	1890492	0.0-27.9-1.9	beast_fmri_test	387	1887778,/,1888458,/,1889138,/,1889818,/,1890498,/,1891178,/	t,t,t,t,t,t	<img class = center src='/static/experiments/beast_fmri_test/images/P.png'></img>	89,71	2750.0	test	<img class = center src='/static/experiments/beast_fmri_test/images/redP.png'></img>	go	2150.0	3.0	9.0	go	non-target	P	89,Middle Finger	71,Index Finger	550.0	600.0	2200.0	2150.0	1.0	n/a	600.0	1.0	go_stim
257726.75687499996	1347.243125	n/a	1205	71	2750	1347.243125	stim	stop-signal	703	1890492	0.0-27.9-1.9	beast_fmri_test	387	1887778,/,1888458,/,1889138,/,1889818,/,1890498,/,1891178,/	t,t,t,t,t,t	<img class = center src='/static/experiments/beast_fmri_test/images/P.png'></img>	89,71	2750.0	test	<img class = center src='/static/experiments/beast_fmri_test/images/redP.png'></img>	go	2150.0	3.0	9.0	go	non-target	P	89,Middle Finger	71,Index Finger	550.0	600.0	2200.0	2150.0	1.0	n/a	600.0	1.0	ITI
260943	500.0	n/a	-1	-1	500	0.0	fixation	poldrack-single-stim	704	1892361	0.0-27.10-0.10	beast_fmri_test	387	1891859,/	t	<div class = centerbox2><div class = fixation>+</div></div>	none	500.0	test	n/a	n/a	n/a	n/a	n/a	n/a	n/a	n/a	n/a	n/a	n/a	n/a	n/a	n/a	n/a	n/a	n/a	n/a	fixation
258853.97628200008	550.0	n/a	587	89	2750	2091.023718	stim	stop-signal	705	1895113	0.0-27.10-1.10	beast_fmri_test	387	1892539,/,1893218,/,1893898,/,1894578,/,1895258,/,1895938,/,1896618,/	t,t,t,t,t,t,t	<img class = center src='/static/experiments/beast_fmri_test/images/P.png'></img>	89,71	2750.0	test	<img class = center src='/static/experiments/beast_fmri_test/images/redP.png'></img>	stop	2200.0	3.0	10.0	stop	target	P	89,Middle Finger	71,Index Finger	550.0	600.0	2200.0	2150.0	0.0	0.0	550.0	n/a	go_stim
261053.97628200008	2200.0	n/a	587	89	2750	2091.023718	stim	stop-signal	705	1895113	0.0-27.10-1.10	beast_fmri_test	387	1892539,/,1893218,/,1893898,/,1894578,/,1895258,/,1895938,/,1896618,/	t,t,t,t,t,t,t	<img class = center src='/static/experiments/beast_fmri_test/images/P.png'></img>	89,71	2750.0	test	<img class = center src='/static/experiments/beast_fmri_test/images/redP.png'></img>	stop	2200.0	3.0	10.0	stop	target	P	89,Middle Finger	71,Index Finger	550.0	600.0	2200.0	2150.0	0.0	0.0	550.0	n/a	stop_stim
261603.97628200008	2091.023718	n/a	587	89	2750	2091.023718	stim	stop-signal	705	1895113	0.0-27.10-1.10	beast_fmri_test	387	1892539,/,1893218,/,1893898,/,1894578,/,1895258,/,1895938,/,1896618,/	t,t,t,t,t,t,t	<img class = center src='/static/experiments/beast_fmri_test/images/P.png'></img>	89,71	2750.0	test	<img class = center src='/static/experiments/beast_fmri_test/images/redP.png'></img>	stop	2200.0	3.0	10.0	stop	target	P	89,Middle Finger	71,Index Finger	550.0	600.0	2200.0	2150.0	0.0	0.0	550.0	n/a	ITI
266308	500.0	n/a	-1	-1	500	0.0	fixation	poldrack-single-stim	706	1897726	0.0-27.11-0.11	beast_fmri_test	387	1897298,/	t	<div class = centerbox2><div class = fixation>+</div></div>	none	500.0	test	n/a	n/a	n/a	n/a	n/a	n/a	n/a	n/a	n/a	n/a	n/a	n/a	n/a	n/a	n/a	n/a	n/a	n/a	fixation
266102.98017739994	600.0	n/a	-1	-1	2750	207.0198226	stim	stop-signal	707	1900478	0.0-27.11-1.11	beast_fmri_test	387	1897978,/,1898658,/,1899338,/,1900018,/	t,t,t,t	<img class = center src='/static/experiments/beast_fmri_test/images/V.png'></img>	89,71	2750.0	test	<img class = center src='/static/experiments/beast_fmri_test/images/redV.png'></img>	stop	2150.0	3.0	11.0	stop	non-target	V	89,Middle Finger	71,Index Finger	500.0	600.0	2200.0	2150.0	0.0	1.0	600.0	n/a	go_stim
268252.98017739994	2150.0	n/a	-1	-1	2750	207.0198226	stim	stop-signal	707	1900478	0.0-27.11-1.11	beast_fmri_test	387	1897978,/,1898658,/,1899338,/,1900018,/	t,t,t,t	<img class = center src='/static/experiments/beast_fmri_test/images/V.png'></img>	89,71	2750.0	test	<img class = center src='/static/experiments/beast_fmri_test/images/redV.png'></img>	stop	2150.0	3.0	11.0	stop	non-target	V	89,Middle Finger	71,Index Finger	500.0	600.0	2200.0	2150.0	0.0	1.0	600.0	n/a	stop_stim
268852.98017739994	207.0198226	n/a	-1	-1	2750	207.0198226	stim	stop-signal	707	1900478	0.0-27.11-1.11	beast_fmri_test	387	1897978,/,1898658,/,1899338,/,1900018,/	t,t,t,t	<img class = center src='/static/experiments/beast_fmri_test/images/V.png'></img>	89,71	2750.0	test	<img class = center src='/static/experiments/beast_fmri_test/images/redV.png'></img>	stop	2150.0	3.0	11.0	stop	non-target	V	89,Middle Finger	71,Index Finger	500.0	600.0	2200.0	2150.0	0.0	1.0	600.0	n/a	ITI
269794	500.0	n/a	-1	-1	500	0.0	fixation	poldrack-single-stim	708	1901212	0.0-27.12-0.12	beast_fmri_test	387	1900711,/	t	<div class = centerbox2><div class = fixation>+</div></div>	none	500.0	test	n/a	n/a	n/a	n/a	n/a	n/a	n/a	n/a	n/a	n/a	n/a	n/a	n/a	n/a	n/a	n/a	n/a	n/a	fixation
269687.5467958001	2750.0	n/a	855	71	2750	108.4532042	stim	stop-signal	709	1903964	0.0-27.12-1.12	beast_fmri_test	387	1901378,/,1902058,/,1902738,/,1903417,/	t,t,t,t	<img class = center src='/static/experiments/beast_fmri_test/images/D.png'></img>	89,71	2750.0	test	<img class = center src='/static/experiments/beast_fmri_test/images/redD.png'></img>	go	2100.0	3.0	12.0	go	non-target	D	89,Middle Finger	71,Index Finger	500.0	650.0	2200.0	2100.0	1.0	n/a	650.0	1.0	go_stim
272437.5467958001	108.4532042	n/a	855	71	2750	108.4532042	stim	stop-signal	709	1903964	0.0-27.12-1.12	beast_fmri_test	387	1901378,/,1902058,/,1902738,/,1903417,/	t,t,t,t	<img class = center src='/static/experiments/beast_fmri_test/images/D.png'></img>	89,71	2750.0	test	<img class = center src='/static/experiments/beast_fmri_test/images/redD.png'></img>	go	2100.0	3.0	12.0	go	non-target	D	89,Middle Finger	71,Index Finger	500.0	650.0	2200.0	2100.0	1.0	n/a	650.0	1.0	ITI
273175	500.0	n/a	-1	-1	500	0.0	fixation	poldrack-single-stim	710	1904593	0.0-27.13-0.13	beast_fmri_test	387	1904097,/	t	<div class = centerbox2><div class = fixation>+</div></div>	none	500.0	test	n/a	n/a	n/a	n/a	n/a	n/a	n/a	n/a	n/a	n/a	n/a	n/a	n/a	n/a	n/a	n/a	n/a	n/a	fixation
271810.290332	500.0	n/a	850	89	2750	1365.709668	stim	stop-signal	711	1907344	0.0-27.13-1.13	beast_fmri_test	387	1904778,/,1905457,/,1906138,/,1906817,/,1907498,/,1908177,/	t,t,t,t,t,t	<img class = center src='/static/experiments/beast_fmri_test/images/P.png'></img>	89,71	2750.0	test	<img class = center src='/static/experiments/beast_fmri_test/images/redP.png'></img>	stop	2250.0	3.0	13.0	stop	target	P	89,Middle Finger	71,Index Finger	500.0	650.0	2250.0	2100.0	0.0	0.0	500.0	n/a	go_stim
274060.290332	2250.0	n/a	850	89	2750	1365.709668	stim	stop-signal	711	1907344	0.0-27.13-1.13	beast_fmri_test	387	1904778,/,1905457,/,1906138,/,1906817,/,1907498,/,1908177,/	t,t,t,t,t,t	<img class = center src='/static/experiments/beast_fmri_test/images/P.png'></img>	89,71	2750.0	test	<img class = center src='/static/experiments/beast_fmri_test/images/redP.png'></img>	stop	2250.0	3.0	13.0	stop	target	P	89,Middle Finger	71,Index Finger	500.0	650.0	2250.0	2100.0	0.0	0.0	500.0	n/a	stop_stim
274560.290332	1365.709668	n/a	850	89	2750	1365.709668	stim	stop-signal	711	1907344	0.0-27.13-1.13	beast_fmri_test	387	1904778,/,1905457,/,1906138,/,1906817,/,1907498,/,1908177,/	t,t,t,t,t,t	<img class = center src='/static/experiments/beast_fmri_test/images/P.png'></img>	89,71	2750.0	test	<img class = center src='/static/experiments/beast_fmri_test/images/redP.png'></img>	stop	2250.0	3.0	13.0	stop	target	P	89,Middle Finger	71,Index Finger	500.0	650.0	2250.0	2100.0	0.0	0.0	500.0	n/a	ITI
277815	500.0	n/a	-1	-1	500	0.0	fixation	poldrack-single-stim	712	1909233	0.0-27.14-0.14	beast_fmri_test	387	1908859,/	t	<div class = centerbox2><div class = fixation>+</div></div>	none	500.0	test	n/a	n/a	n/a	n/a	n/a	n/a	n/a	n/a	n/a	n/a	n/a	n/a	n/a	n/a	n/a	n/a	n/a	n/a	fixation
276156.08364899992	650.0	n/a	834	71	2750	1660.916351	stim	stop-signal	713	1911985	0.0-27.14-1.14	beast_fmri_test	387	1909539,/,1910219,/,1910899,/,1911578,/,1912258,/,1912939,/,1913618,/	t,t,t,t,t,t,t	<img class = center src='/static/experiments/beast_fmri_test/images/B.png'></img>	89,71	2750.0	test	<img class = center src='/static/experiments/beast_fmri_test/images/redB.png'></img>	stop	2100.0	3.0	14.0	stop	non-target	B	89,Middle Finger	71,Index Finger	450.0	650.0	2250.0	2100.0	0.0	0.0	650.0	n/a	go_stim
278256.08364899992	2100.0	n/a	834	71	2750	1660.916351	stim	stop-signal	713	1911985	0.0-27.14-1.14	beast_fmri_test	387	1909539,/,1910219,/,1910899,/,1911578,/,1912258,/,1912939,/,1913618,/	t,t,t,t,t,t,t	<img class = center src='/static/experiments/beast_fmri_test/images/B.png'></img>	89,71	2750.0	test	<img class = center src='/static/experiments/beast_fmri_test/images/redB.png'></img>	stop	2100.0	3.0	14.0	stop	non-target	B	89,Middle Finger	71,Index Finger	450.0	650.0	2250.0	2100.0	0.0	0.0	650.0	n/a	stop_stim
278906.08364899992	1660.916351	n/a	834	71	2750	1660.916351	stim	stop-signal	713	1911985	0.0-27.14-1.14	beast_fmri_test	387	1909539,/,1910219,/,1910899,/,1911578,/,1912258,/,1912939,/,1913618,/	t,t,t,t,t,t,t	<img class = center src='/static/experiments/beast_fmri_test/images/B.png'></img>	89,71	2750.0	test	<img class = center src='/static/experiments/beast_fmri_test/images/redB.png'></img>	stop	2100.0	3.0	14.0	stop	non-target	B	89,Middle Finger	71,Index Finger	450.0	650.0	2250.0	2100.0	0.0	0.0	650.0	n/a	ITI
282750	500.0	n/a	-1	-1	500	0.0	fixation	poldrack-single-stim	714	1914168	0.0-27.15-0.15	beast_fmri_test	387	n/a	n/a	<div class = centerbox2><div class = fixation>+</div></div>	none	500.0	test	n/a	n/a	n/a	n/a	n/a	n/a	n/a	n/a	n/a	n/a	n/a	n/a	n/a	n/a	n/a	n/a	n/a	n/a	fixation
281511.84578699991	2750.0	n/a	1222	71	2750	1240.154213	stim	stop-signal	715	1916920	0.0-27.15-1.15	beast_fmri_test	387	1914299,/,1914978,/,1915658,/,1916338,/,1917018,/,1917698,/	t,t,t,t,t,t	<img class = center src='/static/experiments/beast_fmri_test/images/B.png'></img>	89,71	2750.0	test	<img class = center src='/static/experiments/beast_fmri_test/images/redB.png'></img>	go	2150.0	3.0	15.0	go	non-target	B	89,Middle Finger	71,Index Finger	450.0	600.0	2250.0	2150.0	1.0	n/a	600.0	1.0	go_stim
284261.84578699991	1240.154213	n/a	1222	71	2750	1240.154213	stim	stop-signal	715	1916920	0.0-27.15-1.15	beast_fmri_test	387	1914299,/,1914978,/,1915658,/,1916338,/,1917018,/,1917698,/	t,t,t,t,t,t	<img class = center src='/static/experiments/beast_fmri_test/images/B.png'></img>	89,71	2750.0	test	<img class = center src='/static/experiments/beast_fmri_test/images/redB.png'></img>	go	2150.0	3.0	15.0	go	non-target	B	89,Middle Finger	71,Index Finger	450.0	600.0	2250.0	2150.0	1.0	n/a	600.0	1.0	ITI
287265	500.0	n/a	-1	-1	500	0.0	fixation	poldrack-single-stim	716	1918683	0.0-27.16-0.16	beast_fmri_test	387	1918378,/	t	<div class = centerbox2><div class = fixation>+</div></div>	none	500.0	test	n/a	n/a	n/a	n/a	n/a	n/a	n/a	n/a	n/a	n/a	n/a	n/a	n/a	n/a	n/a	n/a	n/a	n/a	fixation
286415.45571770007	2750.0	n/a	962	71	2750	851.5442823	stim	stop-signal	717	1921435	0.0-27.16-1.16	beast_fmri_test	387	1919058,/,1919738,/,1920418,/,1921098,/,1921778,/	t,t,t,t,t	<img class = center src='/static/experiments/beast_fmri_test/images/P.png'></img>	89,71	2750.0	test	<img class = center src='/static/experiments/beast_fmri_test/images/redP.png'></img>	go	2300.0	3.0	16.0	go	target	P	89,Middle Finger	71,Index Finger	450.0	600.0	2300.0	2150.0	0.0	n/a	450.0	0.0	go_stim
289165.45571770007	851.5442823	n/a	962	71	2750	851.5442823	stim	stop-signal	717	1921435	0.0-27.16-1.16	beast_fmri_test	387	1919058,/,1919738,/,1920418,/,1921098,/,1921778,/	t,t,t,t,t	<img class = center src='/static/experiments/beast_fmri_test/images/P.png'></img>	89,71	2750.0	test	<img class = center src='/static/experiments/beast_fmri_test/images/redP.png'></img>	go	2300.0	3.0	16.0	go	target	P	89,Middle Finger	71,Index Finger	450.0	600.0	2300.0	2150.0	0.0	n/a	450.0	0.0	ITI
291390	500.0	n/a	-1	-1	500	0.0	fixation	poldrack-single-stim	718	1922808	0.0-27.17-0.17	beast_fmri_test	387	1922458,/	t	<div class = centerbox2><div class = fixation>+</div></div>	none	500.0	test	n/a	n/a	n/a	n/a	n/a	n/a	n/a	n/a	n/a	n/a	n/a	n/a	n/a	n/a	n/a	n/a	n/a	n/a	fixation
291052.5089108001	600.0	n/a	-1	-1	2750	339.4910892	stim	stop-signal	719	1925560	0.0-27.17-1.17	beast_fmri_test	387	1923139,/,1923818,/,1924498,/,1925178,/,1925858,/	t,t,t,t,t	<img class = center src='/static/experiments/beast_fmri_test/images/D.png'></img>	89,71	2750.0	test	<img class = center src='/static/experiments/beast_fmri_test/images/redD.png'></img>	stop	2150.0	3.0	17.0	stop	non-target	D	89,Middle Finger	71,Index Finger	450.0	600.0	2300.0	2150.0	0.0	1.0	600.0	n/a	go_stim
293202.5089108001	2150.0	n/a	-1	-1	2750	339.4910892	stim	stop-signal	719	1925560	0.0-27.17-1.17	beast_fmri_test	387	1923139,/,1923818,/,1924498,/,1925178,/,1925858,/	t,t,t,t,t	<img class = center src='/static/experiments/beast_fmri_test/images/D.png'></img>	89,71	2750.0	test	<img class = center src='/static/experiments/beast_fmri_test/images/redD.png'></img>	stop	2150.0	3.0	17.0	stop	non-target	D	89,Middle Finger	71,Index Finger	450.0	600.0	2300.0	2150.0	0.0	1.0	600.0	n/a	stop_stim
293802.5089108001	339.4910892	n/a	-1	-1	2750	339.4910892	stim	stop-signal	719	1925560	0.0-27.17-1.17	beast_fmri_test	387	1923139,/,1923818,/,1924498,/,1925178,/,1925858,/	t,t,t,t,t	<img class = center src='/static/experiments/beast_fmri_test/images/D.png'></img>	89,71	2750.0	test	<img class = center src='/static/experiments/beast_fmri_test/images/redD.png'></img>	stop	2150.0	3.0	17.0	stop	non-target	D	89,Middle Finger	71,Index Finger	450.0	600.0	2300.0	2150.0	0.0	1.0	600.0	n/a	ITI
295004	500.0	n/a	-1	-1	500	0.0	fixation	poldrack-single-stim	720	1926422	0.0-27.18-0.18	beast_fmri_test	387	n/a	n/a	<div class = centerbox2><div class = fixation>+</div></div>	none	500.0	test	n/a	n/a	n/a	n/a	n/a	n/a	n/a	n/a	n/a	n/a	n/a	n/a	n/a	n/a	n/a	n/a	n/a	n/a	fixation
294833.59813489998	2750.0	n/a	889	71	2750	172.4018651	stim	stop-signal	721	1929174	0.0-27.18-1.18	beast_fmri_test	387	1926538,/,1927218,/,1927898,/,1928578,/,1929258,/	t,t,t,t,t	<img class = center src='/static/experiments/beast_fmri_test/images/T.png'></img>	89,71	2750.0	test	<img class = center src='/static/experiments/beast_fmri_test/images/redT.png'></img>	go	2100.0	3.0	18.0	go	non-target	T	89,Middle Finger	71,Index Finger	450.0	650.0	2300.0	2100.0	1.0	n/a	650.0	1.0	go_stim
297583.59813489998	172.4018651	n/a	889	71	2750	172.4018651	stim	stop-signal	721	1929174	0.0-27.18-1.18	beast_fmri_test	387	1926538,/,1927218,/,1927898,/,1928578,/,1929258,/	t,t,t,t,t	<img class = center src='/static/experiments/beast_fmri_test/images/T.png'></img>	89,71	2750.0	test	<img class = center src='/static/experiments/beast_fmri_test/images/redT.png'></img>	go	2100.0	3.0	18.0	go	non-target	T	89,Middle Finger	71,Index Finger	450.0	650.0	2300.0	2100.0	1.0	n/a	650.0	1.0	ITI
298452	500.0	n/a	-1	-1	500	0.0	fixation	poldrack-single-stim	722	1929870	0.0-27.19-0.19	beast_fmri_test	387	n/a	n/a	<div class = centerbox2><div class = fixation>+</div></div>	none	500.0	test	n/a	n/a	n/a	n/a	n/a	n/a	n/a	n/a	n/a	n/a	n/a	n/a	n/a	n/a	n/a	n/a	n/a	n/a	fixation
298319.9919910999	2750.0	n/a	1556	71	2750	134.0080089	stim	stop-signal	723	1932622	0.0-27.19-1.19	beast_fmri_test	387	1929938,/,1930618,/,1931298,/,1931978,/,1932658,/	t,t,t,t,t	<img class = center src='/static/experiments/beast_fmri_test/images/B.png'></img>	89,71	2750.0	test	<img class = center src='/static/experiments/beast_fmri_test/images/redB.png'></img>	go	2100.0	3.0	19.0	go	non-target	B	89,Middle Finger	71,Index Finger	450.0	650.0	2300.0	2100.0	1.0	n/a	650.0	1.0	go_stim
301069.9919910999	134.0080089	n/a	1556	71	2750	134.0080089	stim	stop-signal	723	1932622	0.0-27.19-1.19	beast_fmri_test	387	1929938,/,1930618,/,1931298,/,1931978,/,1932658,/	t,t,t,t,t	<img class = center src='/static/experiments/beast_fmri_test/images/B.png'></img>	89,71	2750.0	test	<img class = center src='/static/experiments/beast_fmri_test/images/redB.png'></img>	go	2100.0	3.0	19.0	go	non-target	B	89,Middle Finger	71,Index Finger	450.0	650.0	2300.0	2100.0	1.0	n/a	650.0	1.0	ITI
301857	500.0	n/a	-1	-1	500	0.0	fixation	poldrack-single-stim	724	1933275	0.0-27.20-0.20	beast_fmri_test	387	n/a	n/a	<div class = centerbox2><div class = fixation>+</div></div>	none	500.0	test	n/a	n/a	n/a	n/a	n/a	n/a	n/a	n/a	n/a	n/a	n/a	n/a	n/a	n/a	n/a	n/a	n/a	n/a	fixation
299458.93828599993	2750.0	n/a	2122	71	2750	2400.061714	stim	stop-signal	725	1936027	0.0-27.20-1.20	beast_fmri_test	387	1933339,/,1934018,/,1934698,/,1935378,/,1936058,/,1936737,/,1937418,/,1938097,/	t,t,t,t,t,t,t,t	<img class = center src='/static/experiments/beast_fmri_test/images/T.png'></img>	89,71	2750.0	test	<img class = center src='/static/experiments/beast_fmri_test/images/redT.png'></img>	go	2100.0	3.0	20.0	go	non-target	T	89,Middle Finger	71,Index Finger	450.0	650.0	2300.0	2100.0	1.0	n/a	650.0	1.0	go_stim
302208.93828599993	2400.061714	n/a	2122	71	2750	2400.061714	stim	stop-signal	725	1936027	0.0-27.20-1.20	beast_fmri_test	387	1933339,/,1934018,/,1934698,/,1935378,/,1936058,/,1936737,/,1937418,/,1938097,/	t,t,t,t,t,t,t,t	<img class = center src='/static/experiments/beast_fmri_test/images/T.png'></img>	89,71	2750.0	test	<img class = center src='/static/experiments/beast_fmri_test/images/redT.png'></img>	go	2100.0	3.0	20.0	go	non-target	T	89,Middle Finger	71,Index Finger	450.0	650.0	2300.0	2100.0	1.0	n/a	650.0	1.0	ITI
307527	500.0	n/a	-1	-1	500	0.0	fixation	poldrack-single-stim	726	1938945	0.0-27.21-0.21	beast_fmri_test	387	1938778,/	t	<div class = centerbox2><div class = fixation>+</div></div>	none	500.0	test	n/a	n/a	n/a	n/a	n/a	n/a	n/a	n/a	n/a	n/a	n/a	n/a	n/a	n/a	n/a	n/a	n/a	n/a	fixation
306376.15702200006	2750.0	n/a	1210	71	2750	1152.842978	stim	stop-signal	727	1941697	0.0-27.21-1.21	beast_fmri_test	387	1939458,/,1940138,/,1940818,/,1941498,/,1942178,/	t,t,t,t,t	<img class = center src='/static/experiments/beast_fmri_test/images/V.png'></img>	89,71	2750.0	test	<img class = center src='/static/experiments/beast_fmri_test/images/redV.png'></img>	go	2100.0	3.0	21.0	go	non-target	V	89,Middle Finger	71,Index Finger	450.0	650.0	2300.0	2100.0	1.0	n/a	650.0	1.0	go_stim
309126.15702200006	1152.842978	n/a	1210	71	2750	1152.842978	stim	stop-signal	727	1941697	0.0-27.21-1.21	beast_fmri_test	387	1939458,/,1940138,/,1940818,/,1941498,/,1942178,/	t,t,t,t,t	<img class = center src='/static/experiments/beast_fmri_test/images/V.png'></img>	89,71	2750.0	test	<img class = center src='/static/experiments/beast_fmri_test/images/redV.png'></img>	go	2100.0	3.0	21.0	go	non-target	V	89,Middle Finger	71,Index Finger	450.0	650.0	2300.0	2100.0	1.0	n/a	650.0	1.0	ITI
311955	500.0	n/a	-1	-1	500	0.0	fixation	poldrack-single-stim	728	1943373	0.0-27.22-0.22	beast_fmri_test	387	1942872,/	t	<div class = centerbox2><div class = fixation>+</div></div>	none	500.0	test	n/a	n/a	n/a	n/a	n/a	n/a	n/a	n/a	n/a	n/a	n/a	n/a	n/a	n/a	n/a	n/a	n/a	n/a	fixation
309693.66385199991	2750.0	n/a	1538	71	2750	2263.336148	stim	stop-signal	729	1946125	0.0-27.22-1.22	beast_fmri_test	387	1943540,/,1944218,/,1944899,/,1945578,/,1946258,/,1946938,/,1947618,/,1948299,/	t,t,t,t,t,t,t,t	<img class = center src='/static/experiments/beast_fmri_test/images/P.png'></img>	89,71	2750.0	test	<img class = center src='/static/experiments/beast_fmri_test/images/redP.png'></img>	go	2100.0	3.0	22.0	go	non-target	P	89,Middle Finger	71,Index Finger	450.0	650.0	2300.0	2100.0	1.0	n/a	650.0	1.0	go_stim
312443.66385199991	2263.336148	n/a	1538	71	2750	2263.336148	stim	stop-signal	729	1946125	0.0-27.22-1.22	beast_fmri_test	387	1943540,/,1944218,/,1944899,/,1945578,/,1946258,/,1946938,/,1947618,/,1948299,/	t,t,t,t,t,t,t,t	<img class = center src='/static/experiments/beast_fmri_test/images/P.png'></img>	89,71	2750.0	test	<img class = center src='/static/experiments/beast_fmri_test/images/redP.png'></img>	go	2100.0	3.0	22.0	go	non-target	P	89,Middle Finger	71,Index Finger	450.0	650.0	2300.0	2100.0	1.0	n/a	650.0	1.0	ITI
