onset	duration	text	rt	key_press	block_duration	timing_post_trial	trial_id	trial_type	trial_index	time_elapsed	internal_node_id	exp_id	subject_id	trigger_times	triggers	stimulus	possible_responses	stim_duration	exp_stage	SS_stimulus	SS_trial_type	SS_duration	load	trial_num	stop_trial_type	adaptive_trial_type	stim	yes_response_key	no_response_key	SSD_target	SSD_non_target	SSTarget	SSNonTarget	go_acc	SS_delay	adaptive_acc	stop_acc	new_trial_type
test	10880	n/a	-1	-1	10880	0.0	practice-no-stop-feedback	poldrack-single-stim	200	626760	0.0-12.0	beast_fmri_test	330	615882,/,616562,/,617240,/,617919,/,618599,/,619280,/,619961,/,620640,/,621320,/,621998,/,622679,/,623359,/,624039,/,624720,/,625399,/,626077,/,626757,/	t,t,t,t,t,t,t,t,t,t,t,t,t,t,t,t,t	"<div class = ""centerbox""><p class = ""block-text"">Your delay is 2 trials.</p><p class = block-text>Please wait for the scanner to start the block</p></div>"	77	10880.0	n/a	n/a	n/a	n/a	n/a	n/a	n/a	n/a	n/a	n/a	n/a	n/a	n/a	n/a	n/a	n/a	n/a	n/a	n/a	start_functional_block
11380	500	n/a	-1	-1	500	0.0	fixation	poldrack-single-stim	201	627262	0.0-13.0-0.0	beast_fmri_test	330	n/a	n/a	<div class = centerbox2><div class = fixation>+</div></div>	none	500.0	test	n/a	n/a	n/a	n/a	n/a	n/a	n/a	n/a	n/a	n/a	n/a	n/a	n/a	n/a	n/a	n/a	n/a	n/a	fixation
11214.476860063034	2750	n/a	1248	89	2750	168.523139937	stim	stop-signal	202	630015	0.0-13.0-1.0	beast_fmri_test	330	627438,/,628116,/,628796,/,629476,/,630155,/	t,t,t,t,t	<img class = center src='/static/experiments/beast_fmri_test/images/V.png'></img>	71,89	2750.0	test	<img class = center src='/static/experiments/beast_fmri_test/images/redV.png'></img>	go	-1.0	2.0	0.0	go	temp-non-target	V	71,Index Finger	89,Middle Finger	0.0	0.0	2750.0	2750.0	0.0	n/a	n/a	n/a	go_stim
13964.476860063034	168.52313993696598	n/a	1248	89	2750	168.523139937	stim	stop-signal	202	630015	0.0-13.0-1.0	beast_fmri_test	330	627438,/,628116,/,628796,/,629476,/,630155,/	t,t,t,t,t	<img class = center src='/static/experiments/beast_fmri_test/images/V.png'></img>	71,89	2750.0	test	<img class = center src='/static/experiments/beast_fmri_test/images/redV.png'></img>	go	-1.0	2.0	0.0	go	temp-non-target	V	71,Index Finger	89,Middle Finger	0.0	0.0	2750.0	2750.0	0.0	n/a	n/a	n/a	ITI
14833	500	n/a	-1	-1	500	0.0	fixation	poldrack-single-stim	203	630715	0.0-13.1-0.1	beast_fmri_test	330	n/a	n/a	<div class = centerbox2><div class = fixation>+</div></div>	none	500.0	test	n/a	n/a	n/a	n/a	n/a	n/a	n/a	n/a	n/a	n/a	n/a	n/a	n/a	n/a	n/a	n/a	n/a	n/a	fixation
14504.533255976508	temp_go_duration	n/a	500	89	2750	330.466744023	stim	stop-signal	204	633467	0.0-13.1-1.1	beast_fmri_test	330	630835,/,631514,/,632195,/,632873,/,633554,/	t,t,t,t,t	<img class = center src='/static/experiments/beast_fmri_test/images/D.png'></img>	71,89	2750.0	test	<img class = center src='/static/experiments/beast_fmri_test/images/redD.png'></img>	stop	-1.0	2.0	1.0	stop	temp-non-target	D	71,Index Finger	89,Middle Finger	0.0	0.0	2750.0	2750.0	0.0	n/a	n/a	0.0	go_stim
temp-non-target	temp_stop_duration	n/a	500	89	2750	330.466744023	stim	stop-signal	204	633467	0.0-13.1-1.1	beast_fmri_test	330	630835,/,631514,/,632195,/,632873,/,633554,/	t,t,t,t,t	<img class = center src='/static/experiments/beast_fmri_test/images/D.png'></img>	71,89	2750.0	test	<img class = center src='/static/experiments/beast_fmri_test/images/redD.png'></img>	stop	-1.0	2.0	1.0	stop	temp-non-target	D	71,Index Finger	89,Middle Finger	0.0	0.0	2750.0	2750.0	0.0	n/a	n/a	0.0	stop_stim
17254.533255976508	330.46674402343672	n/a	500	89	2750	330.466744023	stim	stop-signal	204	633467	0.0-13.1-1.1	beast_fmri_test	330	630835,/,631514,/,632195,/,632873,/,633554,/	t,t,t,t,t	<img class = center src='/static/experiments/beast_fmri_test/images/D.png'></img>	71,89	2750.0	test	<img class = center src='/static/experiments/beast_fmri_test/images/redD.png'></img>	stop	-1.0	2.0	1.0	stop	temp-non-target	D	71,Index Finger	89,Middle Finger	0.0	0.0	2750.0	2750.0	0.0	n/a	n/a	0.0	ITI
18444	500	n/a	-1	-1	500	0.0	fixation	poldrack-single-stim	205	634326	0.0-13.2-0.2	beast_fmri_test	330	634233,/	t	<div class = centerbox2><div class = fixation>+</div></div>	none	500.0	test	n/a	n/a	n/a	n/a	n/a	n/a	n/a	n/a	n/a	n/a	n/a	n/a	n/a	n/a	n/a	n/a	n/a	n/a	fixation
17252.829247700982	2750	n/a	487	89	2750	1192.1707523	stim	stop-signal	206	637077	0.0-13.2-1.2	beast_fmri_test	330	634914,/,635594,/,636273,/,636952,/,637633,/	t,t,t,t,t	<img class = center src='/static/experiments/beast_fmri_test/images/B.png'></img>	71,89	2750.0	test	<img class = center src='/static/experiments/beast_fmri_test/images/redB.png'></img>	go	2750.0	2.0	2.0	go	non-target	B	71,Index Finger	89,Middle Finger	0.0	0.0	2750.0	2750.0	1.0	0.0	1.0	n/a	go_stim
20002.829247700982	1192.170752299055	n/a	487	89	2750	1192.1707523	stim	stop-signal	206	637077	0.0-13.2-1.2	beast_fmri_test	330	634914,/,635594,/,636273,/,636952,/,637633,/	t,t,t,t,t	<img class = center src='/static/experiments/beast_fmri_test/images/B.png'></img>	71,89	2750.0	test	<img class = center src='/static/experiments/beast_fmri_test/images/redB.png'></img>	go	2750.0	2.0	2.0	go	non-target	B	71,Index Finger	89,Middle Finger	0.0	0.0	2750.0	2750.0	1.0	0.0	1.0	n/a	ITI
22918	500	n/a	-1	-1	500	0.0	fixation	poldrack-single-stim	207	638800	0.0-13.3-0.3	beast_fmri_test	330	638313,/	t	<div class = centerbox2><div class = fixation>+</div></div>	none	500.0	test	n/a	n/a	n/a	n/a	n/a	n/a	n/a	n/a	n/a	n/a	n/a	n/a	n/a	n/a	n/a	n/a	n/a	n/a	fixation
21427.934002427966	2750	n/a	801	71	2750	1491.06599757	stim	stop-signal	208	641551	0.0-13.3-1.3	beast_fmri_test	330	638991,/,639671,/,640350,/,641030,/,641709,/,642389,/	t,t,t,t,t,t	<img class = center src='/static/experiments/beast_fmri_test/images/D.png'></img>	71,89	2750.0	test	<img class = center src='/static/experiments/beast_fmri_test/images/redD.png'></img>	go	2750.0	2.0	3.0	go	target	D	71,Index Finger	89,Middle Finger	0.0	0.0	2750.0	2750.0	1.0	0.0	1.0	n/a	go_stim
24177.934002427966	1491.0659975719766	n/a	801	71	2750	1491.06599757	stim	stop-signal	208	641551	0.0-13.3-1.3	beast_fmri_test	330	638991,/,639671,/,640350,/,641030,/,641709,/,642389,/	t,t,t,t,t,t	<img class = center src='/static/experiments/beast_fmri_test/images/D.png'></img>	71,89	2750.0	test	<img class = center src='/static/experiments/beast_fmri_test/images/redD.png'></img>	go	2750.0	2.0	3.0	go	target	D	71,Index Finger	89,Middle Finger	0.0	0.0	2750.0	2750.0	1.0	0.0	1.0	n/a	ITI
27688	500	n/a	-1	-1	500	0.0	fixation	poldrack-single-stim	209	643570	0.0-13.4-0.4	beast_fmri_test	330	643069,/	t	<div class = centerbox2><div class = fixation>+</div></div>	none	500.0	test	n/a	n/a	n/a	n/a	n/a	n/a	n/a	n/a	n/a	n/a	n/a	n/a	n/a	n/a	n/a	n/a	n/a	n/a	fixation
25686.752541017253	2750	n/a	493	89	2750	2002.24745898	stim	stop-signal	210	646321	0.0-13.4-1.4	beast_fmri_test	330	643750,/,644429,/,645108,/,645787,/,646467,/,647148,/,647827,/	t,t,t,t,t,t,t	<img class = center src='/static/experiments/beast_fmri_test/images/V.png'></img>	71,89	2750.0	test	<img class = center src='/static/experiments/beast_fmri_test/images/redV.png'></img>	go	2750.0	2.0	4.0	go	non-target	V	71,Index Finger	89,Middle Finger	0.0	0.0	2750.0	2750.0	1.0	0.0	1.0	n/a	go_stim
28436.752541017253	2002.2474589827032	n/a	493	89	2750	2002.24745898	stim	stop-signal	210	646321	0.0-13.4-1.4	beast_fmri_test	330	643750,/,644429,/,645108,/,645787,/,646467,/,647148,/,647827,/	t,t,t,t,t,t,t	<img class = center src='/static/experiments/beast_fmri_test/images/V.png'></img>	71,89	2750.0	test	<img class = center src='/static/experiments/beast_fmri_test/images/redV.png'></img>	go	2750.0	2.0	4.0	go	non-target	V	71,Index Finger	89,Middle Finger	0.0	0.0	2750.0	2750.0	1.0	0.0	1.0	n/a	ITI
32970	500	n/a	-1	-1	500	0.0	fixation	poldrack-single-stim	211	648852	0.0-13.5-0.5	beast_fmri_test	330	648507,/	t	<div class = centerbox2><div class = fixation>+</div></div>	none	500.0	test	n/a	n/a	n/a	n/a	n/a	n/a	n/a	n/a	n/a	n/a	n/a	n/a	n/a	n/a	n/a	n/a	n/a	n/a	fixation
31220.158627591911	2750	n/a	600	89	2750	1752.84137241	stim	stop-signal	212	651605	0.0-13.5-1.5	beast_fmri_test	330	649186,/,649865,/,650546,/,651225,/,651904,/,652586,/,653266,/	t,t,t,t,t,t,t	<img class = center src='/static/experiments/beast_fmri_test/images/P.png'></img>	71,89	2750.0	test	<img class = center src='/static/experiments/beast_fmri_test/images/redP.png'></img>	go	2750.0	2.0	5.0	go	non-target	P	71,Index Finger	89,Middle Finger	0.0	0.0	2750.0	2750.0	1.0	0.0	1.0	n/a	go_stim
33970.158627591911	1752.8413724081058	n/a	600	89	2750	1752.84137241	stim	stop-signal	212	651605	0.0-13.5-1.5	beast_fmri_test	330	649186,/,649865,/,650546,/,651225,/,651904,/,652586,/,653266,/	t,t,t,t,t,t,t	<img class = center src='/static/experiments/beast_fmri_test/images/P.png'></img>	71,89	2750.0	test	<img class = center src='/static/experiments/beast_fmri_test/images/redP.png'></img>	go	2750.0	2.0	5.0	go	non-target	P	71,Index Finger	89,Middle Finger	0.0	0.0	2750.0	2750.0	1.0	0.0	1.0	n/a	ITI
38003	500	n/a	-1	-1	500	0.0	fixation	poldrack-single-stim	213	653885	0.0-13.6-0.6	beast_fmri_test	330	n/a	n/a	<div class = centerbox2><div class = fixation>+</div></div>	none	500.0	test	n/a	n/a	n/a	n/a	n/a	n/a	n/a	n/a	n/a	n/a	n/a	n/a	n/a	n/a	n/a	n/a	n/a	n/a	fixation
36999.202597548603	0.0	n/a	580	71	2750	1005.79740245	stim	stop-signal	214	656637	0.0-13.6-1.6	beast_fmri_test	330	653956,/,654624,/,655303,/,655982,/,656662,/,657343,/	t,t,t,t,t,t	<img class = center src='/static/experiments/beast_fmri_test/images/V.png'></img>	71,89	2750.0	test	<img class = center src='/static/experiments/beast_fmri_test/images/redV.png'></img>	stop	2750.0	2.0	6.0	stop	target	V	71,Index Finger	89,Middle Finger	0.0	0.0	2750.0	2750.0	0.0	0.0	n/a	0.0	go_stim
39749.202597548603	2750.0	n/a	580	71	2750	1005.79740245	stim	stop-signal	214	656637	0.0-13.6-1.6	beast_fmri_test	330	653956,/,654624,/,655303,/,655982,/,656662,/,657343,/	t,t,t,t,t,t	<img class = center src='/static/experiments/beast_fmri_test/images/V.png'></img>	71,89	2750.0	test	<img class = center src='/static/experiments/beast_fmri_test/images/redV.png'></img>	stop	2750.0	2.0	6.0	stop	target	V	71,Index Finger	89,Middle Finger	0.0	0.0	2750.0	2750.0	0.0	0.0	n/a	0.0	stop_stim
39749.202597548603	1005.7974024513803	n/a	580	71	2750	1005.79740245	stim	stop-signal	214	656637	0.0-13.6-1.6	beast_fmri_test	330	653956,/,654624,/,655303,/,655982,/,656662,/,657343,/	t,t,t,t,t,t	<img class = center src='/static/experiments/beast_fmri_test/images/V.png'></img>	71,89	2750.0	test	<img class = center src='/static/experiments/beast_fmri_test/images/redV.png'></img>	stop	2750.0	2.0	6.0	stop	target	V	71,Index Finger	89,Middle Finger	0.0	0.0	2750.0	2750.0	0.0	0.0	n/a	0.0	ITI
42289	500	n/a	-1	-1	500	0.0	fixation	poldrack-single-stim	215	658171	0.0-13.7-0.7	beast_fmri_test	330	658022,/	t	<div class = centerbox2><div class = fixation>+</div></div>	none	500.0	test	n/a	n/a	n/a	n/a	n/a	n/a	n/a	n/a	n/a	n/a	n/a	n/a	n/a	n/a	n/a	n/a	n/a	n/a	fixation
40378.967457401333	2750	n/a	421	89	2750	1911.0325426	stim	stop-signal	216	660922	0.0-13.7-1.7	beast_fmri_test	330	658702,/,659382,/,660062,/,660742,/,661421,/,662100,/,662781,/	t,t,t,t,t,t,t	<img class = center src='/static/experiments/beast_fmri_test/images/B.png'></img>	71,89	2750.0	test	<img class = center src='/static/experiments/beast_fmri_test/images/redB.png'></img>	go	2750.0	2.0	7.0	go	non-target	B	71,Index Finger	89,Middle Finger	0.0	0.0	2750.0	2750.0	1.0	0.0	1.0	n/a	go_stim
43128.967457401333	1911.032542598705	n/a	421	89	2750	1911.0325426	stim	stop-signal	216	660922	0.0-13.7-1.7	beast_fmri_test	330	658702,/,659382,/,660062,/,660742,/,661421,/,662100,/,662781,/	t,t,t,t,t,t,t	<img class = center src='/static/experiments/beast_fmri_test/images/B.png'></img>	71,89	2750.0	test	<img class = center src='/static/experiments/beast_fmri_test/images/redB.png'></img>	go	2750.0	2.0	7.0	go	non-target	B	71,Index Finger	89,Middle Finger	0.0	0.0	2750.0	2750.0	1.0	0.0	1.0	n/a	ITI
47484	500	n/a	-1	-1	500	0.0	fixation	poldrack-single-stim	217	663366	0.0-13.8-0.8	beast_fmri_test	330	n/a	n/a	<div class = centerbox2><div class = fixation>+</div></div>	none	500.0	test	n/a	n/a	n/a	n/a	n/a	n/a	n/a	n/a	n/a	n/a	n/a	n/a	n/a	n/a	n/a	n/a	n/a	n/a	fixation
44627.472673395416	2750	n/a	455	71	2750	2858.5273266	stim	stop-signal	218	666118	0.0-13.8-1.8	beast_fmri_test	330	663460,/,664139,/,664819,/,665498,/,666178,/,666858,/,667538,/,668217,/,668896,/	t,t,t,t,t,t,t,t,t	<img class = center src='/static/experiments/beast_fmri_test/images/V.png'></img>	71,89	2750.0	test	<img class = center src='/static/experiments/beast_fmri_test/images/redV.png'></img>	go	2750.0	2.0	8.0	go	target	V	71,Index Finger	89,Middle Finger	0.0	0.0	2750.0	2750.0	1.0	0.0	1.0	n/a	go_stim
47377.472673395416	2858.5273266045274	n/a	455	71	2750	2858.5273266	stim	stop-signal	218	666118	0.0-13.8-1.8	beast_fmri_test	330	663460,/,664139,/,664819,/,665498,/,666178,/,666858,/,667538,/,668217,/,668896,/	t,t,t,t,t,t,t,t,t	<img class = center src='/static/experiments/beast_fmri_test/images/V.png'></img>	71,89	2750.0	test	<img class = center src='/static/experiments/beast_fmri_test/images/redV.png'></img>	go	2750.0	2.0	8.0	go	target	V	71,Index Finger	89,Middle Finger	0.0	0.0	2750.0	2750.0	1.0	0.0	1.0	n/a	ITI
53624	500	n/a	-1	-1	500	0.0	fixation	poldrack-single-stim	219	669506	0.0-13.9-0.9	beast_fmri_test	330	n/a	n/a	<div class = centerbox2><div class = fixation>+</div></div>	none	500.0	test	n/a	n/a	n/a	n/a	n/a	n/a	n/a	n/a	n/a	n/a	n/a	n/a	n/a	n/a	n/a	n/a	n/a	n/a	fixation
53548.670180595713	2750	n/a	695	71	2750	76.3298194043	stim	stop-signal	220	672257	0.0-13.9-1.9	beast_fmri_test	330	669578,/,670256,/,670936,/,671616,/,672295,/	t,t,t,t,t	<img class = center src='/static/experiments/beast_fmri_test/images/B.png'></img>	71,89	2750.0	test	<img class = center src='/static/experiments/beast_fmri_test/images/redB.png'></img>	go	2750.0	2.0	9.0	go	target	B	71,Index Finger	89,Middle Finger	0.0	0.0	2750.0	2750.0	1.0	0.0	1.0	n/a	go_stim
56298.670180595713	76.329819404312261	n/a	695	71	2750	76.3298194043	stim	stop-signal	220	672257	0.0-13.9-1.9	beast_fmri_test	330	669578,/,670256,/,670936,/,671616,/,672295,/	t,t,t,t,t	<img class = center src='/static/experiments/beast_fmri_test/images/B.png'></img>	71,89	2750.0	test	<img class = center src='/static/experiments/beast_fmri_test/images/redB.png'></img>	go	2750.0	2.0	9.0	go	target	B	71,Index Finger	89,Middle Finger	0.0	0.0	2750.0	2750.0	1.0	0.0	1.0	n/a	ITI
56982	500	n/a	-1	-1	500	0.0	fixation	poldrack-single-stim	221	672864	0.0-13.10-0.10	beast_fmri_test	330	n/a	n/a	<div class = centerbox2><div class = fixation>+</div></div>	none	500.0	test	n/a	n/a	n/a	n/a	n/a	n/a	n/a	n/a	n/a	n/a	n/a	n/a	n/a	n/a	n/a	n/a	n/a	n/a	fixation
56126.537185003515	0.0	n/a	625	89	2750	857.462814996	stim	stop-signal	222	675616	0.0-13.10-1.10	beast_fmri_test	330	672975,/,673654,/,674335,/,675013,/,675693,/,676374,/	t,t,t,t,t,t	<img class = center src='/static/experiments/beast_fmri_test/images/T.png'></img>	71,89	2750.0	test	<img class = center src='/static/experiments/beast_fmri_test/images/redT.png'></img>	stop	2750.0	2.0	10.0	stop	non-target	T	71,Index Finger	89,Middle Finger	0.0	0.0	2750.0	2750.0	0.0	0.0	n/a	0.0	go_stim
58876.537185003515	2750.0	n/a	625	89	2750	857.462814996	stim	stop-signal	222	675616	0.0-13.10-1.10	beast_fmri_test	330	672975,/,673654,/,674335,/,675013,/,675693,/,676374,/	t,t,t,t,t,t	<img class = center src='/static/experiments/beast_fmri_test/images/T.png'></img>	71,89	2750.0	test	<img class = center src='/static/experiments/beast_fmri_test/images/redT.png'></img>	stop	2750.0	2.0	10.0	stop	non-target	T	71,Index Finger	89,Middle Finger	0.0	0.0	2750.0	2750.0	0.0	0.0	n/a	0.0	stop_stim
58876.537185003515	857.46281499643328	n/a	625	89	2750	857.462814996	stim	stop-signal	222	675616	0.0-13.10-1.10	beast_fmri_test	330	672975,/,673654,/,674335,/,675013,/,675693,/,676374,/	t,t,t,t,t,t	<img class = center src='/static/experiments/beast_fmri_test/images/T.png'></img>	71,89	2750.0	test	<img class = center src='/static/experiments/beast_fmri_test/images/redT.png'></img>	stop	2750.0	2.0	10.0	stop	non-target	T	71,Index Finger	89,Middle Finger	0.0	0.0	2750.0	2750.0	0.0	0.0	n/a	0.0	ITI
61121	500	n/a	-1	-1	500	0.0	fixation	poldrack-single-stim	223	677003	0.0-13.11-0.11	beast_fmri_test	330	n/a	n/a	<div class = centerbox2><div class = fixation>+</div></div>	none	500.0	test	n/a	n/a	n/a	n/a	n/a	n/a	n/a	n/a	n/a	n/a	n/a	n/a	n/a	n/a	n/a	n/a	n/a	n/a	fixation
61110.195837095613	0.0	n/a	433	89	2750	14.8041629044	stim	stop-signal	224	679757	0.0-13.11-1.11	beast_fmri_test	330	677055,/,677733,/,678412,/,679093,/,679772,/	t,t,t,t,t	<img class = center src='/static/experiments/beast_fmri_test/images/T.png'></img>	71,89	2750.0	test	<img class = center src='/static/experiments/beast_fmri_test/images/redT.png'></img>	stop	2750.0	2.0	11.0	stop	non-target	T	71,Index Finger	89,Middle Finger	0.0	0.0	2750.0	2750.0	0.0	0.0	n/a	0.0	go_stim
63860.195837095613	2750.0	n/a	433	89	2750	14.8041629044	stim	stop-signal	224	679757	0.0-13.11-1.11	beast_fmri_test	330	677055,/,677733,/,678412,/,679093,/,679772,/	t,t,t,t,t	<img class = center src='/static/experiments/beast_fmri_test/images/T.png'></img>	71,89	2750.0	test	<img class = center src='/static/experiments/beast_fmri_test/images/redT.png'></img>	stop	2750.0	2.0	11.0	stop	non-target	T	71,Index Finger	89,Middle Finger	0.0	0.0	2750.0	2750.0	0.0	0.0	n/a	0.0	stop_stim
63860.195837095613	14.804162904430992	n/a	433	89	2750	14.8041629044	stim	stop-signal	224	679757	0.0-13.11-1.11	beast_fmri_test	330	677055,/,677733,/,678412,/,679093,/,679772,/	t,t,t,t,t	<img class = center src='/static/experiments/beast_fmri_test/images/T.png'></img>	71,89	2750.0	test	<img class = center src='/static/experiments/beast_fmri_test/images/redT.png'></img>	stop	2750.0	2.0	11.0	stop	non-target	T	71,Index Finger	89,Middle Finger	0.0	0.0	2750.0	2750.0	0.0	0.0	n/a	0.0	ITI
64420	500	n/a	-1	-1	500	0.0	fixation	poldrack-single-stim	225	680302	0.0-13.12-0.12	beast_fmri_test	330	n/a	n/a	<div class = centerbox2><div class = fixation>+</div></div>	none	500.0	test	n/a	n/a	n/a	n/a	n/a	n/a	n/a	n/a	n/a	n/a	n/a	n/a	n/a	n/a	n/a	n/a	n/a	n/a	fixation
63960.728595819674	2750	n/a	667	89	2750	462.27140418	stim	stop-signal	226	683055	0.0-13.12-1.12	beast_fmri_test	330	680455,/,681132,/,681813,/,682492,/,683172,/	t,t,t,t,t	<img class = center src='/static/experiments/beast_fmri_test/images/V.png'></img>	71,89	2750.0	test	<img class = center src='/static/experiments/beast_fmri_test/images/redV.png'></img>	go	2750.0	2.0	12.0	go	non-target	V	71,Index Finger	89,Middle Finger	0.0	0.0	2750.0	2750.0	1.0	0.0	1.0	n/a	go_stim
66710.728595819674	462.27140418030115	n/a	667	89	2750	462.27140418	stim	stop-signal	226	683055	0.0-13.12-1.12	beast_fmri_test	330	680455,/,681132,/,681813,/,682492,/,683172,/	t,t,t,t,t	<img class = center src='/static/experiments/beast_fmri_test/images/V.png'></img>	71,89	2750.0	test	<img class = center src='/static/experiments/beast_fmri_test/images/redV.png'></img>	go	2750.0	2.0	12.0	go	non-target	V	71,Index Finger	89,Middle Finger	0.0	0.0	2750.0	2750.0	1.0	0.0	1.0	n/a	ITI
68166	500	n/a	-1	-1	500	0.0	fixation	poldrack-single-stim	227	684048	0.0-13.13-0.13	beast_fmri_test	330	683852,/	t	<div class = centerbox2><div class = fixation>+</div></div>	none	500.0	test	n/a	n/a	n/a	n/a	n/a	n/a	n/a	n/a	n/a	n/a	n/a	n/a	n/a	n/a	n/a	n/a	n/a	n/a	fixation
65335.981649359223	0.0	n/a	511	89	2750	2833.01835064	stim	stop-signal	228	686801	0.0-13.13-1.13	beast_fmri_test	330	684531,/,685211,/,685891,/,686570,/,687249,/,687928,/,688609,/,689288,/	t,t,t,t,t,t,t,t	<img class = center src='/static/experiments/beast_fmri_test/images/D.png'></img>	71,89	2750.0	test	<img class = center src='/static/experiments/beast_fmri_test/images/redD.png'></img>	stop	2750.0	2.0	13.0	stop	non-target	D	71,Index Finger	89,Middle Finger	0.0	0.0	2750.0	2750.0	0.0	0.0	n/a	0.0	go_stim
68085.981649359223	2750.0	n/a	511	89	2750	2833.01835064	stim	stop-signal	228	686801	0.0-13.13-1.13	beast_fmri_test	330	684531,/,685211,/,685891,/,686570,/,687249,/,687928,/,688609,/,689288,/	t,t,t,t,t,t,t,t	<img class = center src='/static/experiments/beast_fmri_test/images/D.png'></img>	71,89	2750.0	test	<img class = center src='/static/experiments/beast_fmri_test/images/redD.png'></img>	stop	2750.0	2.0	13.0	stop	non-target	D	71,Index Finger	89,Middle Finger	0.0	0.0	2750.0	2750.0	0.0	0.0	n/a	0.0	stop_stim
68085.981649359223	2833.0183506408007	n/a	511	89	2750	2833.01835064	stim	stop-signal	228	686801	0.0-13.13-1.13	beast_fmri_test	330	684531,/,685211,/,685891,/,686570,/,687249,/,687928,/,688609,/,689288,/	t,t,t,t,t,t,t,t	<img class = center src='/static/experiments/beast_fmri_test/images/D.png'></img>	71,89	2750.0	test	<img class = center src='/static/experiments/beast_fmri_test/images/redD.png'></img>	stop	2750.0	2.0	13.0	stop	non-target	D	71,Index Finger	89,Middle Finger	0.0	0.0	2750.0	2750.0	0.0	0.0	n/a	0.0	ITI
74284	500	n/a	-1	-1	500	0.0	fixation	poldrack-single-stim	229	690166	0.0-13.14-0.14	beast_fmri_test	330	689968,/	t	<div class = centerbox2><div class = fixation>+</div></div>	none	500.0	test	n/a	n/a	n/a	n/a	n/a	n/a	n/a	n/a	n/a	n/a	n/a	n/a	n/a	n/a	n/a	n/a	n/a	n/a	fixation
72448.875842435751	2750	n/a	439	71	2750	1836.12415756	stim	stop-signal	230	692917	0.0-13.14-1.14	beast_fmri_test	330	690648,/,691328,/,692006,/,692687,/,693368,/,694047,/,694726,/	t,t,t,t,t,t,t	<img class = center src='/static/experiments/beast_fmri_test/images/T.png'></img>	71,89	2750.0	test	<img class = center src='/static/experiments/beast_fmri_test/images/redT.png'></img>	go	2750.0	2.0	14.0	go	non-target	T	71,Index Finger	89,Middle Finger	0.0	0.0	2750.0	2750.0	0.0	0.0	0.0	n/a	go_stim
75198.875842435751	1836.1241575642264	n/a	439	71	2750	1836.12415756	stim	stop-signal	230	692917	0.0-13.14-1.14	beast_fmri_test	330	690648,/,691328,/,692006,/,692687,/,693368,/,694047,/,694726,/	t,t,t,t,t,t,t	<img class = center src='/static/experiments/beast_fmri_test/images/T.png'></img>	71,89	2750.0	test	<img class = center src='/static/experiments/beast_fmri_test/images/redT.png'></img>	go	2750.0	2.0	14.0	go	non-target	T	71,Index Finger	89,Middle Finger	0.0	0.0	2750.0	2750.0	0.0	0.0	0.0	n/a	ITI
79402	500	n/a	-1	-1	500	0.0	fixation	poldrack-single-stim	231	695284	0.0-13.15-0.15	beast_fmri_test	330	n/a	n/a	<div class = centerbox2><div class = fixation>+</div></div>	none	500.0	test	n/a	n/a	n/a	n/a	n/a	n/a	n/a	n/a	n/a	n/a	n/a	n/a	n/a	n/a	n/a	n/a	n/a	n/a	fixation
78041.600143432268	0.0	n/a	526	89	2750	1362.39985657	stim	stop-signal	232	698036	0.0-13.15-1.15	beast_fmri_test	330	695406,/,696085,/,696764,/,697444,/,698124,/,698803,/	t,t,t,t,t,t	<img class = center src='/static/experiments/beast_fmri_test/images/P.png'></img>	71,89	2750.0	test	<img class = center src='/static/experiments/beast_fmri_test/images/redP.png'></img>	stop	2750.0	2.0	15.0	stop	non-target	P	71,Index Finger	89,Middle Finger	0.0	0.0	2750.0	2750.0	0.0	0.0	n/a	0.0	go_stim
80791.600143432268	2750.0	n/a	526	89	2750	1362.39985657	stim	stop-signal	232	698036	0.0-13.15-1.15	beast_fmri_test	330	695406,/,696085,/,696764,/,697444,/,698124,/,698803,/	t,t,t,t,t,t	<img class = center src='/static/experiments/beast_fmri_test/images/P.png'></img>	71,89	2750.0	test	<img class = center src='/static/experiments/beast_fmri_test/images/redP.png'></img>	stop	2750.0	2.0	15.0	stop	non-target	P	71,Index Finger	89,Middle Finger	0.0	0.0	2750.0	2750.0	0.0	0.0	n/a	0.0	stop_stim
80791.600143432268	1362.3998565677548	n/a	526	89	2750	1362.39985657	stim	stop-signal	232	698036	0.0-13.15-1.15	beast_fmri_test	330	695406,/,696085,/,696764,/,697444,/,698124,/,698803,/	t,t,t,t,t,t	<img class = center src='/static/experiments/beast_fmri_test/images/P.png'></img>	71,89	2750.0	test	<img class = center src='/static/experiments/beast_fmri_test/images/redP.png'></img>	stop	2750.0	2.0	15.0	stop	non-target	P	71,Index Finger	89,Middle Finger	0.0	0.0	2750.0	2750.0	0.0	0.0	n/a	0.0	ITI
84046	500	n/a	-1	-1	500	0.0	fixation	poldrack-single-stim	233	699928	0.0-13.16-0.16	beast_fmri_test	330	699483,/	t	<div class = centerbox2><div class = fixation>+</div></div>	none	500.0	test	n/a	n/a	n/a	n/a	n/a	n/a	n/a	n/a	n/a	n/a	n/a	n/a	n/a	n/a	n/a	n/a	n/a	n/a	fixation
83575.538862742833	0.0	n/a	1742	89	2750	473.461137257	stim	stop-signal	234	702681	0.0-13.16-1.16	beast_fmri_test	330	700164,/,700844,/,701522,/,702201,/,702881,/	t,t,t,t,t	<img class = center src='/static/experiments/beast_fmri_test/images/T.png'></img>	71,89	2750.0	test	<img class = center src='/static/experiments/beast_fmri_test/images/redT.png'></img>	stop	2750.0	2.0	16.0	stop	target	T	71,Index Finger	89,Middle Finger	0.0	0.0	2750.0	2750.0	0.0	0.0	n/a	0.0	go_stim
86325.538862742833	2750.0	n/a	1742	89	2750	473.461137257	stim	stop-signal	234	702681	0.0-13.16-1.16	beast_fmri_test	330	700164,/,700844,/,701522,/,702201,/,702881,/	t,t,t,t,t	<img class = center src='/static/experiments/beast_fmri_test/images/T.png'></img>	71,89	2750.0	test	<img class = center src='/static/experiments/beast_fmri_test/images/redT.png'></img>	stop	2750.0	2.0	16.0	stop	target	T	71,Index Finger	89,Middle Finger	0.0	0.0	2750.0	2750.0	0.0	0.0	n/a	0.0	stop_stim
86325.538862742833	473.46113725720221	n/a	1742	89	2750	473.461137257	stim	stop-signal	234	702681	0.0-13.16-1.16	beast_fmri_test	330	700164,/,700844,/,701522,/,702201,/,702881,/	t,t,t,t,t	<img class = center src='/static/experiments/beast_fmri_test/images/T.png'></img>	71,89	2750.0	test	<img class = center src='/static/experiments/beast_fmri_test/images/redT.png'></img>	stop	2750.0	2.0	16.0	stop	target	T	71,Index Finger	89,Middle Finger	0.0	0.0	2750.0	2750.0	0.0	0.0	n/a	0.0	ITI
87805	500	n/a	-1	-1	500	0.0	fixation	poldrack-single-stim	235	703687	0.0-13.17-0.17	beast_fmri_test	330	703563,/	t	<div class = centerbox2><div class = fixation>+</div></div>	none	500.0	test	n/a	n/a	n/a	n/a	n/a	n/a	n/a	n/a	n/a	n/a	n/a	n/a	n/a	n/a	n/a	n/a	n/a	n/a	fixation
86205.033696662169	0.0	n/a	602	89	2750	1601.96630334	stim	stop-signal	236	706439	0.0-13.17-1.17	beast_fmri_test	330	704242,/,704922,/,705601,/,706280,/,706959,/,707639,/	t,t,t,t,t,t	<img class = center src='/static/experiments/beast_fmri_test/images/T.png'></img>	71,89	2750.0	test	<img class = center src='/static/experiments/beast_fmri_test/images/redT.png'></img>	stop	2750.0	2.0	17.0	stop	non-target	T	71,Index Finger	89,Middle Finger	0.0	0.0	2750.0	2750.0	0.0	0.0	n/a	0.0	go_stim
88955.033696662169	2750.0	n/a	602	89	2750	1601.96630334	stim	stop-signal	236	706439	0.0-13.17-1.17	beast_fmri_test	330	704242,/,704922,/,705601,/,706280,/,706959,/,707639,/	t,t,t,t,t,t	<img class = center src='/static/experiments/beast_fmri_test/images/T.png'></img>	71,89	2750.0	test	<img class = center src='/static/experiments/beast_fmri_test/images/redT.png'></img>	stop	2750.0	2.0	17.0	stop	non-target	T	71,Index Finger	89,Middle Finger	0.0	0.0	2750.0	2750.0	0.0	0.0	n/a	0.0	stop_stim
88955.033696662169	1601.9663033378315	n/a	602	89	2750	1601.96630334	stim	stop-signal	236	706439	0.0-13.17-1.17	beast_fmri_test	330	704242,/,704922,/,705601,/,706280,/,706959,/,707639,/	t,t,t,t,t,t	<img class = center src='/static/experiments/beast_fmri_test/images/T.png'></img>	71,89	2750.0	test	<img class = center src='/static/experiments/beast_fmri_test/images/redT.png'></img>	stop	2750.0	2.0	17.0	stop	non-target	T	71,Index Finger	89,Middle Finger	0.0	0.0	2750.0	2750.0	0.0	0.0	n/a	0.0	ITI
92691	500	n/a	-1	-1	500	0.0	fixation	poldrack-single-stim	237	708573	0.0-13.18-0.18	beast_fmri_test	330	708318,/	t	<div class = centerbox2><div class = fixation>+</div></div>	none	500.0	test	n/a	n/a	n/a	n/a	n/a	n/a	n/a	n/a	n/a	n/a	n/a	n/a	n/a	n/a	n/a	n/a	n/a	n/a	fixation
91552.833717192174	2750	n/a	628	89	2750	1139.16628281	stim	stop-signal	238	711324	0.0-13.18-1.18	beast_fmri_test	330	709000,/,709680,/,710358,/,711038,/,711719,/,712398,/	t,t,t,t,t,t	<img class = center src='/static/experiments/beast_fmri_test/images/V.png'></img>	71,89	2750.0	test	<img class = center src='/static/experiments/beast_fmri_test/images/redV.png'></img>	go	2750.0	2.0	18.0	go	non-target	V	71,Index Finger	89,Middle Finger	0.0	0.0	2750.0	2750.0	1.0	0.0	1.0	n/a	go_stim
94302.833717192174	1139.1662828077824	n/a	628	89	2750	1139.16628281	stim	stop-signal	238	711324	0.0-13.18-1.18	beast_fmri_test	330	709000,/,709680,/,710358,/,711038,/,711719,/,712398,/	t,t,t,t,t,t	<img class = center src='/static/experiments/beast_fmri_test/images/V.png'></img>	71,89	2750.0	test	<img class = center src='/static/experiments/beast_fmri_test/images/redV.png'></img>	go	2750.0	2.0	18.0	go	non-target	V	71,Index Finger	89,Middle Finger	0.0	0.0	2750.0	2750.0	1.0	0.0	1.0	n/a	ITI
97113	500	n/a	-1	-1	500	0.0	fixation	poldrack-single-stim	239	712995	0.0-13.19-0.19	beast_fmri_test	330	n/a	n/a	<div class = centerbox2><div class = fixation>+</div></div>	none	500.0	test	n/a	n/a	n/a	n/a	n/a	n/a	n/a	n/a	n/a	n/a	n/a	n/a	n/a	n/a	n/a	n/a	n/a	n/a	fixation
95141.2948123276	0.0	n/a	1722	71	2750	1973.70518767	stim	stop-signal	240	715747	0.0-13.19-1.19	beast_fmri_test	330	713078,/,713758,/,714438,/,715116,/,715795,/,716475,/,717155,/	t,t,t,t,t,t,t	<img class = center src='/static/experiments/beast_fmri_test/images/T.png'></img>	71,89	2750.0	test	<img class = center src='/static/experiments/beast_fmri_test/images/redT.png'></img>	stop	2750.0	2.0	19.0	stop	target	T	71,Index Finger	89,Middle Finger	0.0	0.0	2750.0	2750.0	0.0	0.0	n/a	0.0	go_stim
97891.2948123276	2750.0	n/a	1722	71	2750	1973.70518767	stim	stop-signal	240	715747	0.0-13.19-1.19	beast_fmri_test	330	713078,/,713758,/,714438,/,715116,/,715795,/,716475,/,717155,/	t,t,t,t,t,t,t	<img class = center src='/static/experiments/beast_fmri_test/images/T.png'></img>	71,89	2750.0	test	<img class = center src='/static/experiments/beast_fmri_test/images/redT.png'></img>	stop	2750.0	2.0	19.0	stop	target	T	71,Index Finger	89,Middle Finger	0.0	0.0	2750.0	2750.0	0.0	0.0	n/a	0.0	stop_stim
97891.2948123276	1973.7051876723569	n/a	1722	71	2750	1973.70518767	stim	stop-signal	240	715747	0.0-13.19-1.19	beast_fmri_test	330	713078,/,713758,/,714438,/,715116,/,715795,/,716475,/,717155,/	t,t,t,t,t,t,t	<img class = center src='/static/experiments/beast_fmri_test/images/T.png'></img>	71,89	2750.0	test	<img class = center src='/static/experiments/beast_fmri_test/images/redT.png'></img>	stop	2750.0	2.0	19.0	stop	target	T	71,Index Finger	89,Middle Finger	0.0	0.0	2750.0	2750.0	0.0	0.0	n/a	0.0	ITI
102369	500	n/a	-1	-1	500	0.0	fixation	poldrack-single-stim	241	718251	0.0-13.20-0.20	beast_fmri_test	330	717836,/	t	<div class = centerbox2><div class = fixation>+</div></div>	none	500.0	test	n/a	n/a	n/a	n/a	n/a	n/a	n/a	n/a	n/a	n/a	n/a	n/a	n/a	n/a	n/a	n/a	n/a	n/a	fixation
101589.25529585371	2750	n/a	555	89	2750	782.744704146	stim	stop-signal	242	721004	0.0-13.20-1.20	beast_fmri_test	330	718515,/,719194,/,719874,/,720554,/,721233,/	t,t,t,t,t	<img class = center src='/static/experiments/beast_fmri_test/images/B.png'></img>	71,89	2750.0	test	<img class = center src='/static/experiments/beast_fmri_test/images/redB.png'></img>	go	2750.0	2.0	20.0	go	non-target	B	71,Index Finger	89,Middle Finger	0.0	0.0	2750.0	2750.0	1.0	0.0	1.0	n/a	go_stim
104339.25529585371	782.74470414633481	n/a	555	89	2750	782.744704146	stim	stop-signal	242	721004	0.0-13.20-1.20	beast_fmri_test	330	718515,/,719194,/,719874,/,720554,/,721233,/	t,t,t,t,t	<img class = center src='/static/experiments/beast_fmri_test/images/B.png'></img>	71,89	2750.0	test	<img class = center src='/static/experiments/beast_fmri_test/images/redB.png'></img>	go	2750.0	2.0	20.0	go	non-target	B	71,Index Finger	89,Middle Finger	0.0	0.0	2750.0	2750.0	1.0	0.0	1.0	n/a	ITI
106442	500	n/a	-1	-1	500	0.0	fixation	poldrack-single-stim	243	722324	0.0-13.21-0.21	beast_fmri_test	330	721912,/	t	<div class = centerbox2><div class = fixation>+</div></div>	none	500.0	test	n/a	n/a	n/a	n/a	n/a	n/a	n/a	n/a	n/a	n/a	n/a	n/a	n/a	n/a	n/a	n/a	n/a	n/a	fixation
104855.63595043251	0.0	n/a	430	71	2750	1587.36404957	stim	stop-signal	244	725075	0.0-13.21-1.21	beast_fmri_test	330	722593,/,723273,/,723952,/,724633,/,725310,/,725990,/	t,t,t,t,t,t	<img class = center src='/static/experiments/beast_fmri_test/images/T.png'></img>	71,89	2750.0	test	<img class = center src='/static/experiments/beast_fmri_test/images/redT.png'></img>	stop	2750.0	2.0	21.0	stop	target	T	71,Index Finger	89,Middle Finger	0.0	0.0	2750.0	2750.0	0.0	0.0	n/a	0.0	go_stim
107605.63595043251	2750.0	n/a	430	71	2750	1587.36404957	stim	stop-signal	244	725075	0.0-13.21-1.21	beast_fmri_test	330	722593,/,723273,/,723952,/,724633,/,725310,/,725990,/	t,t,t,t,t,t	<img class = center src='/static/experiments/beast_fmri_test/images/T.png'></img>	71,89	2750.0	test	<img class = center src='/static/experiments/beast_fmri_test/images/redT.png'></img>	stop	2750.0	2.0	21.0	stop	target	T	71,Index Finger	89,Middle Finger	0.0	0.0	2750.0	2750.0	0.0	0.0	n/a	0.0	stop_stim
107605.63595043251	1587.3640495675427	n/a	430	71	2750	1587.36404957	stim	stop-signal	244	725075	0.0-13.21-1.21	beast_fmri_test	330	722593,/,723273,/,723952,/,724633,/,725310,/,725990,/	t,t,t,t,t,t	<img class = center src='/static/experiments/beast_fmri_test/images/T.png'></img>	71,89	2750.0	test	<img class = center src='/static/experiments/beast_fmri_test/images/redT.png'></img>	stop	2750.0	2.0	21.0	stop	target	T	71,Index Finger	89,Middle Finger	0.0	0.0	2750.0	2750.0	0.0	0.0	n/a	0.0	ITI
111312	500	n/a	-1	-1	500	0.0	fixation	poldrack-single-stim	245	727194	0.0-13.22-0.22	beast_fmri_test	330	726693,/	t	<div class = centerbox2><div class = fixation>+</div></div>	none	500.0	test	n/a	n/a	n/a	n/a	n/a	n/a	n/a	n/a	n/a	n/a	n/a	n/a	n/a	n/a	n/a	n/a	n/a	n/a	fixation
107846.73492128553	0.0	n/a	472	89	2750	3466.26507871	stim	stop-signal	246	729945	0.0-13.22-1.22	beast_fmri_test	330	727352,/,728031,/,728710,/,729390,/,730069,/,730749,/,731428,/,732109,/,732788,/	t,t,t,t,t,t,t,t,t	<img class = center src='/static/experiments/beast_fmri_test/images/P.png'></img>	71,89	2750.0	test	<img class = center src='/static/experiments/beast_fmri_test/images/redP.png'></img>	stop	2750.0	2.0	22.0	stop	non-target	P	71,Index Finger	89,Middle Finger	0.0	0.0	2750.0	2750.0	0.0	0.0	n/a	0.0	go_stim
110596.73492128553	2750.0	n/a	472	89	2750	3466.26507871	stim	stop-signal	246	729945	0.0-13.22-1.22	beast_fmri_test	330	727352,/,728031,/,728710,/,729390,/,730069,/,730749,/,731428,/,732109,/,732788,/	t,t,t,t,t,t,t,t,t	<img class = center src='/static/experiments/beast_fmri_test/images/P.png'></img>	71,89	2750.0	test	<img class = center src='/static/experiments/beast_fmri_test/images/redP.png'></img>	stop	2750.0	2.0	22.0	stop	non-target	P	71,Index Finger	89,Middle Finger	0.0	0.0	2750.0	2750.0	0.0	0.0	n/a	0.0	stop_stim
110596.73492128553	3466.2650787144721	n/a	472	89	2750	3466.26507871	stim	stop-signal	246	729945	0.0-13.22-1.22	beast_fmri_test	330	727352,/,728031,/,728710,/,729390,/,730069,/,730749,/,731428,/,732109,/,732788,/	t,t,t,t,t,t,t,t,t	<img class = center src='/static/experiments/beast_fmri_test/images/P.png'></img>	71,89	2750.0	test	<img class = center src='/static/experiments/beast_fmri_test/images/redP.png'></img>	stop	2750.0	2.0	22.0	stop	non-target	P	71,Index Finger	89,Middle Finger	0.0	0.0	2750.0	2750.0	0.0	0.0	n/a	0.0	ITI
118064	500	n/a	-1	-1	500	0.0	fixation	poldrack-single-stim	247	733946	0.0-13.23-0.23	beast_fmri_test	330	733468,/	t	<div class = centerbox2><div class = fixation>+</div></div>	none	500.0	test	n/a	n/a	n/a	n/a	n/a	n/a	n/a	n/a	n/a	n/a	n/a	n/a	n/a	n/a	n/a	n/a	n/a	n/a	fixation
117206.14790485008	2750	n/a	491	89	2750	860.85209515	stim	stop-signal	248	736699	0.0-13.23-1.23	beast_fmri_test	330	734148,/,734826,/,735507,/,736185,/,736866,/,737546,/	t,t,t,t,t,t	<img class = center src='/static/experiments/beast_fmri_test/images/D.png'></img>	71,89	2750.0	test	<img class = center src='/static/experiments/beast_fmri_test/images/redD.png'></img>	go	2750.0	2.0	23.0	go	non-target	D	71,Index Finger	89,Middle Finger	0.0	0.0	2750.0	2750.0	1.0	0.0	1.0	n/a	go_stim
119956.14790485008	860.85209514997268	n/a	491	89	2750	860.85209515	stim	stop-signal	248	736699	0.0-13.23-1.23	beast_fmri_test	330	734148,/,734826,/,735507,/,736185,/,736866,/,737546,/	t,t,t,t,t,t	<img class = center src='/static/experiments/beast_fmri_test/images/D.png'></img>	71,89	2750.0	test	<img class = center src='/static/experiments/beast_fmri_test/images/redD.png'></img>	go	2750.0	2.0	23.0	go	non-target	D	71,Index Finger	89,Middle Finger	0.0	0.0	2750.0	2750.0	1.0	0.0	1.0	n/a	ITI
122210	500	n/a	-1	-1	500	0.0	fixation	poldrack-single-stim	249	738092	0.0-13.24-0.24	beast_fmri_test	330	n/a	n/a	<div class = centerbox2><div class = fixation>+</div></div>	none	500.0	test	n/a	n/a	n/a	n/a	n/a	n/a	n/a	n/a	n/a	n/a	n/a	n/a	n/a	n/a	n/a	n/a	n/a	n/a	fixation
121400.35707007919	0.0	n/a	493	89	2750	810.642929921	stim	stop-signal	250	740843	0.0-13.24-1.24	beast_fmri_test	330	738230,/,738906,/,739586,/,740265,/,740944,/,741626,/	t,t,t,t,t,t	<img class = center src='/static/experiments/beast_fmri_test/images/V.png'></img>	71,89	2750.0	test	<img class = center src='/static/experiments/beast_fmri_test/images/redV.png'></img>	stop	2750.0	2.0	24.0	stop	non-target	V	71,Index Finger	89,Middle Finger	0.0	0.0	2750.0	2750.0	0.0	0.0	n/a	0.0	go_stim
124150.35707007919	2750.0	n/a	493	89	2750	810.642929921	stim	stop-signal	250	740843	0.0-13.24-1.24	beast_fmri_test	330	738230,/,738906,/,739586,/,740265,/,740944,/,741626,/	t,t,t,t,t,t	<img class = center src='/static/experiments/beast_fmri_test/images/V.png'></img>	71,89	2750.0	test	<img class = center src='/static/experiments/beast_fmri_test/images/redV.png'></img>	stop	2750.0	2.0	24.0	stop	non-target	V	71,Index Finger	89,Middle Finger	0.0	0.0	2750.0	2750.0	0.0	0.0	n/a	0.0	stop_stim
124150.35707007919	810.64292992080459	n/a	493	89	2750	810.642929921	stim	stop-signal	250	740843	0.0-13.24-1.24	beast_fmri_test	330	738230,/,738906,/,739586,/,740265,/,740944,/,741626,/	t,t,t,t,t,t	<img class = center src='/static/experiments/beast_fmri_test/images/V.png'></img>	71,89	2750.0	test	<img class = center src='/static/experiments/beast_fmri_test/images/redV.png'></img>	stop	2750.0	2.0	24.0	stop	non-target	V	71,Index Finger	89,Middle Finger	0.0	0.0	2750.0	2750.0	0.0	0.0	n/a	0.0	ITI
126304	500	n/a	-1	-1	500	0.0	fixation	poldrack-single-stim	251	742186	0.0-13.25-0.25	beast_fmri_test	330	n/a	n/a	<div class = centerbox2><div class = fixation>+</div></div>	none	500.0	test	n/a	n/a	n/a	n/a	n/a	n/a	n/a	n/a	n/a	n/a	n/a	n/a	n/a	n/a	n/a	n/a	n/a	n/a	fixation
126075.41052061599	0.0	n/a	393	89	2750	231.589479384	stim	stop-signal	252	744939	0.0-13.25-1.25	beast_fmri_test	330	742305,/,742985,/,743664,/,744344,/,745023,/	t,t,t,t,t	<img class = center src='/static/experiments/beast_fmri_test/images/P.png'></img>	71,89	2750.0	test	<img class = center src='/static/experiments/beast_fmri_test/images/redP.png'></img>	stop	2750.0	2.0	25.0	stop	non-target	P	71,Index Finger	89,Middle Finger	0.0	0.0	2750.0	2750.0	0.0	0.0	n/a	0.0	go_stim
128825.41052061599	2750.0	n/a	393	89	2750	231.589479384	stim	stop-signal	252	744939	0.0-13.25-1.25	beast_fmri_test	330	742305,/,742985,/,743664,/,744344,/,745023,/	t,t,t,t,t	<img class = center src='/static/experiments/beast_fmri_test/images/P.png'></img>	71,89	2750.0	test	<img class = center src='/static/experiments/beast_fmri_test/images/redP.png'></img>	stop	2750.0	2.0	25.0	stop	non-target	P	71,Index Finger	89,Middle Finger	0.0	0.0	2750.0	2750.0	0.0	0.0	n/a	0.0	stop_stim
128825.41052061599	231.58947938396355	n/a	393	89	2750	231.589479384	stim	stop-signal	252	744939	0.0-13.25-1.25	beast_fmri_test	330	742305,/,742985,/,743664,/,744344,/,745023,/	t,t,t,t,t	<img class = center src='/static/experiments/beast_fmri_test/images/P.png'></img>	71,89	2750.0	test	<img class = center src='/static/experiments/beast_fmri_test/images/redP.png'></img>	stop	2750.0	2.0	25.0	stop	non-target	P	71,Index Finger	89,Middle Finger	0.0	0.0	2750.0	2750.0	0.0	0.0	n/a	0.0	ITI
129826	500	n/a	-1	-1	500	0.0	fixation	poldrack-single-stim	253	745708	0.0-13.26-0.26	beast_fmri_test	330	745703,/	t	<div class = centerbox2><div class = fixation>+</div></div>	none	500.0	test	n/a	n/a	n/a	n/a	n/a	n/a	n/a	n/a	n/a	n/a	n/a	n/a	n/a	n/a	n/a	n/a	n/a	n/a	fixation
128786.80462542991	0.0	n/a	657	89	2750	1041.19537457	stim	stop-signal	254	748460	0.0-13.26-1.26	beast_fmri_test	330	746383,/,747063,/,747742,/,748421,/,749101,/	t,t,t,t,t	<img class = center src='/static/experiments/beast_fmri_test/images/D.png'></img>	71,89	2750.0	test	<img class = center src='/static/experiments/beast_fmri_test/images/redD.png'></img>	stop	2750.0	2.0	26.0	stop	non-target	D	71,Index Finger	89,Middle Finger	0.0	0.0	2750.0	2750.0	0.0	0.0	n/a	0.0	go_stim
131536.80462542991	2750.0	n/a	657	89	2750	1041.19537457	stim	stop-signal	254	748460	0.0-13.26-1.26	beast_fmri_test	330	746383,/,747063,/,747742,/,748421,/,749101,/	t,t,t,t,t	<img class = center src='/static/experiments/beast_fmri_test/images/D.png'></img>	71,89	2750.0	test	<img class = center src='/static/experiments/beast_fmri_test/images/redD.png'></img>	stop	2750.0	2.0	26.0	stop	non-target	D	71,Index Finger	89,Middle Finger	0.0	0.0	2750.0	2750.0	0.0	0.0	n/a	0.0	stop_stim
131536.80462542991	1041.1953745701128	n/a	657	89	2750	1041.19537457	stim	stop-signal	254	748460	0.0-13.26-1.26	beast_fmri_test	330	746383,/,747063,/,747742,/,748421,/,749101,/	t,t,t,t,t	<img class = center src='/static/experiments/beast_fmri_test/images/D.png'></img>	71,89	2750.0	test	<img class = center src='/static/experiments/beast_fmri_test/images/redD.png'></img>	stop	2750.0	2.0	26.0	stop	non-target	D	71,Index Finger	89,Middle Finger	0.0	0.0	2750.0	2750.0	0.0	0.0	n/a	0.0	ITI
134154	500	n/a	-1	-1	500	0.0	fixation	poldrack-single-stim	255	750036	0.0-13.27-0.27	beast_fmri_test	330	749781,/	t	<div class = centerbox2><div class = fixation>+</div></div>	none	500.0	test	n/a	n/a	n/a	n/a	n/a	n/a	n/a	n/a	n/a	n/a	n/a	n/a	n/a	n/a	n/a	n/a	n/a	n/a	fixation
133230.1590307781	2750	n/a	631	71	2750	925.840969222	stim	stop-signal	256	752788	0.0-13.27-1.27	beast_fmri_test	330	750461,/,751140,/,751820,/,752500,/,753178,/	t,t,t,t,t	<img class = center src='/static/experiments/beast_fmri_test/images/V.png'></img>	71,89	2750.0	test	<img class = center src='/static/experiments/beast_fmri_test/images/redV.png'></img>	go	2750.0	2.0	27.0	go	non-target	V	71,Index Finger	89,Middle Finger	0.0	0.0	2750.0	2750.0	0.0	0.0	0.0	n/a	go_stim
135980.1590307781	925.84096922190645	n/a	631	71	2750	925.840969222	stim	stop-signal	256	752788	0.0-13.27-1.27	beast_fmri_test	330	750461,/,751140,/,751820,/,752500,/,753178,/	t,t,t,t,t	<img class = center src='/static/experiments/beast_fmri_test/images/V.png'></img>	71,89	2750.0	test	<img class = center src='/static/experiments/beast_fmri_test/images/redV.png'></img>	go	2750.0	2.0	27.0	go	non-target	V	71,Index Finger	89,Middle Finger	0.0	0.0	2750.0	2750.0	0.0	0.0	0.0	n/a	ITI
138363	500	n/a	-1	-1	500	0.0	fixation	poldrack-single-stim	257	754245	0.0-13.28-0.28	beast_fmri_test	330	753859,/	t	<div class = centerbox2><div class = fixation>+</div></div>	none	500.0	test	n/a	n/a	n/a	n/a	n/a	n/a	n/a	n/a	n/a	n/a	n/a	n/a	n/a	n/a	n/a	n/a	n/a	n/a	fixation
137576.14602495194	2750	n/a	615	89	2750	787.853975048	stim	stop-signal	258	756996	0.0-13.28-1.28	beast_fmri_test	330	754538,/,755218,/,755898,/,756577,/,757258,/	t,t,t,t,t	<img class = center src='/static/experiments/beast_fmri_test/images/D.png'></img>	71,89	2750.0	test	<img class = center src='/static/experiments/beast_fmri_test/images/redD.png'></img>	go	2750.0	2.0	28.0	go	target	D	71,Index Finger	89,Middle Finger	0.0	0.0	2750.0	2750.0	0.0	0.0	0.0	n/a	go_stim
140326.14602495194	787.85397504803711	n/a	615	89	2750	787.853975048	stim	stop-signal	258	756996	0.0-13.28-1.28	beast_fmri_test	330	754538,/,755218,/,755898,/,756577,/,757258,/	t,t,t,t,t	<img class = center src='/static/experiments/beast_fmri_test/images/D.png'></img>	71,89	2750.0	test	<img class = center src='/static/experiments/beast_fmri_test/images/redD.png'></img>	go	2750.0	2.0	28.0	go	target	D	71,Index Finger	89,Middle Finger	0.0	0.0	2750.0	2750.0	0.0	0.0	0.0	n/a	ITI
142436	500	n/a	-1	-1	500	0.0	fixation	poldrack-single-stim	259	758318	0.0-13.29-0.29	beast_fmri_test	330	757936,/	t	<div class = centerbox2><div class = fixation>+</div></div>	none	500.0	test	n/a	n/a	n/a	n/a	n/a	n/a	n/a	n/a	n/a	n/a	n/a	n/a	n/a	n/a	n/a	n/a	n/a	n/a	fixation
141724.91744408279	2750	n/a	537	71	2750	712.082555917	stim	stop-signal	260	761069	0.0-13.29-1.29	beast_fmri_test	330	758616,/,759295,/,759975,/,760656,/,761335,/	t,t,t,t,t	<img class = center src='/static/experiments/beast_fmri_test/images/V.png'></img>	71,89	2750.0	test	<img class = center src='/static/experiments/beast_fmri_test/images/redV.png'></img>	go	2750.0	2.0	29.0	go	target	V	71,Index Finger	89,Middle Finger	0.0	0.0	2750.0	2750.0	1.0	0.0	1.0	n/a	go_stim
144474.91744408279	712.08255591725231	n/a	537	71	2750	712.082555917	stim	stop-signal	260	761069	0.0-13.29-1.29	beast_fmri_test	330	758616,/,759295,/,759975,/,760656,/,761335,/	t,t,t,t,t	<img class = center src='/static/experiments/beast_fmri_test/images/V.png'></img>	71,89	2750.0	test	<img class = center src='/static/experiments/beast_fmri_test/images/redV.png'></img>	go	2750.0	2.0	29.0	go	target	V	71,Index Finger	89,Middle Finger	0.0	0.0	2750.0	2750.0	1.0	0.0	1.0	n/a	ITI
146435	500	n/a	-1	-1	500	0.0	fixation	poldrack-single-stim	261	762317	0.0-13.30-0.30	beast_fmri_test	330	762015,/	t	<div class = centerbox2><div class = fixation>+</div></div>	none	500.0	test	n/a	n/a	n/a	n/a	n/a	n/a	n/a	n/a	n/a	n/a	n/a	n/a	n/a	n/a	n/a	n/a	n/a	n/a	fixation
145623.7673207972	2750	n/a	493	89	2750	812.232679203	stim	stop-signal	262	765068	0.0-13.30-1.30	beast_fmri_test	330	762694,/,763374,/,764053,/,764733,/,765414,/	t,t,t,t,t	<img class = center src='/static/experiments/beast_fmri_test/images/T.png'></img>	71,89	2750.0	test	<img class = center src='/static/experiments/beast_fmri_test/images/redT.png'></img>	go	2750.0	2.0	30.0	go	non-target	T	71,Index Finger	89,Middle Finger	0.0	0.0	2750.0	2750.0	1.0	0.0	1.0	n/a	go_stim
148373.7673207972	812.23267920282649	n/a	493	89	2750	812.232679203	stim	stop-signal	262	765068	0.0-13.30-1.30	beast_fmri_test	330	762694,/,763374,/,764053,/,764733,/,765414,/	t,t,t,t,t	<img class = center src='/static/experiments/beast_fmri_test/images/T.png'></img>	71,89	2750.0	test	<img class = center src='/static/experiments/beast_fmri_test/images/redT.png'></img>	go	2750.0	2.0	30.0	go	non-target	T	71,Index Finger	89,Middle Finger	0.0	0.0	2750.0	2750.0	1.0	0.0	1.0	n/a	ITI
150534	500	n/a	-1	-1	500	0.0	fixation	poldrack-single-stim	263	766416	0.0-13.31-0.31	beast_fmri_test	330	766094,/	t	<div class = centerbox2><div class = fixation>+</div></div>	none	500.0	test	n/a	n/a	n/a	n/a	n/a	n/a	n/a	n/a	n/a	n/a	n/a	n/a	n/a	n/a	n/a	n/a	n/a	n/a	fixation
148343.37295576849	2750	n/a	697	89	2750	2192.62704423	stim	stop-signal	264	769168	0.0-13.31-1.31	beast_fmri_test	330	766773,/,767453,/,768132,/,768812,/,769492,/,770171,/,770852,/	t,t,t,t,t,t,t	<img class = center src='/static/experiments/beast_fmri_test/images/B.png'></img>	71,89	2750.0	test	<img class = center src='/static/experiments/beast_fmri_test/images/redB.png'></img>	go	2750.0	2.0	31.0	go	non-target	B	71,Index Finger	89,Middle Finger	0.0	0.0	2750.0	2750.0	1.0	0.0	1.0	n/a	go_stim
151093.37295576849	2192.6270442314635	n/a	697	89	2750	2192.62704423	stim	stop-signal	264	769168	0.0-13.31-1.31	beast_fmri_test	330	766773,/,767453,/,768132,/,768812,/,769492,/,770171,/,770852,/	t,t,t,t,t,t,t	<img class = center src='/static/experiments/beast_fmri_test/images/B.png'></img>	71,89	2750.0	test	<img class = center src='/static/experiments/beast_fmri_test/images/redB.png'></img>	go	2750.0	2.0	31.0	go	non-target	B	71,Index Finger	89,Middle Finger	0.0	0.0	2750.0	2750.0	1.0	0.0	1.0	n/a	ITI
156007	500	n/a	-1	-1	500	0.0	fixation	poldrack-single-stim	265	771889	0.0-13.32-0.32	beast_fmri_test	330	771531,/	t	<div class = centerbox2><div class = fixation>+</div></div>	none	500.0	test	n/a	n/a	n/a	n/a	n/a	n/a	n/a	n/a	n/a	n/a	n/a	n/a	n/a	n/a	n/a	n/a	n/a	n/a	fixation
155318.61280056217	2750	n/a	412	71	2750	689.387199438	stim	stop-signal	266	774640	0.0-13.32-1.32	beast_fmri_test	330	772211,/,772890,/,773570,/,774251,/,774929,/	t,t,t,t,t	<img class = center src='/static/experiments/beast_fmri_test/images/T.png'></img>	71,89	2750.0	test	<img class = center src='/static/experiments/beast_fmri_test/images/redT.png'></img>	go	2750.0	2.0	32.0	go	target	T	71,Index Finger	89,Middle Finger	0.0	0.0	2750.0	2750.0	1.0	0.0	1.0	n/a	go_stim
158068.61280056217	689.38719943777858	n/a	412	71	2750	689.387199438	stim	stop-signal	266	774640	0.0-13.32-1.32	beast_fmri_test	330	772211,/,772890,/,773570,/,774251,/,774929,/	t,t,t,t,t	<img class = center src='/static/experiments/beast_fmri_test/images/T.png'></img>	71,89	2750.0	test	<img class = center src='/static/experiments/beast_fmri_test/images/redT.png'></img>	go	2750.0	2.0	32.0	go	target	T	71,Index Finger	89,Middle Finger	0.0	0.0	2750.0	2750.0	1.0	0.0	1.0	n/a	ITI
159984	500	n/a	-1	-1	500	0.0	fixation	poldrack-single-stim	267	775866	0.0-13.33-0.33	beast_fmri_test	330	775610,/	t	<div class = centerbox2><div class = fixation>+</div></div>	none	500.0	test	n/a	n/a	n/a	n/a	n/a	n/a	n/a	n/a	n/a	n/a	n/a	n/a	n/a	n/a	n/a	n/a	n/a	n/a	fixation
159845.71203259286	2750	n/a	359	71	2750	139.287967407	stim	stop-signal	268	778617	0.0-13.33-1.33	beast_fmri_test	330	776289,/,776968,/,777647,/,778327,/	t,t,t,t	<img class = center src='/static/experiments/beast_fmri_test/images/B.png'></img>	71,89	2750.0	test	<img class = center src='/static/experiments/beast_fmri_test/images/redB.png'></img>	go	2750.0	2.0	33.0	go	target	B	71,Index Finger	89,Middle Finger	0.0	0.0	2750.0	2750.0	1.0	0.0	1.0	n/a	go_stim
162595.71203259286	139.28796740715629	n/a	359	71	2750	139.287967407	stim	stop-signal	268	778617	0.0-13.33-1.33	beast_fmri_test	330	776289,/,776968,/,777647,/,778327,/	t,t,t,t	<img class = center src='/static/experiments/beast_fmri_test/images/B.png'></img>	71,89	2750.0	test	<img class = center src='/static/experiments/beast_fmri_test/images/redB.png'></img>	go	2750.0	2.0	33.0	go	target	B	71,Index Finger	89,Middle Finger	0.0	0.0	2750.0	2750.0	1.0	0.0	1.0	n/a	ITI
163411	500	n/a	-1	-1	500	0.0	fixation	poldrack-single-stim	269	779293	0.0-13.34-0.34	beast_fmri_test	330	779009,/	t	<div class = centerbox2><div class = fixation>+</div></div>	none	500.0	test	n/a	n/a	n/a	n/a	n/a	n/a	n/a	n/a	n/a	n/a	n/a	n/a	n/a	n/a	n/a	n/a	n/a	n/a	fixation
162714.36500114831	2750	n/a	367	89	2750	697.634998852	stim	stop-signal	270	782044	0.0-13.34-1.34	beast_fmri_test	330	779687,/,780367,/,781047,/,781725,/,782405,/	t,t,t,t,t	<img class = center src='/static/experiments/beast_fmri_test/images/P.png'></img>	71,89	2750.0	test	<img class = center src='/static/experiments/beast_fmri_test/images/redP.png'></img>	go	2750.0	2.0	34.0	go	non-target	P	71,Index Finger	89,Middle Finger	0.0	0.0	2750.0	2750.0	1.0	0.0	1.0	n/a	go_stim
165464.36500114831	697.63499885167982	n/a	367	89	2750	697.634998852	stim	stop-signal	270	782044	0.0-13.34-1.34	beast_fmri_test	330	779687,/,780367,/,781047,/,781725,/,782405,/	t,t,t,t,t	<img class = center src='/static/experiments/beast_fmri_test/images/P.png'></img>	71,89	2750.0	test	<img class = center src='/static/experiments/beast_fmri_test/images/redP.png'></img>	go	2750.0	2.0	34.0	go	non-target	P	71,Index Finger	89,Middle Finger	0.0	0.0	2750.0	2750.0	1.0	0.0	1.0	n/a	ITI
167396	500	n/a	-1	-1	500	0.0	fixation	poldrack-single-stim	271	783278	0.0-13.35-0.35	beast_fmri_test	330	783085,/	t	<div class = centerbox2><div class = fixation>+</div></div>	none	500.0	test	n/a	n/a	n/a	n/a	n/a	n/a	n/a	n/a	n/a	n/a	n/a	n/a	n/a	n/a	n/a	n/a	n/a	n/a	fixation
165367.85328843899	2750	n/a	552	89	2750	2029.14671156	stim	stop-signal	272	786029	0.0-13.35-1.35	beast_fmri_test	330	783765,/,784445,/,785125,/,785803,/,786484,/,787163,/,787842,/	t,t,t,t,t,t,t	<img class = center src='/static/experiments/beast_fmri_test/images/D.png'></img>	71,89	2750.0	test	<img class = center src='/static/experiments/beast_fmri_test/images/redD.png'></img>	go	2750.0	2.0	35.0	go	non-target	D	71,Index Finger	89,Middle Finger	0.0	0.0	2750.0	2750.0	1.0	0.0	1.0	n/a	go_stim
168117.85328843899	2029.1467115610205	n/a	552	89	2750	2029.14671156	stim	stop-signal	272	786029	0.0-13.35-1.35	beast_fmri_test	330	783765,/,784445,/,785125,/,785803,/,786484,/,787163,/,787842,/	t,t,t,t,t,t,t	<img class = center src='/static/experiments/beast_fmri_test/images/D.png'></img>	71,89	2750.0	test	<img class = center src='/static/experiments/beast_fmri_test/images/redD.png'></img>	go	2750.0	2.0	35.0	go	non-target	D	71,Index Finger	89,Middle Finger	0.0	0.0	2750.0	2750.0	1.0	0.0	1.0	n/a	ITI
172714	500	n/a	-1	-1	500	0.0	fixation	poldrack-single-stim	273	788596	0.0-13.36-0.36	beast_fmri_test	330	788523,/	t	<div class = centerbox2><div class = fixation>+</div></div>	none	500.0	test	n/a	n/a	n/a	n/a	n/a	n/a	n/a	n/a	n/a	n/a	n/a	n/a	n/a	n/a	n/a	n/a	n/a	n/a	fixation
172072.13398679974	0.0	n/a	444	89	2750	644.8660132	stim	stop-signal	274	791349	0.0-13.36-1.36	beast_fmri_test	330	789202,/,789882,/,790561,/,791241,/,791920,/	t,t,t,t,t	<img class = center src='/static/experiments/beast_fmri_test/images/V.png'></img>	71,89	2750.0	test	<img class = center src='/static/experiments/beast_fmri_test/images/redV.png'></img>	stop	2750.0	2.0	36.0	stop	non-target	V	71,Index Finger	89,Middle Finger	0.0	0.0	2750.0	2750.0	0.0	0.0	n/a	0.0	go_stim
174822.13398679974	2750.0	n/a	444	89	2750	644.8660132	stim	stop-signal	274	791349	0.0-13.36-1.36	beast_fmri_test	330	789202,/,789882,/,790561,/,791241,/,791920,/	t,t,t,t,t	<img class = center src='/static/experiments/beast_fmri_test/images/V.png'></img>	71,89	2750.0	test	<img class = center src='/static/experiments/beast_fmri_test/images/redV.png'></img>	stop	2750.0	2.0	36.0	stop	non-target	V	71,Index Finger	89,Middle Finger	0.0	0.0	2750.0	2750.0	0.0	0.0	n/a	0.0	stop_stim
174822.13398679974	644.8660132003007	n/a	444	89	2750	644.8660132	stim	stop-signal	274	791349	0.0-13.36-1.36	beast_fmri_test	330	789202,/,789882,/,790561,/,791241,/,791920,/	t,t,t,t,t	<img class = center src='/static/experiments/beast_fmri_test/images/V.png'></img>	71,89	2750.0	test	<img class = center src='/static/experiments/beast_fmri_test/images/redV.png'></img>	stop	2750.0	2.0	36.0	stop	non-target	V	71,Index Finger	89,Middle Finger	0.0	0.0	2750.0	2750.0	0.0	0.0	n/a	0.0	ITI
176648	500	n/a	-1	-1	500	0.0	fixation	poldrack-single-stim	275	792530	0.0-13.37-0.37	beast_fmri_test	330	n/a	n/a	<div class = centerbox2><div class = fixation>+</div></div>	none	500.0	test	n/a	n/a	n/a	n/a	n/a	n/a	n/a	n/a	n/a	n/a	n/a	n/a	n/a	n/a	n/a	n/a	n/a	n/a	fixation
175999.11612220854	2750	n/a	464	89	2750	649.883877791	stim	stop-signal	276	795281	0.0-13.37-1.37	beast_fmri_test	330	792600,/,793281,/,793960,/,794641,/,795318,/	t,t,t,t,t	<img class = center src='/static/experiments/beast_fmri_test/images/P.png'></img>	71,89	2750.0	test	<img class = center src='/static/experiments/beast_fmri_test/images/redP.png'></img>	go	2750.0	2.0	37.0	go	non-target	P	71,Index Finger	89,Middle Finger	0.0	0.0	2750.0	2750.0	1.0	0.0	1.0	n/a	go_stim
178749.11612220854	649.88387779140749	n/a	464	89	2750	649.883877791	stim	stop-signal	276	795281	0.0-13.37-1.37	beast_fmri_test	330	792600,/,793281,/,793960,/,794641,/,795318,/	t,t,t,t,t	<img class = center src='/static/experiments/beast_fmri_test/images/P.png'></img>	71,89	2750.0	test	<img class = center src='/static/experiments/beast_fmri_test/images/redP.png'></img>	go	2750.0	2.0	37.0	go	non-target	P	71,Index Finger	89,Middle Finger	0.0	0.0	2750.0	2750.0	1.0	0.0	1.0	n/a	ITI
180585	500	n/a	-1	-1	500	0.0	fixation	poldrack-single-stim	277	796467	0.0-13.38-0.38	beast_fmri_test	330	795999,/	t	<div class = centerbox2><div class = fixation>+</div></div>	none	500.0	test	n/a	n/a	n/a	n/a	n/a	n/a	n/a	n/a	n/a	n/a	n/a	n/a	n/a	n/a	n/a	n/a	n/a	n/a	fixation
180007.5716447056	0.0	n/a	471	71	2750	578.428355294	stim	stop-signal	278	799218	0.0-13.38-1.38	beast_fmri_test	330	796679,/,797358,/,798039,/,798719,/,799398,/	t,t,t,t,t	<img class = center src='/static/experiments/beast_fmri_test/images/V.png'></img>	71,89	2750.0	test	<img class = center src='/static/experiments/beast_fmri_test/images/redV.png'></img>	stop	2750.0	2.0	38.0	stop	target	V	71,Index Finger	89,Middle Finger	0.0	0.0	2750.0	2750.0	0.0	0.0	n/a	0.0	go_stim
182757.5716447056	2750.0	n/a	471	71	2750	578.428355294	stim	stop-signal	278	799218	0.0-13.38-1.38	beast_fmri_test	330	796679,/,797358,/,798039,/,798719,/,799398,/	t,t,t,t,t	<img class = center src='/static/experiments/beast_fmri_test/images/V.png'></img>	71,89	2750.0	test	<img class = center src='/static/experiments/beast_fmri_test/images/redV.png'></img>	stop	2750.0	2.0	38.0	stop	target	V	71,Index Finger	89,Middle Finger	0.0	0.0	2750.0	2750.0	0.0	0.0	n/a	0.0	stop_stim
182757.5716447056	578.42835529435672	n/a	471	71	2750	578.428355294	stim	stop-signal	278	799218	0.0-13.38-1.38	beast_fmri_test	330	796679,/,797358,/,798039,/,798719,/,799398,/	t,t,t,t,t	<img class = center src='/static/experiments/beast_fmri_test/images/V.png'></img>	71,89	2750.0	test	<img class = center src='/static/experiments/beast_fmri_test/images/redV.png'></img>	stop	2750.0	2.0	38.0	stop	target	V	71,Index Finger	89,Middle Finger	0.0	0.0	2750.0	2750.0	0.0	0.0	n/a	0.0	ITI
184452	500	n/a	-1	-1	500	0.0	fixation	poldrack-single-stim	279	800334	0.0-13.39-0.39	beast_fmri_test	330	800078,/	t	<div class = centerbox2><div class = fixation>+</div></div>	none	500.0	test	n/a	n/a	n/a	n/a	n/a	n/a	n/a	n/a	n/a	n/a	n/a	n/a	n/a	n/a	n/a	n/a	n/a	n/a	fixation
184381.00798039534	2750	n/a	367	71	2750	71.9920196047	stim	stop-signal	280	803085	0.0-13.39-1.39	beast_fmri_test	330	800757,/,801437,/,802118,/,802798,/	t,t,t,t	<img class = center src='/static/experiments/beast_fmri_test/images/P.png'></img>	71,89	2750.0	test	<img class = center src='/static/experiments/beast_fmri_test/images/redP.png'></img>	go	2750.0	2.0	39.0	go	target	P	71,Index Finger	89,Middle Finger	0.0	0.0	2750.0	2750.0	1.0	0.0	1.0	n/a	go_stim
187131.00798039534	71.992019604690356	n/a	367	71	2750	71.9920196047	stim	stop-signal	280	803085	0.0-13.39-1.39	beast_fmri_test	330	800757,/,801437,/,802118,/,802798,/	t,t,t,t	<img class = center src='/static/experiments/beast_fmri_test/images/P.png'></img>	71,89	2750.0	test	<img class = center src='/static/experiments/beast_fmri_test/images/redP.png'></img>	go	2750.0	2.0	39.0	go	target	P	71,Index Finger	89,Middle Finger	0.0	0.0	2750.0	2750.0	1.0	0.0	1.0	n/a	ITI
187809	500	n/a	-1	-1	500	0.0	fixation	poldrack-single-stim	281	803691	0.0-13.40-0.40	beast_fmri_test	330	803478,/	t	<div class = centerbox2><div class = fixation>+</div></div>	none	500.0	test	n/a	n/a	n/a	n/a	n/a	n/a	n/a	n/a	n/a	n/a	n/a	n/a	n/a	n/a	n/a	n/a	n/a	n/a	fixation
187214.48557208572	2750	n/a	2517	89	2750	595.514427914	stim	stop-signal	282	806442	0.0-13.40-1.40	beast_fmri_test	330	804157,/,804835,/,805515,/,806195,/,806875,/	t,t,t,t,t	<img class = center src='/static/experiments/beast_fmri_test/images/V.png'></img>	71,89	2750.0	test	<img class = center src='/static/experiments/beast_fmri_test/images/redV.png'></img>	go	2750.0	2.0	40.0	go	target	V	71,Index Finger	89,Middle Finger	0.0	0.0	2750.0	2750.0	0.0	0.0	0.0	n/a	go_stim
189964.48557208572	595.51442791433647	n/a	2517	89	2750	595.514427914	stim	stop-signal	282	806442	0.0-13.40-1.40	beast_fmri_test	330	804157,/,804835,/,805515,/,806195,/,806875,/	t,t,t,t,t	<img class = center src='/static/experiments/beast_fmri_test/images/V.png'></img>	71,89	2750.0	test	<img class = center src='/static/experiments/beast_fmri_test/images/redV.png'></img>	go	2750.0	2.0	40.0	go	target	V	71,Index Finger	89,Middle Finger	0.0	0.0	2750.0	2750.0	0.0	0.0	0.0	n/a	ITI
191692	500	n/a	-1	-1	500	0.0	fixation	poldrack-single-stim	283	807574	0.0-13.41-0.41	beast_fmri_test	330	807555,/	t	<div class = centerbox2><div class = fixation>+</div></div>	none	500.0	test	n/a	n/a	n/a	n/a	n/a	n/a	n/a	n/a	n/a	n/a	n/a	n/a	n/a	n/a	n/a	n/a	n/a	n/a	fixation
191254.49966220511	2750	n/a	483	71	2750	437.500337795	stim	stop-signal	284	810324	0.0-13.41-1.41	beast_fmri_test	330	808236,/,808914,/,809594,/,810273,/	t,t,t,t	<img class = center src='/static/experiments/beast_fmri_test/images/P.png'></img>	71,89	2750.0	test	<img class = center src='/static/experiments/beast_fmri_test/images/redP.png'></img>	go	2750.0	2.0	41.0	go	target	P	71,Index Finger	89,Middle Finger	0.0	0.0	2750.0	2750.0	1.0	0.0	1.0	n/a	go_stim
194004.49966220511	437.50033779490411	n/a	483	71	2750	437.500337795	stim	stop-signal	284	810324	0.0-13.41-1.41	beast_fmri_test	330	808236,/,808914,/,809594,/,810273,/	t,t,t,t	<img class = center src='/static/experiments/beast_fmri_test/images/P.png'></img>	71,89	2750.0	test	<img class = center src='/static/experiments/beast_fmri_test/images/redP.png'></img>	go	2750.0	2.0	41.0	go	target	P	71,Index Finger	89,Middle Finger	0.0	0.0	2750.0	2750.0	1.0	0.0	1.0	n/a	ITI
195416	500	n/a	-1	-1	500	0.0	fixation	poldrack-single-stim	285	811298	0.0-13.42-0.42	beast_fmri_test	330	810952,/	t	<div class = centerbox2><div class = fixation>+</div></div>	none	500.0	test	n/a	n/a	n/a	n/a	n/a	n/a	n/a	n/a	n/a	n/a	n/a	n/a	n/a	n/a	n/a	n/a	n/a	n/a	fixation
194100.07274263422	2750	n/a	413	89	2750	1317.92725737	stim	stop-signal	286	814050	0.0-13.42-1.42	beast_fmri_test	330	811633,/,812313,/,812993,/,813671,/,814350,/,815030,/	t,t,t,t,t,t	<img class = center src='/static/experiments/beast_fmri_test/images/B.png'></img>	71,89	2750.0	test	<img class = center src='/static/experiments/beast_fmri_test/images/redB.png'></img>	go	2750.0	2.0	42.0	go	non-target	B	71,Index Finger	89,Middle Finger	0.0	0.0	2750.0	2750.0	1.0	0.0	1.0	n/a	go_stim
196850.07274263422	1317.9272573658054	n/a	413	89	2750	1317.92725737	stim	stop-signal	286	814050	0.0-13.42-1.42	beast_fmri_test	330	811633,/,812313,/,812993,/,813671,/,814350,/,815030,/	t,t,t,t,t,t	<img class = center src='/static/experiments/beast_fmri_test/images/B.png'></img>	71,89	2750.0	test	<img class = center src='/static/experiments/beast_fmri_test/images/redB.png'></img>	go	2750.0	2.0	42.0	go	non-target	B	71,Index Finger	89,Middle Finger	0.0	0.0	2750.0	2750.0	1.0	0.0	1.0	n/a	ITI
200022	500	n/a	-1	-1	500	0.0	fixation	poldrack-single-stim	287	815904	0.0-13.43-0.43	beast_fmri_test	330	815710,/	t	<div class = centerbox2><div class = fixation>+</div></div>	none	500.0	test	n/a	n/a	n/a	n/a	n/a	n/a	n/a	n/a	n/a	n/a	n/a	n/a	n/a	n/a	n/a	n/a	n/a	n/a	fixation
199567.89180788316	2750	n/a	523	89	2750	455.108192117	stim	stop-signal	288	818655	0.0-13.43-1.43	beast_fmri_test	330	816391,/,817070,/,817749,/,818430,/,819108,/	t,t,t,t,t	<img class = center src='/static/experiments/beast_fmri_test/images/B.png'></img>	71,89	2750.0	test	<img class = center src='/static/experiments/beast_fmri_test/images/redB.png'></img>	go	2750.0	2.0	43.0	go	non-target	B	71,Index Finger	89,Middle Finger	0.0	0.0	2750.0	2750.0	1.0	0.0	1.0	n/a	go_stim
202317.89180788316	455.10819211685066	n/a	523	89	2750	455.108192117	stim	stop-signal	288	818655	0.0-13.43-1.43	beast_fmri_test	330	816391,/,817070,/,817749,/,818430,/,819108,/	t,t,t,t,t	<img class = center src='/static/experiments/beast_fmri_test/images/B.png'></img>	71,89	2750.0	test	<img class = center src='/static/experiments/beast_fmri_test/images/redB.png'></img>	go	2750.0	2.0	43.0	go	non-target	B	71,Index Finger	89,Middle Finger	0.0	0.0	2750.0	2750.0	1.0	0.0	1.0	n/a	ITI
203767	500	n/a	-1	-1	500	0.0	fixation	poldrack-single-stim	289	819649	0.0-13.44-0.44	beast_fmri_test	330	n/a	n/a	<div class = centerbox2><div class = fixation>+</div></div>	none	500.0	test	n/a	n/a	n/a	n/a	n/a	n/a	n/a	n/a	n/a	n/a	n/a	n/a	n/a	n/a	n/a	n/a	n/a	n/a	fixation
203612.05869548768	2750	n/a	1200	89	2750	157.941304512	stim	stop-signal	290	822402	0.0-13.44-1.44	beast_fmri_test	330	819789,/,820468,/,821147,/,821828,/,822507,/	t,t,t,t,t	<img class = center src='/static/experiments/beast_fmri_test/images/T.png'></img>	71,89	2750.0	test	<img class = center src='/static/experiments/beast_fmri_test/images/redT.png'></img>	go	2750.0	2.0	44.0	go	non-target	T	71,Index Finger	89,Middle Finger	0.0	0.0	2750.0	2750.0	1.0	0.0	1.0	n/a	go_stim
206362.05869548768	157.94130451237169	n/a	1200	89	2750	157.941304512	stim	stop-signal	290	822402	0.0-13.44-1.44	beast_fmri_test	330	819789,/,820468,/,821147,/,821828,/,822507,/	t,t,t,t,t	<img class = center src='/static/experiments/beast_fmri_test/images/T.png'></img>	71,89	2750.0	test	<img class = center src='/static/experiments/beast_fmri_test/images/redT.png'></img>	go	2750.0	2.0	44.0	go	non-target	T	71,Index Finger	89,Middle Finger	0.0	0.0	2750.0	2750.0	1.0	0.0	1.0	n/a	ITI
207217	500	n/a	-1	-1	500	0.0	fixation	poldrack-single-stim	291	823099	0.0-13.45-0.45	beast_fmri_test	330	n/a	n/a	<div class = centerbox2><div class = fixation>+</div></div>	none	500.0	test	n/a	n/a	n/a	n/a	n/a	n/a	n/a	n/a	n/a	n/a	n/a	n/a	n/a	n/a	n/a	n/a	n/a	n/a	fixation
204655.62274276873	2750	n/a	860	89	2750	2561.37725723	stim	stop-signal	292	825849	0.0-13.45-1.45	beast_fmri_test	330	823187,/,823865,/,824546,/,825225,/,825905,/,826585,/,827265,/,827946,/	t,t,t,t,t,t,t,t	<img class = center src='/static/experiments/beast_fmri_test/images/T.png'></img>	71,89	2750.0	test	<img class = center src='/static/experiments/beast_fmri_test/images/redT.png'></img>	go	2750.0	2.0	45.0	go	non-target	T	71,Index Finger	89,Middle Finger	0.0	0.0	2750.0	2750.0	1.0	0.0	1.0	n/a	go_stim
207405.62274276873	2561.3772572312891	n/a	860	89	2750	2561.37725723	stim	stop-signal	292	825849	0.0-13.45-1.45	beast_fmri_test	330	823187,/,823865,/,824546,/,825225,/,825905,/,826585,/,827265,/,827946,/	t,t,t,t,t,t,t,t	<img class = center src='/static/experiments/beast_fmri_test/images/T.png'></img>	71,89	2750.0	test	<img class = center src='/static/experiments/beast_fmri_test/images/redT.png'></img>	go	2750.0	2.0	45.0	go	non-target	T	71,Index Finger	89,Middle Finger	0.0	0.0	2750.0	2750.0	1.0	0.0	1.0	n/a	ITI
213064	500	n/a	-1	-1	500	0.0	fixation	poldrack-single-stim	293	828946	0.0-13.46-0.46	beast_fmri_test	330	828625,/	t	<div class = centerbox2><div class = fixation>+</div></div>	none	500.0	test	n/a	n/a	n/a	n/a	n/a	n/a	n/a	n/a	n/a	n/a	n/a	n/a	n/a	n/a	n/a	n/a	n/a	n/a	fixation
213052.41925781698	2750	n/a	420	89	2750	12.580742183	stim	stop-signal	294	831697	0.0-13.46-1.46	beast_fmri_test	330	829304,/,829984,/,830665,/,831345,/	t,t,t,t	<img class = center src='/static/experiments/beast_fmri_test/images/V.png'></img>	71,89	2750.0	test	<img class = center src='/static/experiments/beast_fmri_test/images/redV.png'></img>	go	2750.0	2.0	46.0	go	non-target	V	71,Index Finger	89,Middle Finger	0.0	0.0	2750.0	2750.0	1.0	0.0	1.0	n/a	go_stim
215802.41925781698	12.580742183033594	n/a	420	89	2750	12.580742183	stim	stop-signal	294	831697	0.0-13.46-1.46	beast_fmri_test	330	829304,/,829984,/,830665,/,831345,/	t,t,t,t	<img class = center src='/static/experiments/beast_fmri_test/images/V.png'></img>	71,89	2750.0	test	<img class = center src='/static/experiments/beast_fmri_test/images/redV.png'></img>	go	2750.0	2.0	46.0	go	non-target	V	71,Index Finger	89,Middle Finger	0.0	0.0	2750.0	2750.0	1.0	0.0	1.0	n/a	ITI
230858	15000	n/a	-1	-1	15000	0.0	practice-no-stop-feedback	poldrack-single-stim	295	846740	0.0-14.0	beast_fmri_test	330	832024,/,832704,/,833382,/,834062,/,834741,/,835422,/,836102,/,836781,/,837461,/,838140,/,838819,/,839499,/,840180,/,840859,/,841540,/,842218,/,842897,/,843578,/,844257,/,844937,/,845617,/,846297,/	t,t,t,t,t,t,t,t,t,t,t,t,t,t,t,t,t,t,t,t,t,t	"<div class = ""centerbox""><p class = ""block-text"">Your delay is 2 trials.</p><p class = block-text>Please wait for the scanner to start the block</p></div>"	77	15000.0	n/a	n/a	n/a	n/a	n/a	n/a	n/a	n/a	n/a	n/a	n/a	n/a	n/a	n/a	n/a	n/a	n/a	n/a	n/a	practice-no-stop-feedback
231360	500	n/a	-1	-1	500	0.0	fixation	poldrack-single-stim	296	847242	0.0-15.0-0.0	beast_fmri_test	330	846975,/	t	<div class = centerbox2><div class = fixation>+</div></div>	none	500.0	test	n/a	n/a	n/a	n/a	n/a	n/a	n/a	n/a	n/a	n/a	n/a	n/a	n/a	n/a	n/a	n/a	n/a	n/a	fixation
231287.41693999537	temp_go_duration	n/a	1080	89	2750	74.5830600046	stim	stop-signal	297	849994	0.0-15.0-1.0	beast_fmri_test	330	847655,/,848335,/,849014,/,849696,/	t,t,t,t	<img class = center src='/static/experiments/beast_fmri_test/images/V.png'></img>	71,89	2750.0	test	<img class = center src='/static/experiments/beast_fmri_test/images/redV.png'></img>	stop	-1.0	2.0	0.0	stop	temp-non-target	V	71,Index Finger	89,Middle Finger	0.0	0.0	2750.0	2750.0	0.0	n/a	n/a	0.0	go_stim
temp-non-target	temp_stop_duration	n/a	1080	89	2750	74.5830600046	stim	stop-signal	297	849994	0.0-15.0-1.0	beast_fmri_test	330	847655,/,848335,/,849014,/,849696,/	t,t,t,t	<img class = center src='/static/experiments/beast_fmri_test/images/V.png'></img>	71,89	2750.0	test	<img class = center src='/static/experiments/beast_fmri_test/images/redV.png'></img>	stop	-1.0	2.0	0.0	stop	temp-non-target	V	71,Index Finger	89,Middle Finger	0.0	0.0	2750.0	2750.0	0.0	n/a	n/a	0.0	stop_stim
234037.41693999537	74.583060004620421	n/a	1080	89	2750	74.5830600046	stim	stop-signal	297	849994	0.0-15.0-1.0	beast_fmri_test	330	847655,/,848335,/,849014,/,849696,/	t,t,t,t	<img class = center src='/static/experiments/beast_fmri_test/images/V.png'></img>	71,89	2750.0	test	<img class = center src='/static/experiments/beast_fmri_test/images/redV.png'></img>	stop	-1.0	2.0	0.0	stop	temp-non-target	V	71,Index Finger	89,Middle Finger	0.0	0.0	2750.0	2750.0	0.0	n/a	n/a	0.0	ITI
234724	500	n/a	-1	-1	500	0.0	fixation	poldrack-single-stim	298	850606	0.0-15.1-0.1	beast_fmri_test	330	850375,/	t	<div class = centerbox2><div class = fixation>+</div></div>	none	500.0	test	n/a	n/a	n/a	n/a	n/a	n/a	n/a	n/a	n/a	n/a	n/a	n/a	n/a	n/a	n/a	n/a	n/a	n/a	fixation
231894.4965578306	temp_go_duration	n/a	552	89	2750	2831.50344217	stim	stop-signal	299	853358	0.0-15.1-1.1	beast_fmri_test	330	851054,/,851733,/,852413,/,853092,/,853772,/,854453,/,855131,/,855813,/	t,t,t,t,t,t,t,t	<img class = center src='/static/experiments/beast_fmri_test/images/T.png'></img>	71,89	2750.0	test	<img class = center src='/static/experiments/beast_fmri_test/images/redT.png'></img>	stop	-1.0	2.0	1.0	stop	temp-non-target	T	71,Index Finger	89,Middle Finger	0.0	0.0	2750.0	2750.0	0.0	n/a	n/a	0.0	go_stim
temp-non-target	temp_stop_duration	n/a	552	89	2750	2831.50344217	stim	stop-signal	299	853358	0.0-15.1-1.1	beast_fmri_test	330	851054,/,851733,/,852413,/,853092,/,853772,/,854453,/,855131,/,855813,/	t,t,t,t,t,t,t,t	<img class = center src='/static/experiments/beast_fmri_test/images/T.png'></img>	71,89	2750.0	test	<img class = center src='/static/experiments/beast_fmri_test/images/redT.png'></img>	stop	-1.0	2.0	1.0	stop	temp-non-target	T	71,Index Finger	89,Middle Finger	0.0	0.0	2750.0	2750.0	0.0	n/a	n/a	0.0	stop_stim
234644.4965578306	2831.5034421693586	n/a	552	89	2750	2831.50344217	stim	stop-signal	299	853358	0.0-15.1-1.1	beast_fmri_test	330	851054,/,851733,/,852413,/,853092,/,853772,/,854453,/,855131,/,855813,/	t,t,t,t,t,t,t,t	<img class = center src='/static/experiments/beast_fmri_test/images/T.png'></img>	71,89	2750.0	test	<img class = center src='/static/experiments/beast_fmri_test/images/redT.png'></img>	stop	-1.0	2.0	1.0	stop	temp-non-target	T	71,Index Finger	89,Middle Finger	0.0	0.0	2750.0	2750.0	0.0	n/a	n/a	0.0	ITI
240845	500	n/a	-1	-1	500	0.0	fixation	poldrack-single-stim	300	856727	0.0-15.2-0.2	beast_fmri_test	330	856492,/	t	<div class = centerbox2><div class = fixation>+</div></div>	none	500.0	test	n/a	n/a	n/a	n/a	n/a	n/a	n/a	n/a	n/a	n/a	n/a	n/a	n/a	n/a	n/a	n/a	n/a	n/a	fixation
240126.8069447286	2750	n/a	385	71	2750	719.193055271	stim	stop-signal	301	859478	0.0-15.2-1.2	beast_fmri_test	330	857172,/,857851,/,858530,/,859211,/,859890,/	t,t,t,t,t	<img class = center src='/static/experiments/beast_fmri_test/images/V.png'></img>	71,89	2750.0	test	<img class = center src='/static/experiments/beast_fmri_test/images/redV.png'></img>	go	2750.0	2.0	2.0	go	target	V	71,Index Finger	89,Middle Finger	0.0	0.0	2750.0	2750.0	1.0	0.0	1.0	n/a	go_stim
242876.8069447286	719.19305527137192	n/a	385	71	2750	719.193055271	stim	stop-signal	301	859478	0.0-15.2-1.2	beast_fmri_test	330	857172,/,857851,/,858530,/,859211,/,859890,/	t,t,t,t,t	<img class = center src='/static/experiments/beast_fmri_test/images/V.png'></img>	71,89	2750.0	test	<img class = center src='/static/experiments/beast_fmri_test/images/redV.png'></img>	go	2750.0	2.0	2.0	go	target	V	71,Index Finger	89,Middle Finger	0.0	0.0	2750.0	2750.0	1.0	0.0	1.0	n/a	ITI
244853	500	n/a	-1	-1	500	0.0	fixation	poldrack-single-stim	302	860735	0.0-15.3-0.3	beast_fmri_test	330	860570,/	t	<div class = centerbox2><div class = fixation>+</div></div>	none	500.0	test	n/a	n/a	n/a	n/a	n/a	n/a	n/a	n/a	n/a	n/a	n/a	n/a	n/a	n/a	n/a	n/a	n/a	n/a	fixation
244798.59417458612	2750	n/a	451	89	2750	57.4058254138	stim	stop-signal	303	863488	0.0-15.3-1.3	beast_fmri_test	330	861249,/,861929,/,862609,/,863289,/	t,t,t,t	<img class = center src='/static/experiments/beast_fmri_test/images/V.png'></img>	71,89	2750.0	test	<img class = center src='/static/experiments/beast_fmri_test/images/redV.png'></img>	go	2750.0	2.0	3.0	go	non-target	V	71,Index Finger	89,Middle Finger	0.0	0.0	2750.0	2750.0	1.0	0.0	1.0	n/a	go_stim
247548.59417458612	57.405825413823592	n/a	451	89	2750	57.4058254138	stim	stop-signal	303	863488	0.0-15.3-1.3	beast_fmri_test	330	861249,/,861929,/,862609,/,863289,/	t,t,t,t	<img class = center src='/static/experiments/beast_fmri_test/images/V.png'></img>	71,89	2750.0	test	<img class = center src='/static/experiments/beast_fmri_test/images/redV.png'></img>	go	2750.0	2.0	3.0	go	non-target	V	71,Index Finger	89,Middle Finger	0.0	0.0	2750.0	2750.0	1.0	0.0	1.0	n/a	ITI
248198	500	n/a	-1	-1	500	0.0	fixation	poldrack-single-stim	304	864080	0.0-15.4-0.4	beast_fmri_test	330	863970,/	t	<div class = centerbox2><div class = fixation>+</div></div>	none	500.0	test	n/a	n/a	n/a	n/a	n/a	n/a	n/a	n/a	n/a	n/a	n/a	n/a	n/a	n/a	n/a	n/a	n/a	n/a	fixation
248150.76497800299	2750	n/a	1199	71	2750	49.235021997	stim	stop-signal	305	866832	0.0-15.4-1.4	beast_fmri_test	330	864648,/,865328,/,866007,/,866688,/	t,t,t,t	<img class = center src='/static/experiments/beast_fmri_test/images/T.png'></img>	71,89	2750.0	test	<img class = center src='/static/experiments/beast_fmri_test/images/redT.png'></img>	go	2750.0	2.0	4.0	go	non-target	T	71,Index Finger	89,Middle Finger	0.0	0.0	2750.0	2750.0	0.0	0.0	0.0	n/a	go_stim
250900.76497800299	49.235021996994888	n/a	1199	71	2750	49.235021997	stim	stop-signal	305	866832	0.0-15.4-1.4	beast_fmri_test	330	864648,/,865328,/,866007,/,866688,/	t,t,t,t	<img class = center src='/static/experiments/beast_fmri_test/images/T.png'></img>	71,89	2750.0	test	<img class = center src='/static/experiments/beast_fmri_test/images/redT.png'></img>	go	2750.0	2.0	4.0	go	non-target	T	71,Index Finger	89,Middle Finger	0.0	0.0	2750.0	2750.0	0.0	0.0	0.0	n/a	ITI
251535	500	n/a	-1	-1	500	0.0	fixation	poldrack-single-stim	306	867417	0.0-15.5-0.5	beast_fmri_test	330	867367,/	t	<div class = centerbox2><div class = fixation>+</div></div>	none	500.0	test	n/a	n/a	n/a	n/a	n/a	n/a	n/a	n/a	n/a	n/a	n/a	n/a	n/a	n/a	n/a	n/a	n/a	n/a	fixation
251445.93921852892	2750	n/a	700	89	2750	90.0607814711	stim	stop-signal	307	870168	0.0-15.5-1.5	beast_fmri_test	330	868047,/,868726,/,869405,/,870086,/	t,t,t,t	<img class = center src='/static/experiments/beast_fmri_test/images/T.png'></img>	71,89	2750.0	test	<img class = center src='/static/experiments/beast_fmri_test/images/redT.png'></img>	go	2750.0	2.0	5.0	go	non-target	T	71,Index Finger	89,Middle Finger	0.0	0.0	2750.0	2750.0	1.0	0.0	1.0	n/a	go_stim
254195.93921852892	90.060781471083374	n/a	700	89	2750	90.0607814711	stim	stop-signal	307	870168	0.0-15.5-1.5	beast_fmri_test	330	868047,/,868726,/,869405,/,870086,/	t,t,t,t	<img class = center src='/static/experiments/beast_fmri_test/images/T.png'></img>	71,89	2750.0	test	<img class = center src='/static/experiments/beast_fmri_test/images/redT.png'></img>	go	2750.0	2.0	5.0	go	non-target	T	71,Index Finger	89,Middle Finger	0.0	0.0	2750.0	2750.0	1.0	0.0	1.0	n/a	ITI
254925	500	n/a	-1	-1	500	0.0	fixation	poldrack-single-stim	308	870807	0.0-15.6-0.6	beast_fmri_test	330	870765,/	t	<div class = centerbox2><div class = fixation>+</div></div>	none	500.0	test	n/a	n/a	n/a	n/a	n/a	n/a	n/a	n/a	n/a	n/a	n/a	n/a	n/a	n/a	n/a	n/a	n/a	n/a	fixation
253260.6591435913	2750	n/a	784	89	2750	1667.34085641	stim	stop-signal	309	873560	0.0-15.6-1.6	beast_fmri_test	330	871444,/,872124,/,872803,/,873484,/,874163,/,874842,/	t,t,t,t,t,t	<img class = center src='/static/experiments/beast_fmri_test/images/V.png'></img>	71,89	2750.0	test	<img class = center src='/static/experiments/beast_fmri_test/images/redV.png'></img>	go	2750.0	2.0	6.0	go	non-target	V	71,Index Finger	89,Middle Finger	0.0	0.0	2750.0	2750.0	1.0	0.0	1.0	n/a	go_stim
256010.6591435913	1667.3408564087315	n/a	784	89	2750	1667.34085641	stim	stop-signal	309	873560	0.0-15.6-1.6	beast_fmri_test	330	871444,/,872124,/,872803,/,873484,/,874163,/,874842,/	t,t,t,t,t,t	<img class = center src='/static/experiments/beast_fmri_test/images/V.png'></img>	71,89	2750.0	test	<img class = center src='/static/experiments/beast_fmri_test/images/redV.png'></img>	go	2750.0	2.0	6.0	go	non-target	V	71,Index Finger	89,Middle Finger	0.0	0.0	2750.0	2750.0	1.0	0.0	1.0	n/a	ITI
259884	500	n/a	-1	-1	500	0.0	fixation	poldrack-single-stim	310	875766	0.0-15.7-0.7	beast_fmri_test	330	875522,/	t	<div class = centerbox2><div class = fixation>+</div></div>	none	500.0	test	n/a	n/a	n/a	n/a	n/a	n/a	n/a	n/a	n/a	n/a	n/a	n/a	n/a	n/a	n/a	n/a	n/a	n/a	fixation
259533.92059011548	2750	n/a	599	89	2750	353.079409884	stim	stop-signal	311	878519	0.0-15.7-1.7	beast_fmri_test	330	876202,/,876882,/,877561,/,878242,/	t,t,t,t	<img class = center src='/static/experiments/beast_fmri_test/images/D.png'></img>	71,89	2750.0	test	<img class = center src='/static/experiments/beast_fmri_test/images/redD.png'></img>	go	2750.0	2.0	7.0	go	non-target	D	71,Index Finger	89,Middle Finger	0.0	0.0	2750.0	2750.0	1.0	0.0	1.0	n/a	go_stim
262283.92059011548	353.0794098844716	n/a	599	89	2750	353.079409884	stim	stop-signal	311	878519	0.0-15.7-1.7	beast_fmri_test	330	876202,/,876882,/,877561,/,878242,/	t,t,t,t	<img class = center src='/static/experiments/beast_fmri_test/images/D.png'></img>	71,89	2750.0	test	<img class = center src='/static/experiments/beast_fmri_test/images/redD.png'></img>	go	2750.0	2.0	7.0	go	non-target	D	71,Index Finger	89,Middle Finger	0.0	0.0	2750.0	2750.0	1.0	0.0	1.0	n/a	ITI
263531	500	n/a	-1	-1	500	0.0	fixation	poldrack-single-stim	312	879413	0.0-15.8-0.8	beast_fmri_test	330	878921,/	t	<div class = centerbox2><div class = fixation>+</div></div>	none	500.0	test	n/a	n/a	n/a	n/a	n/a	n/a	n/a	n/a	n/a	n/a	n/a	n/a	n/a	n/a	n/a	n/a	n/a	n/a	fixation
260937.35678165604	0.0	n/a	487	89	2750	2595.64321834	stim	stop-signal	313	882165	0.0-15.8-1.8	beast_fmri_test	330	879601,/,880280,/,880960,/,881639,/,882321,/,882999,/,883679,/,884359,/	t,t,t,t,t,t,t,t	<img class = center src='/static/experiments/beast_fmri_test/images/D.png'></img>	71,89	2750.0	test	<img class = center src='/static/experiments/beast_fmri_test/images/redD.png'></img>	stop	2750.0	2.0	8.0	stop	non-target	D	71,Index Finger	89,Middle Finger	0.0	0.0	2750.0	2750.0	0.0	0.0	n/a	0.0	go_stim
263687.35678165604	2750.0	n/a	487	89	2750	2595.64321834	stim	stop-signal	313	882165	0.0-15.8-1.8	beast_fmri_test	330	879601,/,880280,/,880960,/,881639,/,882321,/,882999,/,883679,/,884359,/	t,t,t,t,t,t,t,t	<img class = center src='/static/experiments/beast_fmri_test/images/D.png'></img>	71,89	2750.0	test	<img class = center src='/static/experiments/beast_fmri_test/images/redD.png'></img>	stop	2750.0	2.0	8.0	stop	non-target	D	71,Index Finger	89,Middle Finger	0.0	0.0	2750.0	2750.0	0.0	0.0	n/a	0.0	stop_stim
263687.35678165604	2595.6432183439306	n/a	487	89	2750	2595.64321834	stim	stop-signal	313	882165	0.0-15.8-1.8	beast_fmri_test	330	879601,/,880280,/,880960,/,881639,/,882321,/,882999,/,883679,/,884359,/	t,t,t,t,t,t,t,t	<img class = center src='/static/experiments/beast_fmri_test/images/D.png'></img>	71,89	2750.0	test	<img class = center src='/static/experiments/beast_fmri_test/images/redD.png'></img>	stop	2750.0	2.0	8.0	stop	non-target	D	71,Index Finger	89,Middle Finger	0.0	0.0	2750.0	2750.0	0.0	0.0	n/a	0.0	ITI
269421	500	n/a	-1	-1	500	0.0	fixation	poldrack-single-stim	314	885303	0.0-15.9-0.9	beast_fmri_test	330	885039,/	t	<div class = centerbox2><div class = fixation>+</div></div>	none	500.0	test	n/a	n/a	n/a	n/a	n/a	n/a	n/a	n/a	n/a	n/a	n/a	n/a	n/a	n/a	n/a	n/a	n/a	n/a	fixation
269087.67441768537	0.0	n/a	411	89	2750	334.325582315	stim	stop-signal	315	888054	0.0-15.9-1.9	beast_fmri_test	330	885717,/,886398,/,887078,/,887757,/	t,t,t,t	<img class = center src='/static/experiments/beast_fmri_test/images/T.png'></img>	71,89	2750.0	test	<img class = center src='/static/experiments/beast_fmri_test/images/redT.png'></img>	stop	2750.0	2.0	9.0	stop	non-target	T	71,Index Finger	89,Middle Finger	0.0	0.0	2750.0	2750.0	0.0	0.0	n/a	0.0	go_stim
271837.67441768537	2750.0	n/a	411	89	2750	334.325582315	stim	stop-signal	315	888054	0.0-15.9-1.9	beast_fmri_test	330	885717,/,886398,/,887078,/,887757,/	t,t,t,t	<img class = center src='/static/experiments/beast_fmri_test/images/T.png'></img>	71,89	2750.0	test	<img class = center src='/static/experiments/beast_fmri_test/images/redT.png'></img>	stop	2750.0	2.0	9.0	stop	non-target	T	71,Index Finger	89,Middle Finger	0.0	0.0	2750.0	2750.0	0.0	0.0	n/a	0.0	stop_stim
271837.67441768537	334.32558231459882	n/a	411	89	2750	334.325582315	stim	stop-signal	315	888054	0.0-15.9-1.9	beast_fmri_test	330	885717,/,886398,/,887078,/,887757,/	t,t,t,t	<img class = center src='/static/experiments/beast_fmri_test/images/T.png'></img>	71,89	2750.0	test	<img class = center src='/static/experiments/beast_fmri_test/images/redT.png'></img>	stop	2750.0	2.0	9.0	stop	non-target	T	71,Index Finger	89,Middle Finger	0.0	0.0	2750.0	2750.0	0.0	0.0	n/a	0.0	ITI
273045	500	n/a	-1	-1	500	0.0	fixation	poldrack-single-stim	316	888927	0.0-15.10-0.10	beast_fmri_test	330	888442,/	t	<div class = centerbox2><div class = fixation>+</div></div>	none	500.0	test	n/a	n/a	n/a	n/a	n/a	n/a	n/a	n/a	n/a	n/a	n/a	n/a	n/a	n/a	n/a	n/a	n/a	n/a	fixation
272065.28132967069	2750	n/a	473	89	2750	981.718670329	stim	stop-signal	317	891679	0.0-15.10-1.10	beast_fmri_test	330	889117,/,889796,/,890477,/,891155,/,891836,/,892516,/	t,t,t,t,t,t	<img class = center src='/static/experiments/beast_fmri_test/images/B.png'></img>	71,89	2750.0	test	<img class = center src='/static/experiments/beast_fmri_test/images/redB.png'></img>	go	2750.0	2.0	10.0	go	non-target	B	71,Index Finger	89,Middle Finger	0.0	0.0	2750.0	2750.0	1.0	0.0	1.0	n/a	go_stim
274815.28132967069	981.71867032934688	n/a	473	89	2750	981.718670329	stim	stop-signal	317	891679	0.0-15.10-1.10	beast_fmri_test	330	889117,/,889796,/,890477,/,891155,/,891836,/,892516,/	t,t,t,t,t,t	<img class = center src='/static/experiments/beast_fmri_test/images/B.png'></img>	71,89	2750.0	test	<img class = center src='/static/experiments/beast_fmri_test/images/redB.png'></img>	go	2750.0	2.0	10.0	go	non-target	B	71,Index Finger	89,Middle Finger	0.0	0.0	2750.0	2750.0	1.0	0.0	1.0	n/a	ITI
277323	500	n/a	-1	-1	500	0.0	fixation	poldrack-single-stim	318	893205	0.0-15.11-0.11	beast_fmri_test	330	893195,/	t	<div class = centerbox2><div class = fixation>+</div></div>	none	500.0	test	n/a	n/a	n/a	n/a	n/a	n/a	n/a	n/a	n/a	n/a	n/a	n/a	n/a	n/a	n/a	n/a	n/a	n/a	fixation
276957.25692442094	0.0	n/a	581	89	2750	366.743075579	stim	stop-signal	319	895956	0.0-15.11-1.11	beast_fmri_test	330	893875,/,894554,/,895233,/,895913,/	t,t,t,t	<img class = center src='/static/experiments/beast_fmri_test/images/B.png'></img>	71,89	2750.0	test	<img class = center src='/static/experiments/beast_fmri_test/images/redB.png'></img>	stop	2750.0	2.0	11.0	stop	non-target	B	71,Index Finger	89,Middle Finger	0.0	0.0	2750.0	2750.0	0.0	0.0	n/a	0.0	go_stim
279707.25692442094	2750.0	n/a	581	89	2750	366.743075579	stim	stop-signal	319	895956	0.0-15.11-1.11	beast_fmri_test	330	893875,/,894554,/,895233,/,895913,/	t,t,t,t	<img class = center src='/static/experiments/beast_fmri_test/images/B.png'></img>	71,89	2750.0	test	<img class = center src='/static/experiments/beast_fmri_test/images/redB.png'></img>	stop	2750.0	2.0	11.0	stop	non-target	B	71,Index Finger	89,Middle Finger	0.0	0.0	2750.0	2750.0	0.0	0.0	n/a	0.0	stop_stim
279707.25692442094	366.74307557901182	n/a	581	89	2750	366.743075579	stim	stop-signal	319	895956	0.0-15.11-1.11	beast_fmri_test	330	893875,/,894554,/,895233,/,895913,/	t,t,t,t	<img class = center src='/static/experiments/beast_fmri_test/images/B.png'></img>	71,89	2750.0	test	<img class = center src='/static/experiments/beast_fmri_test/images/redB.png'></img>	stop	2750.0	2.0	11.0	stop	non-target	B	71,Index Finger	89,Middle Finger	0.0	0.0	2750.0	2750.0	0.0	0.0	n/a	0.0	ITI
280981	500	n/a	-1	-1	500	0.0	fixation	poldrack-single-stim	320	896863	0.0-15.12-0.12	beast_fmri_test	330	896594,/	t	<div class = centerbox2><div class = fixation>+</div></div>	none	500.0	test	n/a	n/a	n/a	n/a	n/a	n/a	n/a	n/a	n/a	n/a	n/a	n/a	n/a	n/a	n/a	n/a	n/a	n/a	fixation
280257.44743967452	0.0	n/a	690	89	2750	726.552560325	stim	stop-signal	321	899616	0.0-15.12-1.12	beast_fmri_test	330	897274,/,897954,/,898632,/,899312,/,899991,/	t,t,t,t,t	<img class = center src='/static/experiments/beast_fmri_test/images/B.png'></img>	71,89	2750.0	test	<img class = center src='/static/experiments/beast_fmri_test/images/redB.png'></img>	stop	2750.0	2.0	12.0	stop	target	B	71,Index Finger	89,Middle Finger	0.0	0.0	2750.0	2750.0	0.0	0.0	n/a	0.0	go_stim
283007.44743967452	2750.0	n/a	690	89	2750	726.552560325	stim	stop-signal	321	899616	0.0-15.12-1.12	beast_fmri_test	330	897274,/,897954,/,898632,/,899312,/,899991,/	t,t,t,t,t	<img class = center src='/static/experiments/beast_fmri_test/images/B.png'></img>	71,89	2750.0	test	<img class = center src='/static/experiments/beast_fmri_test/images/redB.png'></img>	stop	2750.0	2.0	12.0	stop	target	B	71,Index Finger	89,Middle Finger	0.0	0.0	2750.0	2750.0	0.0	0.0	n/a	0.0	stop_stim
283007.44743967452	726.55256032543195	n/a	690	89	2750	726.552560325	stim	stop-signal	321	899616	0.0-15.12-1.12	beast_fmri_test	330	897274,/,897954,/,898632,/,899312,/,899991,/	t,t,t,t,t	<img class = center src='/static/experiments/beast_fmri_test/images/B.png'></img>	71,89	2750.0	test	<img class = center src='/static/experiments/beast_fmri_test/images/redB.png'></img>	stop	2750.0	2.0	12.0	stop	target	B	71,Index Finger	89,Middle Finger	0.0	0.0	2750.0	2750.0	0.0	0.0	n/a	0.0	ITI
284999	500	n/a	-1	-1	500	0.0	fixation	poldrack-single-stim	322	900881	0.0-15.13-0.13	beast_fmri_test	330	900671,/	t	<div class = centerbox2><div class = fixation>+</div></div>	none	500.0	test	n/a	n/a	n/a	n/a	n/a	n/a	n/a	n/a	n/a	n/a	n/a	n/a	n/a	n/a	n/a	n/a	n/a	n/a	fixation
283805.04431350087	2750	n/a	426	89	2750	1194.9556865	stim	stop-signal	323	903632	0.0-15.13-1.13	beast_fmri_test	330	901351,/,902031,/,902711,/,903390,/,904069,/,904748,/	t,t,t,t,t,t	<img class = center src='/static/experiments/beast_fmri_test/images/T.png'></img>	71,89	2750.0	test	<img class = center src='/static/experiments/beast_fmri_test/images/redT.png'></img>	go	2750.0	2.0	13.0	go	non-target	T	71,Index Finger	89,Middle Finger	0.0	0.0	2750.0	2750.0	1.0	0.0	1.0	n/a	go_stim
286555.04431350087	1194.9556864991184	n/a	426	89	2750	1194.9556865	stim	stop-signal	323	903632	0.0-15.13-1.13	beast_fmri_test	330	901351,/,902031,/,902711,/,903390,/,904069,/,904748,/	t,t,t,t,t,t	<img class = center src='/static/experiments/beast_fmri_test/images/T.png'></img>	71,89	2750.0	test	<img class = center src='/static/experiments/beast_fmri_test/images/redT.png'></img>	go	2750.0	2.0	13.0	go	non-target	T	71,Index Finger	89,Middle Finger	0.0	0.0	2750.0	2750.0	1.0	0.0	1.0	n/a	ITI
289490	500	n/a	-1	-1	500	0.0	fixation	poldrack-single-stim	324	905372	0.0-15.14-0.14	beast_fmri_test	330	n/a	n/a	<div class = centerbox2><div class = fixation>+</div></div>	none	500.0	test	n/a	n/a	n/a	n/a	n/a	n/a	n/a	n/a	n/a	n/a	n/a	n/a	n/a	n/a	n/a	n/a	n/a	n/a	fixation
289329.33447407652	0.0	n/a	544	89	2750	162.665525923	stim	stop-signal	325	908124	0.0-15.14-1.14	beast_fmri_test	330	905428,/,906108,/,906788,/,907469,/,908149,/	t,t,t,t,t	<img class = center src='/static/experiments/beast_fmri_test/images/T.png'></img>	71,89	2750.0	test	<img class = center src='/static/experiments/beast_fmri_test/images/redT.png'></img>	stop	2750.0	2.0	14.0	stop	non-target	T	71,Index Finger	89,Middle Finger	0.0	0.0	2750.0	2750.0	0.0	0.0	n/a	0.0	go_stim
292079.33447407652	2750.0	n/a	544	89	2750	162.665525923	stim	stop-signal	325	908124	0.0-15.14-1.14	beast_fmri_test	330	905428,/,906108,/,906788,/,907469,/,908149,/	t,t,t,t,t	<img class = center src='/static/experiments/beast_fmri_test/images/T.png'></img>	71,89	2750.0	test	<img class = center src='/static/experiments/beast_fmri_test/images/redT.png'></img>	stop	2750.0	2.0	14.0	stop	non-target	T	71,Index Finger	89,Middle Finger	0.0	0.0	2750.0	2750.0	0.0	0.0	n/a	0.0	stop_stim
292079.33447407652	162.6655259234885	n/a	544	89	2750	162.665525923	stim	stop-signal	325	908124	0.0-15.14-1.14	beast_fmri_test	330	905428,/,906108,/,906788,/,907469,/,908149,/	t,t,t,t,t	<img class = center src='/static/experiments/beast_fmri_test/images/T.png'></img>	71,89	2750.0	test	<img class = center src='/static/experiments/beast_fmri_test/images/redT.png'></img>	stop	2750.0	2.0	14.0	stop	non-target	T	71,Index Finger	89,Middle Finger	0.0	0.0	2750.0	2750.0	0.0	0.0	n/a	0.0	ITI
292947	500	n/a	-1	-1	500	0.0	fixation	poldrack-single-stim	326	908829	0.0-15.15-0.15	beast_fmri_test	330	908827,/	t	<div class = centerbox2><div class = fixation>+</div></div>	none	500.0	test	n/a	n/a	n/a	n/a	n/a	n/a	n/a	n/a	n/a	n/a	n/a	n/a	n/a	n/a	n/a	n/a	n/a	n/a	fixation
292053.26312330493	2750	n/a	391	71	2750	896.736876695	stim	stop-signal	327	911582	0.0-15.15-1.15	beast_fmri_test	330	909506,/,910186,/,910867,/,911546,/,912234,/	t,t,t,t,t	<img class = center src='/static/experiments/beast_fmri_test/images/T.png'></img>	71,89	2750.0	test	<img class = center src='/static/experiments/beast_fmri_test/images/redT.png'></img>	go	2750.0	2.0	15.0	go	target	T	71,Index Finger	89,Middle Finger	0.0	0.0	2750.0	2750.0	1.0	0.0	1.0	n/a	go_stim
294803.26312330493	896.73687669509889	n/a	391	71	2750	896.736876695	stim	stop-signal	327	911582	0.0-15.15-1.15	beast_fmri_test	330	909506,/,910186,/,910867,/,911546,/,912234,/	t,t,t,t,t	<img class = center src='/static/experiments/beast_fmri_test/images/T.png'></img>	71,89	2750.0	test	<img class = center src='/static/experiments/beast_fmri_test/images/redT.png'></img>	go	2750.0	2.0	15.0	go	target	T	71,Index Finger	89,Middle Finger	0.0	0.0	2750.0	2750.0	1.0	0.0	1.0	n/a	ITI
297132	500	n/a	-1	-1	500	0.0	fixation	poldrack-single-stim	328	913014	0.0-15.16-0.16	beast_fmri_test	330	912905,/	t	<div class = centerbox2><div class = fixation>+</div></div>	none	500.0	test	n/a	n/a	n/a	n/a	n/a	n/a	n/a	n/a	n/a	n/a	n/a	n/a	n/a	n/a	n/a	n/a	n/a	n/a	fixation
295264.53439531859	2750	n/a	739	89	2750	1868.46560468	stim	stop-signal	329	915765	0.0-15.16-1.16	beast_fmri_test	330	913586,/,914267,/,914946,/,915625,/,916305,/,916984,/	t,t,t,t,t,t	<img class = center src='/static/experiments/beast_fmri_test/images/P.png'></img>	71,89	2750.0	test	<img class = center src='/static/experiments/beast_fmri_test/images/redP.png'></img>	go	2750.0	2.0	16.0	go	non-target	P	71,Index Finger	89,Middle Finger	0.0	0.0	2750.0	2750.0	1.0	0.0	1.0	n/a	go_stim
298014.53439531859	1868.4656046813586	n/a	739	89	2750	1868.46560468	stim	stop-signal	329	915765	0.0-15.16-1.16	beast_fmri_test	330	913586,/,914267,/,914946,/,915625,/,916305,/,916984,/	t,t,t,t,t,t	<img class = center src='/static/experiments/beast_fmri_test/images/P.png'></img>	71,89	2750.0	test	<img class = center src='/static/experiments/beast_fmri_test/images/redP.png'></img>	go	2750.0	2.0	16.0	go	non-target	P	71,Index Finger	89,Middle Finger	0.0	0.0	2750.0	2750.0	1.0	0.0	1.0	n/a	ITI
302296	500	n/a	-1	-1	500	0.0	fixation	poldrack-single-stim	330	918178	0.0-15.17-0.17	beast_fmri_test	330	917675,/	t	<div class = centerbox2><div class = fixation>+</div></div>	none	500.0	test	n/a	n/a	n/a	n/a	n/a	n/a	n/a	n/a	n/a	n/a	n/a	n/a	n/a	n/a	n/a	n/a	n/a	n/a	fixation
300900.64966356091	2750	n/a	361	71	2750	1396.35033644	stim	stop-signal	331	920929	0.0-15.17-1.17	beast_fmri_test	330	918344,/,919023,/,919703,/,920383,/,921062,/,921742,/	t,t,t,t,t,t	<img class = center src='/static/experiments/beast_fmri_test/images/T.png'></img>	71,89	2750.0	test	<img class = center src='/static/experiments/beast_fmri_test/images/redT.png'></img>	go	2750.0	2.0	17.0	go	target	T	71,Index Finger	89,Middle Finger	0.0	0.0	2750.0	2750.0	1.0	0.0	1.0	n/a	go_stim
303650.64966356091	1396.3503364391095	n/a	361	71	2750	1396.35033644	stim	stop-signal	331	920929	0.0-15.17-1.17	beast_fmri_test	330	918344,/,919023,/,919703,/,920383,/,921062,/,921742,/	t,t,t,t,t,t	<img class = center src='/static/experiments/beast_fmri_test/images/T.png'></img>	71,89	2750.0	test	<img class = center src='/static/experiments/beast_fmri_test/images/redT.png'></img>	go	2750.0	2.0	17.0	go	target	T	71,Index Finger	89,Middle Finger	0.0	0.0	2750.0	2750.0	1.0	0.0	1.0	n/a	ITI
306983	500	n/a	-1	-1	500	0.0	fixation	poldrack-single-stim	332	922865	0.0-15.18-0.18	beast_fmri_test	330	922421,/	t	<div class = centerbox2><div class = fixation>+</div></div>	none	500.0	test	n/a	n/a	n/a	n/a	n/a	n/a	n/a	n/a	n/a	n/a	n/a	n/a	n/a	n/a	n/a	n/a	n/a	n/a	fixation
306774.86194116913	2750	n/a	586	89	2750	209.138058831	stim	stop-signal	333	925616	0.0-15.18-1.18	beast_fmri_test	330	923101,/,923780,/,924461,/,925141,/,925820,/	t,t,t,t,t	<img class = center src='/static/experiments/beast_fmri_test/images/B.png'></img>	71,89	2750.0	test	<img class = center src='/static/experiments/beast_fmri_test/images/redB.png'></img>	go	2750.0	2.0	18.0	go	non-target	B	71,Index Finger	89,Middle Finger	0.0	0.0	2750.0	2750.0	1.0	0.0	1.0	n/a	go_stim
309524.86194116913	209.1380588308694	n/a	586	89	2750	209.138058831	stim	stop-signal	333	925616	0.0-15.18-1.18	beast_fmri_test	330	923101,/,923780,/,924461,/,925141,/,925820,/	t,t,t,t,t	<img class = center src='/static/experiments/beast_fmri_test/images/B.png'></img>	71,89	2750.0	test	<img class = center src='/static/experiments/beast_fmri_test/images/redB.png'></img>	go	2750.0	2.0	18.0	go	non-target	B	71,Index Finger	89,Middle Finger	0.0	0.0	2750.0	2750.0	1.0	0.0	1.0	n/a	ITI
310481	500	n/a	-1	-1	500	0.0	fixation	poldrack-single-stim	334	926363	0.0-15.19-0.19	beast_fmri_test	330	n/a	n/a	<div class = centerbox2><div class = fixation>+</div></div>	none	500.0	test	n/a	n/a	n/a	n/a	n/a	n/a	n/a	n/a	n/a	n/a	n/a	n/a	n/a	n/a	n/a	n/a	n/a	n/a	fixation
309657.4243153875	0.0	n/a	448	89	2750	825.575684612	stim	stop-signal	335	929115	0.0-15.19-1.19	beast_fmri_test	330	926501,/,927179,/,927859,/,928538,/,929220,/,929898,/	t,t,t,t,t,t	<img class = center src='/static/experiments/beast_fmri_test/images/B.png'></img>	71,89	2750.0	test	<img class = center src='/static/experiments/beast_fmri_test/images/redB.png'></img>	stop	2750.0	2.0	19.0	stop	non-target	B	71,Index Finger	89,Middle Finger	0.0	0.0	2750.0	2750.0	0.0	0.0	n/a	0.0	go_stim
312407.4243153875	2750.0	n/a	448	89	2750	825.575684612	stim	stop-signal	335	929115	0.0-15.19-1.19	beast_fmri_test	330	926501,/,927179,/,927859,/,928538,/,929220,/,929898,/	t,t,t,t,t,t	<img class = center src='/static/experiments/beast_fmri_test/images/B.png'></img>	71,89	2750.0	test	<img class = center src='/static/experiments/beast_fmri_test/images/redB.png'></img>	stop	2750.0	2.0	19.0	stop	non-target	B	71,Index Finger	89,Middle Finger	0.0	0.0	2750.0	2750.0	0.0	0.0	n/a	0.0	stop_stim
312407.4243153875	825.57568461245512	n/a	448	89	2750	825.575684612	stim	stop-signal	335	929115	0.0-15.19-1.19	beast_fmri_test	330	926501,/,927179,/,927859,/,928538,/,929220,/,929898,/	t,t,t,t,t,t	<img class = center src='/static/experiments/beast_fmri_test/images/B.png'></img>	71,89	2750.0	test	<img class = center src='/static/experiments/beast_fmri_test/images/redB.png'></img>	stop	2750.0	2.0	19.0	stop	non-target	B	71,Index Finger	89,Middle Finger	0.0	0.0	2750.0	2750.0	0.0	0.0	n/a	0.0	ITI
314593	500	n/a	-1	-1	500	0.0	fixation	poldrack-single-stim	336	930475	0.0-15.20-0.20	beast_fmri_test	330	n/a	n/a	<div class = centerbox2><div class = fixation>+</div></div>	none	500.0	test	n/a	n/a	n/a	n/a	n/a	n/a	n/a	n/a	n/a	n/a	n/a	n/a	n/a	n/a	n/a	n/a	n/a	n/a	fixation
314353.54127984797	0.0	n/a	602	71	2750	240.458720152	stim	stop-signal	337	933226	0.0-15.20-1.20	beast_fmri_test	330	930578,/,931258,/,931936,/,932616,/,933296,/	t,t,t,t,t	<img class = center src='/static/experiments/beast_fmri_test/images/B.png'></img>	71,89	2750.0	test	<img class = center src='/static/experiments/beast_fmri_test/images/redB.png'></img>	stop	2750.0	2.0	20.0	stop	target	B	71,Index Finger	89,Middle Finger	0.0	0.0	2750.0	2750.0	0.0	0.0	n/a	0.0	go_stim
317103.54127984797	2750.0	n/a	602	71	2750	240.458720152	stim	stop-signal	337	933226	0.0-15.20-1.20	beast_fmri_test	330	930578,/,931258,/,931936,/,932616,/,933296,/	t,t,t,t,t	<img class = center src='/static/experiments/beast_fmri_test/images/B.png'></img>	71,89	2750.0	test	<img class = center src='/static/experiments/beast_fmri_test/images/redB.png'></img>	stop	2750.0	2.0	20.0	stop	target	B	71,Index Finger	89,Middle Finger	0.0	0.0	2750.0	2750.0	0.0	0.0	n/a	0.0	stop_stim
317103.54127984797	240.45872015198159	n/a	602	71	2750	240.458720152	stim	stop-signal	337	933226	0.0-15.20-1.20	beast_fmri_test	330	930578,/,931258,/,931936,/,932616,/,933296,/	t,t,t,t,t	<img class = center src='/static/experiments/beast_fmri_test/images/B.png'></img>	71,89	2750.0	test	<img class = center src='/static/experiments/beast_fmri_test/images/redB.png'></img>	stop	2750.0	2.0	20.0	stop	target	B	71,Index Finger	89,Middle Finger	0.0	0.0	2750.0	2750.0	0.0	0.0	n/a	0.0	ITI
318128	500	n/a	-1	-1	500	0.0	fixation	poldrack-single-stim	338	934010	0.0-15.21-0.21	beast_fmri_test	330	933977,/	t	<div class = centerbox2><div class = fixation>+</div></div>	none	500.0	test	n/a	n/a	n/a	n/a	n/a	n/a	n/a	n/a	n/a	n/a	n/a	n/a	n/a	n/a	n/a	n/a	n/a	n/a	fixation
316912.69627794647	0.0	n/a	526	71	2750	1217.30372205	stim	stop-signal	339	936762	0.0-15.21-1.21	beast_fmri_test	330	934656,/,935336,/,936015,/,936694,/,937374,/	t,t,t,t,t	<img class = center src='/static/experiments/beast_fmri_test/images/B.png'></img>	71,89	2750.0	test	<img class = center src='/static/experiments/beast_fmri_test/images/redB.png'></img>	stop	2750.0	2.0	21.0	stop	target	B	71,Index Finger	89,Middle Finger	0.0	0.0	2750.0	2750.0	0.0	0.0	n/a	0.0	go_stim
319662.69627794647	2750.0	n/a	526	71	2750	1217.30372205	stim	stop-signal	339	936762	0.0-15.21-1.21	beast_fmri_test	330	934656,/,935336,/,936015,/,936694,/,937374,/	t,t,t,t,t	<img class = center src='/static/experiments/beast_fmri_test/images/B.png'></img>	71,89	2750.0	test	<img class = center src='/static/experiments/beast_fmri_test/images/redB.png'></img>	stop	2750.0	2.0	21.0	stop	target	B	71,Index Finger	89,Middle Finger	0.0	0.0	2750.0	2750.0	0.0	0.0	n/a	0.0	stop_stim
319662.69627794647	1217.3037220535155	n/a	526	71	2750	1217.30372205	stim	stop-signal	339	936762	0.0-15.21-1.21	beast_fmri_test	330	934656,/,935336,/,936015,/,936694,/,937374,/	t,t,t,t,t	<img class = center src='/static/experiments/beast_fmri_test/images/B.png'></img>	71,89	2750.0	test	<img class = center src='/static/experiments/beast_fmri_test/images/redB.png'></img>	stop	2750.0	2.0	21.0	stop	target	B	71,Index Finger	89,Middle Finger	0.0	0.0	2750.0	2750.0	0.0	0.0	n/a	0.0	ITI
322640	500	n/a	-1	-1	500	0.0	fixation	poldrack-single-stim	340	938522	0.0-15.22-0.22	beast_fmri_test	330	938064,/	t	<div class = centerbox2><div class = fixation>+</div></div>	none	500.0	test	n/a	n/a	n/a	n/a	n/a	n/a	n/a	n/a	n/a	n/a	n/a	n/a	n/a	n/a	n/a	n/a	n/a	n/a	fixation
