onset	duration	text	rt	key_press	block_duration	timing_post_trial	trial_id	trial_type	trial_index	time_elapsed	internal_node_id	exp_id	subject_id	trigger_times	triggers	stimulus	possible_responses	stim_duration	exp_stage	SS_stimulus	SS_trial_type	SS_duration	load	trial_num	stop_trial_type	adaptive_trial_type	stim	yes_response_key	no_response_key	SSD_target	SSD_non_target	SSTarget	SSNonTarget	go_acc	SS_delay	adaptive_acc	stop_acc	new_trial_type
test	10880	n/a	-1	-1	10880	0.0	practice-no-stop-feedback	poldrack-single-stim	392	1156340	0.0-18.0	beast_fmri_test	330	1145463,/,1146141,/,1146820,/,1147502,/,1148180,/,1148860,/,1149540,/,1150220,/,1150898,/,1151578,/,1152257,/,1152938,/,1153617,/,1154297,/,1154977,/,1155657,/,1156336,/	t,t,t,t,t,t,t,t,t,t,t,t,t,t,t,t,t	"<div class = ""centerbox""><p class = ""block-text"">Your delay is 3 trials.</p><p class = block-text>Please wait for the scanner to start the block</p></div>"	77	10880.0	n/a	n/a	n/a	n/a	n/a	n/a	n/a	n/a	n/a	n/a	n/a	n/a	n/a	n/a	n/a	n/a	n/a	n/a	n/a	start_functional_block
11382	500	n/a	-1	-1	500	0.0	fixation	poldrack-single-stim	393	1156845	0.0-19.0-0.0	beast_fmri_test	330	n/a	n/a	<div class = centerbox2><div class = fixation>+</div></div>	none	500.0	test	n/a	n/a	n/a	n/a	n/a	n/a	n/a	n/a	n/a	n/a	n/a	n/a	n/a	n/a	n/a	n/a	n/a	n/a	fixation
10484.771828081692	2750	n/a	1215	89	2750	897.228171918	stim	stop-signal	394	1159595	0.0-19.0-1.0	beast_fmri_test	330	1157016,/,1157696,/,1158375,/,1159056,/,1159734,/,1160414,/	t,t,t,t,t,t	<img class = center src='/static/experiments/beast_fmri_test/images/T.png'></img>	71,89	2750.0	test	<img class = center src='/static/experiments/beast_fmri_test/images/redT.png'></img>	go	-1.0	3.0	0.0	go	temp-non-target	T	71,Index Finger	89,Middle Finger	0.0	0.0	2750.0	2750.0	0.0	n/a	n/a	n/a	go_stim
13234.771828081692	897.22817191823196	n/a	1215	89	2750	897.228171918	stim	stop-signal	394	1159595	0.0-19.0-1.0	beast_fmri_test	330	1157016,/,1157696,/,1158375,/,1159056,/,1159734,/,1160414,/	t,t,t,t,t,t	<img class = center src='/static/experiments/beast_fmri_test/images/T.png'></img>	71,89	2750.0	test	<img class = center src='/static/experiments/beast_fmri_test/images/redT.png'></img>	go	-1.0	3.0	0.0	go	temp-non-target	T	71,Index Finger	89,Middle Finger	0.0	0.0	2750.0	2750.0	0.0	n/a	n/a	n/a	ITI
15576	500	n/a	-1	-1	500	0.0	fixation	poldrack-single-stim	395	1161039	0.0-19.1-0.1	beast_fmri_test	330	n/a	n/a	<div class = centerbox2><div class = fixation>+</div></div>	none	500.0	test	n/a	n/a	n/a	n/a	n/a	n/a	n/a	n/a	n/a	n/a	n/a	n/a	n/a	n/a	n/a	n/a	n/a	n/a	fixation
14264.483655539341	2750	n/a	610	89	2750	1312.51634446	stim	stop-signal	396	1163790	0.0-19.1-1.1	beast_fmri_test	330	1161095,/,1161773,/,1162455,/,1163133,/,1163815,/,1164494,/	t,t,t,t,t,t	<img class = center src='/static/experiments/beast_fmri_test/images/D.png'></img>	71,89	2750.0	test	<img class = center src='/static/experiments/beast_fmri_test/images/redD.png'></img>	go	-1.0	3.0	1.0	go	temp-non-target	D	71,Index Finger	89,Middle Finger	0.0	0.0	2750.0	2750.0	0.0	n/a	n/a	n/a	go_stim
17014.483655539341	1312.5163444606414	n/a	610	89	2750	1312.51634446	stim	stop-signal	396	1163790	0.0-19.1-1.1	beast_fmri_test	330	1161095,/,1161773,/,1162455,/,1163133,/,1163815,/,1164494,/	t,t,t,t,t,t	<img class = center src='/static/experiments/beast_fmri_test/images/D.png'></img>	71,89	2750.0	test	<img class = center src='/static/experiments/beast_fmri_test/images/redD.png'></img>	go	-1.0	3.0	1.0	go	temp-non-target	D	71,Index Finger	89,Middle Finger	0.0	0.0	2750.0	2750.0	0.0	n/a	n/a	n/a	ITI
20185	500	n/a	-1	-1	500	0.0	fixation	poldrack-single-stim	397	1165648	0.0-19.2-0.2	beast_fmri_test	330	1165172,/	t	<div class = centerbox2><div class = fixation>+</div></div>	none	500.0	test	n/a	n/a	n/a	n/a	n/a	n/a	n/a	n/a	n/a	n/a	n/a	n/a	n/a	n/a	n/a	n/a	n/a	n/a	fixation
19450.067375867395	2750	n/a	864	89	2750	737.932624133	stim	stop-signal	398	1168401	0.0-19.2-1.2	beast_fmri_test	330	1165851,/,1166531,/,1167211,/,1167891,/,1168571,/	t,t,t,t,t	<img class = center src='/static/experiments/beast_fmri_test/images/D.png'></img>	71,89	2750.0	test	<img class = center src='/static/experiments/beast_fmri_test/images/redD.png'></img>	go	-1.0	3.0	2.0	go	temp-non-target	D	71,Index Finger	89,Middle Finger	0.0	0.0	2750.0	2750.0	0.0	n/a	n/a	n/a	go_stim
22200.067375867395	737.93262413252455	n/a	864	89	2750	737.932624133	stim	stop-signal	398	1168401	0.0-19.2-1.2	beast_fmri_test	330	1165851,/,1166531,/,1167211,/,1167891,/,1168571,/	t,t,t,t,t	<img class = center src='/static/experiments/beast_fmri_test/images/D.png'></img>	71,89	2750.0	test	<img class = center src='/static/experiments/beast_fmri_test/images/redD.png'></img>	go	-1.0	3.0	2.0	go	temp-non-target	D	71,Index Finger	89,Middle Finger	0.0	0.0	2750.0	2750.0	0.0	n/a	n/a	n/a	ITI
24221	500	n/a	-1	-1	500	0.0	fixation	poldrack-single-stim	399	1169684	0.0-19.3-0.3	beast_fmri_test	330	1169251,/	t	<div class = centerbox2><div class = fixation>+</div></div>	none	500.0	test	n/a	n/a	n/a	n/a	n/a	n/a	n/a	n/a	n/a	n/a	n/a	n/a	n/a	n/a	n/a	n/a	n/a	n/a	fixation
22174.857689582743	2750	n/a	425	71	2750	2047.14231042	stim	stop-signal	400	1172435	0.0-19.3-1.3	beast_fmri_test	330	1169929,/,1170608,/,1171288,/,1171970,/,1172649,/,1173329,/,1174008,/	t,t,t,t,t,t,t	<img class = center src='/static/experiments/beast_fmri_test/images/T.png'></img>	71,89	2750.0	test	<img class = center src='/static/experiments/beast_fmri_test/images/redT.png'></img>	go	2750.0	3.0	3.0	go	target	T	71,Index Finger	89,Middle Finger	0.0	0.0	2750.0	2750.0	1.0	0.0	1.0	n/a	go_stim
24924.857689582743	2047.1423104172209	n/a	425	71	2750	2047.14231042	stim	stop-signal	400	1172435	0.0-19.3-1.3	beast_fmri_test	330	1169929,/,1170608,/,1171288,/,1171970,/,1172649,/,1173329,/,1174008,/	t,t,t,t,t,t,t	<img class = center src='/static/experiments/beast_fmri_test/images/T.png'></img>	71,89	2750.0	test	<img class = center src='/static/experiments/beast_fmri_test/images/redT.png'></img>	go	2750.0	3.0	3.0	go	target	T	71,Index Finger	89,Middle Finger	0.0	0.0	2750.0	2750.0	1.0	0.0	1.0	n/a	ITI
29563	500	n/a	-1	-1	500	0.0	fixation	poldrack-single-stim	401	1175026	0.0-19.4-0.4	beast_fmri_test	330	1174688,/	t	<div class = centerbox2><div class = fixation>+</div></div>	none	500.0	test	n/a	n/a	n/a	n/a	n/a	n/a	n/a	n/a	n/a	n/a	n/a	n/a	n/a	n/a	n/a	n/a	n/a	n/a	fixation
28626.83958667051	2750	n/a	648	89	2750	938.160413329	stim	stop-signal	402	1177778	0.0-19.4-1.4	beast_fmri_test	330	1175368,/,1176048,/,1176727,/,1177408,/,1178087,/	t,t,t,t,t	<img class = center src='/static/experiments/beast_fmri_test/images/P.png'></img>	71,89	2750.0	test	<img class = center src='/static/experiments/beast_fmri_test/images/redP.png'></img>	go	2750.0	3.0	4.0	go	non-target	P	71,Index Finger	89,Middle Finger	0.0	0.0	2750.0	2750.0	1.0	0.0	1.0	n/a	go_stim
31376.83958667051	938.16041332938994	n/a	648	89	2750	938.160413329	stim	stop-signal	402	1177778	0.0-19.4-1.4	beast_fmri_test	330	1175368,/,1176048,/,1176727,/,1177408,/,1178087,/	t,t,t,t,t	<img class = center src='/static/experiments/beast_fmri_test/images/P.png'></img>	71,89	2750.0	test	<img class = center src='/static/experiments/beast_fmri_test/images/redP.png'></img>	go	2750.0	3.0	4.0	go	non-target	P	71,Index Finger	89,Middle Finger	0.0	0.0	2750.0	2750.0	1.0	0.0	1.0	n/a	ITI
33794	500	n/a	-1	-1	500	0.0	fixation	poldrack-single-stim	403	1179257	0.0-19.5-0.5	beast_fmri_test	330	1178768,/	t	<div class = centerbox2><div class = fixation>+</div></div>	none	500.0	test	n/a	n/a	n/a	n/a	n/a	n/a	n/a	n/a	n/a	n/a	n/a	n/a	n/a	n/a	n/a	n/a	n/a	n/a	fixation
32737.879977842094	0.0	n/a	-1	-1	2750	1057.12002216	stim	stop-signal	404	1182008	0.0-19.5-1.5	beast_fmri_test	330	1179446,/,1180127,/,1180807,/,1181485,/,1182164,/,1182844,/	t,t,t,t,t,t	<img class = center src='/static/experiments/beast_fmri_test/images/V.png'></img>	71,89	2750.0	test	<img class = center src='/static/experiments/beast_fmri_test/images/redV.png'></img>	stop	2750.0	3.0	5.0	stop	non-target	V	71,Index Finger	89,Middle Finger	0.0	0.0	2750.0	2750.0	0.0	0.0	n/a	1.0	go_stim
35487.879977842094	2750.0	n/a	-1	-1	2750	1057.12002216	stim	stop-signal	404	1182008	0.0-19.5-1.5	beast_fmri_test	330	1179446,/,1180127,/,1180807,/,1181485,/,1182164,/,1182844,/	t,t,t,t,t,t	<img class = center src='/static/experiments/beast_fmri_test/images/V.png'></img>	71,89	2750.0	test	<img class = center src='/static/experiments/beast_fmri_test/images/redV.png'></img>	stop	2750.0	3.0	5.0	stop	non-target	V	71,Index Finger	89,Middle Finger	0.0	0.0	2750.0	2750.0	0.0	0.0	n/a	1.0	stop_stim
35487.879977842094	1057.1200221579297	n/a	-1	-1	2750	1057.12002216	stim	stop-signal	404	1182008	0.0-19.5-1.5	beast_fmri_test	330	1179446,/,1180127,/,1180807,/,1181485,/,1182164,/,1182844,/	t,t,t,t,t,t	<img class = center src='/static/experiments/beast_fmri_test/images/V.png'></img>	71,89	2750.0	test	<img class = center src='/static/experiments/beast_fmri_test/images/redV.png'></img>	stop	2750.0	3.0	5.0	stop	non-target	V	71,Index Finger	89,Middle Finger	0.0	0.0	2750.0	2750.0	0.0	0.0	n/a	1.0	ITI
38145	500	n/a	-1	-1	500	0.0	fixation	poldrack-single-stim	405	1183608	0.0-19.6-0.6	beast_fmri_test	330	1183523,/	t	<div class = centerbox2><div class = fixation>+</div></div>	none	500.0	test	n/a	n/a	n/a	n/a	n/a	n/a	n/a	n/a	n/a	n/a	n/a	n/a	n/a	n/a	n/a	n/a	n/a	n/a	fixation
38019.706407658523	50.0	n/a	-1	-1	2750	127.293592342	stim	stop-signal	406	1186360	0.0-19.6-1.6	beast_fmri_test	330	1184203,/,1184883,/,1185563,/,1186243,/	t,t,t,t	<img class = center src='/static/experiments/beast_fmri_test/images/B.png'></img>	71,89	2750.0	test	<img class = center src='/static/experiments/beast_fmri_test/images/redB.png'></img>	stop	2700.0	3.0	6.0	stop	non-target	B	71,Index Finger	89,Middle Finger	0.0	50.0	2750.0	2700.0	0.0	50.0	n/a	1.0	go_stim
40719.706407658523	2700.0	n/a	-1	-1	2750	127.293592342	stim	stop-signal	406	1186360	0.0-19.6-1.6	beast_fmri_test	330	1184203,/,1184883,/,1185563,/,1186243,/	t,t,t,t	<img class = center src='/static/experiments/beast_fmri_test/images/B.png'></img>	71,89	2750.0	test	<img class = center src='/static/experiments/beast_fmri_test/images/redB.png'></img>	stop	2700.0	3.0	6.0	stop	non-target	B	71,Index Finger	89,Middle Finger	0.0	50.0	2750.0	2700.0	0.0	50.0	n/a	1.0	stop_stim
40769.706407658523	127.29359234155045	n/a	-1	-1	2750	127.293592342	stim	stop-signal	406	1186360	0.0-19.6-1.6	beast_fmri_test	330	1184203,/,1184883,/,1185563,/,1186243,/	t,t,t,t	<img class = center src='/static/experiments/beast_fmri_test/images/B.png'></img>	71,89	2750.0	test	<img class = center src='/static/experiments/beast_fmri_test/images/redB.png'></img>	stop	2700.0	3.0	6.0	stop	non-target	B	71,Index Finger	89,Middle Finger	0.0	50.0	2750.0	2700.0	0.0	50.0	n/a	1.0	ITI
41598	500	n/a	-1	-1	500	0.0	fixation	poldrack-single-stim	407	1187061	0.0-19.7-0.7	beast_fmri_test	330	1186922,/	t	<div class = centerbox2><div class = fixation>+</div></div>	none	500.0	test	n/a	n/a	n/a	n/a	n/a	n/a	n/a	n/a	n/a	n/a	n/a	n/a	n/a	n/a	n/a	n/a	n/a	n/a	fixation
40422.131184604019	2750	n/a	1022	89	2750	1176.8688154	stim	stop-signal	408	1189812	0.0-19.7-1.7	beast_fmri_test	330	1187602,/,1188281,/,1188960,/,1189640,/,1190320,/	t,t,t,t,t	<img class = center src='/static/experiments/beast_fmri_test/images/T.png'></img>	71,89	2750.0	test	<img class = center src='/static/experiments/beast_fmri_test/images/redT.png'></img>	go	2650.0	3.0	7.0	go	non-target	T	71,Index Finger	89,Middle Finger	0.0	100.0	2750.0	2650.0	1.0	100.0	1.0	n/a	go_stim
43172.131184604019	1176.8688153960522	n/a	1022	89	2750	1176.8688154	stim	stop-signal	408	1189812	0.0-19.7-1.7	beast_fmri_test	330	1187602,/,1188281,/,1188960,/,1189640,/,1190320,/	t,t,t,t,t	<img class = center src='/static/experiments/beast_fmri_test/images/T.png'></img>	71,89	2750.0	test	<img class = center src='/static/experiments/beast_fmri_test/images/redT.png'></img>	go	2650.0	3.0	7.0	go	non-target	T	71,Index Finger	89,Middle Finger	0.0	100.0	2750.0	2650.0	1.0	100.0	1.0	n/a	ITI
46071	500	n/a	-1	-1	500	0.0	fixation	poldrack-single-stim	409	1191534	0.0-19.8-0.8	beast_fmri_test	330	1191033,/	t	<div class = centerbox2><div class = fixation>+</div></div>	none	500.0	test	n/a	n/a	n/a	n/a	n/a	n/a	n/a	n/a	n/a	n/a	n/a	n/a	n/a	n/a	n/a	n/a	n/a	n/a	fixation
45522.953389011556	2750	n/a	496	89	2750	549.046610988	stim	stop-signal	410	1194285	0.0-19.8-1.8	beast_fmri_test	330	1191680,/,1192360,/,1193038,/,1193718,/,1194399,/	t,t,t,t,t	<img class = center src='/static/experiments/beast_fmri_test/images/V.png'></img>	71,89	2750.0	test	<img class = center src='/static/experiments/beast_fmri_test/images/redV.png'></img>	go	2750.0	3.0	8.0	go	target	V	71,Index Finger	89,Middle Finger	0.0	100.0	2750.0	2650.0	0.0	0.0	0.0	n/a	go_stim
48272.953389011556	549.04661098843906	n/a	496	89	2750	549.046610988	stim	stop-signal	410	1194285	0.0-19.8-1.8	beast_fmri_test	330	1191680,/,1192360,/,1193038,/,1193718,/,1194399,/	t,t,t,t,t	<img class = center src='/static/experiments/beast_fmri_test/images/V.png'></img>	71,89	2750.0	test	<img class = center src='/static/experiments/beast_fmri_test/images/redV.png'></img>	go	2750.0	3.0	8.0	go	target	V	71,Index Finger	89,Middle Finger	0.0	100.0	2750.0	2650.0	0.0	0.0	0.0	n/a	ITI
49916	500	n/a	-1	-1	500	0.0	fixation	poldrack-single-stim	411	1195379	0.0-19.9-0.9	beast_fmri_test	330	1195079,/	t	<div class = centerbox2><div class = fixation>+</div></div>	none	500.0	test	n/a	n/a	n/a	n/a	n/a	n/a	n/a	n/a	n/a	n/a	n/a	n/a	n/a	n/a	n/a	n/a	n/a	n/a	fixation
48761.792563957162	2750	n/a	920	89	2750	1156.20743604	stim	stop-signal	412	1198131	0.0-19.9-1.9	beast_fmri_test	330	1195759,/,1196437,/,1197117,/,1197797,/,1198476,/,1199156,/	t,t,t,t,t,t	<img class = center src='/static/experiments/beast_fmri_test/images/P.png'></img>	71,89	2750.0	test	<img class = center src='/static/experiments/beast_fmri_test/images/redP.png'></img>	go	2650.0	3.0	9.0	go	non-target	P	71,Index Finger	89,Middle Finger	0.0	100.0	2750.0	2650.0	1.0	100.0	1.0	n/a	go_stim
51511.792563957162	1156.2074360428714	n/a	920	89	2750	1156.20743604	stim	stop-signal	412	1198131	0.0-19.9-1.9	beast_fmri_test	330	1195759,/,1196437,/,1197117,/,1197797,/,1198476,/,1199156,/	t,t,t,t,t,t	<img class = center src='/static/experiments/beast_fmri_test/images/P.png'></img>	71,89	2750.0	test	<img class = center src='/static/experiments/beast_fmri_test/images/redP.png'></img>	go	2650.0	3.0	9.0	go	non-target	P	71,Index Finger	89,Middle Finger	0.0	100.0	2750.0	2650.0	1.0	100.0	1.0	n/a	ITI
54371	500	n/a	-1	-1	500	0.0	fixation	poldrack-single-stim	413	1199834	0.0-19.10-0.10	beast_fmri_test	330	n/a	n/a	<div class = centerbox2><div class = fixation>+</div></div>	none	500.0	test	n/a	n/a	n/a	n/a	n/a	n/a	n/a	n/a	n/a	n/a	n/a	n/a	n/a	n/a	n/a	n/a	n/a	n/a	fixation
54180.261627847794	100.0	n/a	670	89	2750	191.738372152	stim	stop-signal	414	1202585	0.0-19.10-1.10	beast_fmri_test	330	1199838,/,1200516,/,1201195,/,1201875,/,1202555,/	t,t,t,t,t	<img class = center src='/static/experiments/beast_fmri_test/images/P.png'></img>	71,89	2750.0	test	<img class = center src='/static/experiments/beast_fmri_test/images/redP.png'></img>	stop	2650.0	3.0	10.0	stop	non-target	P	71,Index Finger	89,Middle Finger	0.0	100.0	2750.0	2650.0	0.0	100.0	n/a	0.0	go_stim
56830.261627847794	2650.0	n/a	670	89	2750	191.738372152	stim	stop-signal	414	1202585	0.0-19.10-1.10	beast_fmri_test	330	1199838,/,1200516,/,1201195,/,1201875,/,1202555,/	t,t,t,t,t	<img class = center src='/static/experiments/beast_fmri_test/images/P.png'></img>	71,89	2750.0	test	<img class = center src='/static/experiments/beast_fmri_test/images/redP.png'></img>	stop	2650.0	3.0	10.0	stop	non-target	P	71,Index Finger	89,Middle Finger	0.0	100.0	2750.0	2650.0	0.0	100.0	n/a	0.0	stop_stim
56930.261627847794	191.7383721523058	n/a	670	89	2750	191.738372152	stim	stop-signal	414	1202585	0.0-19.10-1.10	beast_fmri_test	330	1199838,/,1200516,/,1201195,/,1201875,/,1202555,/	t,t,t,t,t	<img class = center src='/static/experiments/beast_fmri_test/images/P.png'></img>	71,89	2750.0	test	<img class = center src='/static/experiments/beast_fmri_test/images/redP.png'></img>	stop	2650.0	3.0	10.0	stop	non-target	P	71,Index Finger	89,Middle Finger	0.0	100.0	2750.0	2650.0	0.0	100.0	n/a	0.0	ITI
57857	500	n/a	-1	-1	500	0.0	fixation	poldrack-single-stim	415	1203320	0.0-19.11-0.11	beast_fmri_test	330	1203236,/	t	<div class = centerbox2><div class = fixation>+</div></div>	none	500.0	test	n/a	n/a	n/a	n/a	n/a	n/a	n/a	n/a	n/a	n/a	n/a	n/a	n/a	n/a	n/a	n/a	n/a	n/a	fixation
55284.61150977388	2750	n/a	452	89	2750	2573.38849023	stim	stop-signal	416	1206071	0.0-19.11-1.11	beast_fmri_test	330	1203914,/,1204594,/,1205275,/,1205954,/,1206633,/,1207313,/,1207992,/	t,t,t,t,t,t,t	<img class = center src='/static/experiments/beast_fmri_test/images/B.png'></img>	71,89	2750.0	test	<img class = center src='/static/experiments/beast_fmri_test/images/redB.png'></img>	go	2700.0	3.0	11.0	go	non-target	B	71,Index Finger	89,Middle Finger	0.0	50.0	2750.0	2700.0	1.0	50.0	1.0	n/a	go_stim
58034.61150977388	2573.3884902261771	n/a	452	89	2750	2573.38849023	stim	stop-signal	416	1206071	0.0-19.11-1.11	beast_fmri_test	330	1203914,/,1204594,/,1205275,/,1205954,/,1206633,/,1207313,/,1207992,/	t,t,t,t,t,t,t	<img class = center src='/static/experiments/beast_fmri_test/images/B.png'></img>	71,89	2750.0	test	<img class = center src='/static/experiments/beast_fmri_test/images/redB.png'></img>	go	2700.0	3.0	11.0	go	non-target	B	71,Index Finger	89,Middle Finger	0.0	50.0	2750.0	2700.0	1.0	50.0	1.0	n/a	ITI
63725	500	n/a	-1	-1	500	0.0	fixation	poldrack-single-stim	417	1209188	0.0-19.12-0.12	beast_fmri_test	330	1208686,/	t	<div class = centerbox2><div class = fixation>+</div></div>	none	500.0	test	n/a	n/a	n/a	n/a	n/a	n/a	n/a	n/a	n/a	n/a	n/a	n/a	n/a	n/a	n/a	n/a	n/a	n/a	fixation
61260.367922163103	2750	n/a	369	71	2750	2467.63207784	stim	stop-signal	418	1211941	0.0-19.12-1.12	beast_fmri_test	330	1209352,/,1210032,/,1210712,/,1211391,/,1212070,/,1212750,/,1213430,/,1214110,/	t,t,t,t,t,t,t,t	<img class = center src='/static/experiments/beast_fmri_test/images/P.png'></img>	71,89	2750.0	test	<img class = center src='/static/experiments/beast_fmri_test/images/redP.png'></img>	go	2750.0	3.0	12.0	go	target	P	71,Index Finger	89,Middle Finger	0.0	50.0	2750.0	2700.0	1.0	0.0	1.0	n/a	go_stim
64010.367922163103	2467.6320778367885	n/a	369	71	2750	2467.63207784	stim	stop-signal	418	1211941	0.0-19.12-1.12	beast_fmri_test	330	1209352,/,1210032,/,1210712,/,1211391,/,1212070,/,1212750,/,1213430,/,1214110,/	t,t,t,t,t,t,t,t	<img class = center src='/static/experiments/beast_fmri_test/images/P.png'></img>	71,89	2750.0	test	<img class = center src='/static/experiments/beast_fmri_test/images/redP.png'></img>	go	2750.0	3.0	12.0	go	target	P	71,Index Finger	89,Middle Finger	0.0	50.0	2750.0	2700.0	1.0	0.0	1.0	n/a	ITI
69492	500	n/a	-1	-1	500	0.0	fixation	poldrack-single-stim	419	1214955	0.0-19.13-0.13	beast_fmri_test	330	1214790,/	t	<div class = centerbox2><div class = fixation>+</div></div>	none	500.0	test	n/a	n/a	n/a	n/a	n/a	n/a	n/a	n/a	n/a	n/a	n/a	n/a	n/a	n/a	n/a	n/a	n/a	n/a	fixation
68085.660759440158	2750	n/a	466	89	2750	1408.33924056	stim	stop-signal	420	1217707	0.0-19.13-1.13	beast_fmri_test	330	1215469,/,1216149,/,1216828,/,1217507,/,1218187,/,1218867,/	t,t,t,t,t,t	<img class = center src='/static/experiments/beast_fmri_test/images/D.png'></img>	71,89	2750.0	test	<img class = center src='/static/experiments/beast_fmri_test/images/redD.png'></img>	go	2700.0	3.0	13.0	go	non-target	D	71,Index Finger	89,Middle Finger	0.0	50.0	2750.0	2700.0	1.0	50.0	1.0	n/a	go_stim
70835.660759440158	1408.3392405598315	n/a	466	89	2750	1408.33924056	stim	stop-signal	420	1217707	0.0-19.13-1.13	beast_fmri_test	330	1215469,/,1216149,/,1216828,/,1217507,/,1218187,/,1218867,/	t,t,t,t,t,t	<img class = center src='/static/experiments/beast_fmri_test/images/D.png'></img>	71,89	2750.0	test	<img class = center src='/static/experiments/beast_fmri_test/images/redD.png'></img>	go	2700.0	3.0	13.0	go	non-target	D	71,Index Finger	89,Middle Finger	0.0	50.0	2750.0	2700.0	1.0	50.0	1.0	n/a	ITI
74201	500	n/a	-1	-1	500	0.0	fixation	poldrack-single-stim	421	1219664	0.0-19.14-0.14	beast_fmri_test	330	1219547,/	t	<div class = centerbox2><div class = fixation>+</div></div>	none	500.0	test	n/a	n/a	n/a	n/a	n/a	n/a	n/a	n/a	n/a	n/a	n/a	n/a	n/a	n/a	n/a	n/a	n/a	n/a	fixation
69911.515158102848	2750	n/a	448	89	2750	4290.4848419	stim	stop-signal	422	1222415	0.0-19.14-1.14	beast_fmri_test	330	1220227,/,1220907,/,1221585,/,1222265,/,1222945,/,1223625,/,1224306,/,1224984,/,1225664,/,1226343,/	t,t,t,t,t,t,t,t,t,t	<img class = center src='/static/experiments/beast_fmri_test/images/V.png'></img>	71,89	2750.0	test	<img class = center src='/static/experiments/beast_fmri_test/images/redV.png'></img>	go	2700.0	3.0	14.0	go	non-target	V	71,Index Finger	89,Middle Finger	0.0	50.0	2750.0	2700.0	1.0	50.0	1.0	n/a	go_stim
72661.515158102848	4290.484841897226	n/a	448	89	2750	4290.4848419	stim	stop-signal	422	1222415	0.0-19.14-1.14	beast_fmri_test	330	1220227,/,1220907,/,1221585,/,1222265,/,1222945,/,1223625,/,1224306,/,1224984,/,1225664,/,1226343,/	t,t,t,t,t,t,t,t,t,t	<img class = center src='/static/experiments/beast_fmri_test/images/V.png'></img>	71,89	2750.0	test	<img class = center src='/static/experiments/beast_fmri_test/images/redV.png'></img>	go	2700.0	3.0	14.0	go	non-target	V	71,Index Finger	89,Middle Finger	0.0	50.0	2750.0	2700.0	1.0	50.0	1.0	n/a	ITI
81790	500	n/a	-1	-1	500	0.0	fixation	poldrack-single-stim	423	1227253	0.0-19.15-0.15	beast_fmri_test	330	1227024,/	t	<div class = centerbox2><div class = fixation>+</div></div>	none	500.0	test	n/a	n/a	n/a	n/a	n/a	n/a	n/a	n/a	n/a	n/a	n/a	n/a	n/a	n/a	n/a	n/a	n/a	n/a	fixation
80560.840336092748	50.0	n/a	592	89	2750	1230.15966391	stim	stop-signal	424	1230004	0.0-19.15-1.15	beast_fmri_test	330	1227702,/,1228384,/,1229062,/,1229743,/,1230422,/,1231102,/	t,t,t,t,t,t	<img class = center src='/static/experiments/beast_fmri_test/images/T.png'></img>	71,89	2750.0	test	<img class = center src='/static/experiments/beast_fmri_test/images/redT.png'></img>	stop	2700.0	3.0	15.0	stop	non-target	T	71,Index Finger	89,Middle Finger	0.0	50.0	2750.0	2700.0	0.0	50.0	n/a	0.0	go_stim
83260.840336092748	2700.0	n/a	592	89	2750	1230.15966391	stim	stop-signal	424	1230004	0.0-19.15-1.15	beast_fmri_test	330	1227702,/,1228384,/,1229062,/,1229743,/,1230422,/,1231102,/	t,t,t,t,t,t	<img class = center src='/static/experiments/beast_fmri_test/images/T.png'></img>	71,89	2750.0	test	<img class = center src='/static/experiments/beast_fmri_test/images/redT.png'></img>	stop	2700.0	3.0	15.0	stop	non-target	T	71,Index Finger	89,Middle Finger	0.0	50.0	2750.0	2700.0	0.0	50.0	n/a	0.0	stop_stim
83310.840336092748	1230.1596639073025	n/a	592	89	2750	1230.15966391	stim	stop-signal	424	1230004	0.0-19.15-1.15	beast_fmri_test	330	1227702,/,1228384,/,1229062,/,1229743,/,1230422,/,1231102,/	t,t,t,t,t,t	<img class = center src='/static/experiments/beast_fmri_test/images/T.png'></img>	71,89	2750.0	test	<img class = center src='/static/experiments/beast_fmri_test/images/redT.png'></img>	stop	2700.0	3.0	15.0	stop	non-target	T	71,Index Finger	89,Middle Finger	0.0	50.0	2750.0	2700.0	0.0	50.0	n/a	0.0	ITI
86321	500	n/a	-1	-1	500	0.0	fixation	poldrack-single-stim	425	1231784	0.0-19.16-0.16	beast_fmri_test	330	1231783,/	t	<div class = centerbox2><div class = fixation>+</div></div>	none	500.0	test	n/a	n/a	n/a	n/a	n/a	n/a	n/a	n/a	n/a	n/a	n/a	n/a	n/a	n/a	n/a	n/a	n/a	n/a	fixation
85791.189303456107	2750	n/a	754	71	2750	530.810696544	stim	stop-signal	426	1234535	0.0-19.16-1.16	beast_fmri_test	330	1232462,/,1233142,/,1233821,/,1234501,/	t,t,t,t	<img class = center src='/static/experiments/beast_fmri_test/images/V.png'></img>	71,89	2750.0	test	<img class = center src='/static/experiments/beast_fmri_test/images/redV.png'></img>	go	2750.0	3.0	16.0	go	non-target	V	71,Index Finger	89,Middle Finger	0.0	0.0	2750.0	2750.0	0.0	0.0	0.0	n/a	go_stim
88541.189303456107	530.81069654395162	n/a	754	71	2750	530.810696544	stim	stop-signal	426	1234535	0.0-19.16-1.16	beast_fmri_test	330	1232462,/,1233142,/,1233821,/,1234501,/	t,t,t,t	<img class = center src='/static/experiments/beast_fmri_test/images/V.png'></img>	71,89	2750.0	test	<img class = center src='/static/experiments/beast_fmri_test/images/redV.png'></img>	go	2750.0	3.0	16.0	go	non-target	V	71,Index Finger	89,Middle Finger	0.0	0.0	2750.0	2750.0	0.0	0.0	0.0	n/a	ITI
90151	500	n/a	-1	-1	500	0.0	fixation	poldrack-single-stim	427	1235614	0.0-19.17-0.17	beast_fmri_test	330	1235180,/	t	<div class = centerbox2><div class = fixation>+</div></div>	none	500.0	test	n/a	n/a	n/a	n/a	n/a	n/a	n/a	n/a	n/a	n/a	n/a	n/a	n/a	n/a	n/a	n/a	n/a	n/a	fixation
89284.271187774371	0.0	n/a	-1	-1	2750	868.728812226	stim	stop-signal	428	1238366	0.0-19.17-1.17	beast_fmri_test	330	1235860,/,1236539,/,1237220,/,1237899,/,1238578,/	t,t,t,t,t	<img class = center src='/static/experiments/beast_fmri_test/images/T.png'></img>	71,89	2750.0	test	<img class = center src='/static/experiments/beast_fmri_test/images/redT.png'></img>	stop	2750.0	3.0	17.0	stop	non-target	T	71,Index Finger	89,Middle Finger	0.0	0.0	2750.0	2750.0	0.0	0.0	n/a	1.0	go_stim
92034.271187774371	2750.0	n/a	-1	-1	2750	868.728812226	stim	stop-signal	428	1238366	0.0-19.17-1.17	beast_fmri_test	330	1235860,/,1236539,/,1237220,/,1237899,/,1238578,/	t,t,t,t,t	<img class = center src='/static/experiments/beast_fmri_test/images/T.png'></img>	71,89	2750.0	test	<img class = center src='/static/experiments/beast_fmri_test/images/redT.png'></img>	stop	2750.0	3.0	17.0	stop	non-target	T	71,Index Finger	89,Middle Finger	0.0	0.0	2750.0	2750.0	0.0	0.0	n/a	1.0	stop_stim
92034.271187774371	868.72881222570186	n/a	-1	-1	2750	868.728812226	stim	stop-signal	428	1238366	0.0-19.17-1.17	beast_fmri_test	330	1235860,/,1236539,/,1237220,/,1237899,/,1238578,/	t,t,t,t,t	<img class = center src='/static/experiments/beast_fmri_test/images/T.png'></img>	71,89	2750.0	test	<img class = center src='/static/experiments/beast_fmri_test/images/redT.png'></img>	stop	2750.0	3.0	17.0	stop	non-target	T	71,Index Finger	89,Middle Finger	0.0	0.0	2750.0	2750.0	0.0	0.0	n/a	1.0	ITI
94323	500	n/a	-1	-1	500	0.0	fixation	poldrack-single-stim	429	1239786	0.0-19.18-0.18	beast_fmri_test	330	1239285,/	t	<div class = centerbox2><div class = fixation>+</div></div>	none	500.0	test	n/a	n/a	n/a	n/a	n/a	n/a	n/a	n/a	n/a	n/a	n/a	n/a	n/a	n/a	n/a	n/a	n/a	n/a	fixation
92991.788445727667	2750	n/a	516	89	2750	1333.21155427	stim	stop-signal	430	1242538	0.0-19.18-1.18	beast_fmri_test	330	1239937,/,1240617,/,1241297,/,1241978,/,1242658,/,1243336,/	t,t,t,t,t,t	<img class = center src='/static/experiments/beast_fmri_test/images/B.png'></img>	71,89	2750.0	test	<img class = center src='/static/experiments/beast_fmri_test/images/redB.png'></img>	go	2700.0	3.0	18.0	go	non-target	B	71,Index Finger	89,Middle Finger	0.0	50.0	2750.0	2700.0	1.0	50.0	1.0	n/a	go_stim
95741.788445727667	1333.2115542723739	n/a	516	89	2750	1333.21155427	stim	stop-signal	430	1242538	0.0-19.18-1.18	beast_fmri_test	330	1239937,/,1240617,/,1241297,/,1241978,/,1242658,/,1243336,/	t,t,t,t,t,t	<img class = center src='/static/experiments/beast_fmri_test/images/B.png'></img>	71,89	2750.0	test	<img class = center src='/static/experiments/beast_fmri_test/images/redB.png'></img>	go	2700.0	3.0	18.0	go	non-target	B	71,Index Finger	89,Middle Finger	0.0	50.0	2750.0	2700.0	1.0	50.0	1.0	n/a	ITI
98965	500	n/a	-1	-1	500	0.0	fixation	poldrack-single-stim	431	1244428	0.0-19.19-0.19	beast_fmri_test	330	1244017,/	t	<div class = centerbox2><div class = fixation>+</div></div>	none	500.0	test	n/a	n/a	n/a	n/a	n/a	n/a	n/a	n/a	n/a	n/a	n/a	n/a	n/a	n/a	n/a	n/a	n/a	n/a	fixation
97770.279967742506	0.0	n/a	-1	-1	2750	1195.72003226	stim	stop-signal	432	1247179	0.0-19.19-1.19	beast_fmri_test	330	1244695,/,1245375,/,1246056,/,1246735,/,1247415,/,1248093,/	t,t,t,t,t,t	<img class = center src='/static/experiments/beast_fmri_test/images/V.png'></img>	71,89	2750.0	test	<img class = center src='/static/experiments/beast_fmri_test/images/redV.png'></img>	stop	2750.0	3.0	19.0	stop	target	V	71,Index Finger	89,Middle Finger	0.0	50.0	2750.0	2700.0	0.0	0.0	n/a	1.0	go_stim
100520.27996774251	2750.0	n/a	-1	-1	2750	1195.72003226	stim	stop-signal	432	1247179	0.0-19.19-1.19	beast_fmri_test	330	1244695,/,1245375,/,1246056,/,1246735,/,1247415,/,1248093,/	t,t,t,t,t,t	<img class = center src='/static/experiments/beast_fmri_test/images/V.png'></img>	71,89	2750.0	test	<img class = center src='/static/experiments/beast_fmri_test/images/redV.png'></img>	stop	2750.0	3.0	19.0	stop	target	V	71,Index Finger	89,Middle Finger	0.0	50.0	2750.0	2700.0	0.0	0.0	n/a	1.0	stop_stim
100520.27996774251	1195.7200322575673	n/a	-1	-1	2750	1195.72003226	stim	stop-signal	432	1247179	0.0-19.19-1.19	beast_fmri_test	330	1244695,/,1245375,/,1246056,/,1246735,/,1247415,/,1248093,/	t,t,t,t,t,t	<img class = center src='/static/experiments/beast_fmri_test/images/V.png'></img>	71,89	2750.0	test	<img class = center src='/static/experiments/beast_fmri_test/images/redV.png'></img>	stop	2750.0	3.0	19.0	stop	target	V	71,Index Finger	89,Middle Finger	0.0	50.0	2750.0	2700.0	0.0	0.0	n/a	1.0	ITI
103461	500	n/a	-1	-1	500	0.0	fixation	poldrack-single-stim	433	1248924	0.0-19.20-0.20	beast_fmri_test	330	1248773,/	t	<div class = centerbox2><div class = fixation>+</div></div>	none	500.0	test	n/a	n/a	n/a	n/a	n/a	n/a	n/a	n/a	n/a	n/a	n/a	n/a	n/a	n/a	n/a	n/a	n/a	n/a	fixation
98463.0	50.0	n/a	-1	-1	2750	5000.0	stim	stop-signal	434	1251676	0.0-19.20-1.20	beast_fmri_test	330	1249453,/,1250132,/,1250812,/,1251492,/,1252172,/,1252852,/,1253531,/,1254211,/,1254890,/,1255570,/,1256249,/	t,t,t,t,t,t,t,t,t,t,t	<img class = center src='/static/experiments/beast_fmri_test/images/P.png'></img>	71,89	2750.0	test	<img class = center src='/static/experiments/beast_fmri_test/images/redP.png'></img>	stop	2700.0	3.0	20.0	stop	non-target	P	71,Index Finger	89,Middle Finger	50.0	50.0	2750.0	2700.0	0.0	50.0	n/a	1.0	go_stim
101163.0	2700.0	n/a	-1	-1	2750	5000.0	stim	stop-signal	434	1251676	0.0-19.20-1.20	beast_fmri_test	330	1249453,/,1250132,/,1250812,/,1251492,/,1252172,/,1252852,/,1253531,/,1254211,/,1254890,/,1255570,/,1256249,/	t,t,t,t,t,t,t,t,t,t,t	<img class = center src='/static/experiments/beast_fmri_test/images/P.png'></img>	71,89	2750.0	test	<img class = center src='/static/experiments/beast_fmri_test/images/redP.png'></img>	stop	2700.0	3.0	20.0	stop	non-target	P	71,Index Finger	89,Middle Finger	50.0	50.0	2750.0	2700.0	0.0	50.0	n/a	1.0	stop_stim
101213.0	5000.0	n/a	-1	-1	2750	5000.0	stim	stop-signal	434	1251676	0.0-19.20-1.20	beast_fmri_test	330	1249453,/,1250132,/,1250812,/,1251492,/,1252172,/,1252852,/,1253531,/,1254211,/,1254890,/,1255570,/,1256249,/	t,t,t,t,t,t,t,t,t,t,t	<img class = center src='/static/experiments/beast_fmri_test/images/P.png'></img>	71,89	2750.0	test	<img class = center src='/static/experiments/beast_fmri_test/images/redP.png'></img>	stop	2700.0	3.0	20.0	stop	non-target	P	71,Index Finger	89,Middle Finger	50.0	50.0	2750.0	2700.0	0.0	50.0	n/a	1.0	ITI
111757	500	n/a	-1	-1	500	0.0	fixation	poldrack-single-stim	435	1257220	0.0-19.21-0.21	beast_fmri_test	330	1256930,/	t	<div class = centerbox2><div class = fixation>+</div></div>	none	500.0	test	n/a	n/a	n/a	n/a	n/a	n/a	n/a	n/a	n/a	n/a	n/a	n/a	n/a	n/a	n/a	n/a	n/a	n/a	fixation
111102.61818526848	2750	n/a	477	71	2750	655.381814732	stim	stop-signal	436	1259971	0.0-19.21-1.21	beast_fmri_test	330	1257610,/,1258289,/,1258968,/,1259649,/,1260328,/	t,t,t,t,t	<img class = center src='/static/experiments/beast_fmri_test/images/B.png'></img>	71,89	2750.0	test	<img class = center src='/static/experiments/beast_fmri_test/images/redB.png'></img>	go	2700.0	3.0	21.0	go	target	B	71,Index Finger	89,Middle Finger	50.0	100.0	2700.0	2700.0	1.0	50.0	1.0	n/a	go_stim
113852.61818526848	655.38181473154373	n/a	477	71	2750	655.381814732	stim	stop-signal	436	1259971	0.0-19.21-1.21	beast_fmri_test	330	1257610,/,1258289,/,1258968,/,1259649,/,1260328,/	t,t,t,t,t	<img class = center src='/static/experiments/beast_fmri_test/images/B.png'></img>	71,89	2750.0	test	<img class = center src='/static/experiments/beast_fmri_test/images/redB.png'></img>	go	2700.0	3.0	21.0	go	target	B	71,Index Finger	89,Middle Finger	50.0	100.0	2700.0	2700.0	1.0	50.0	1.0	n/a	ITI
115717	500	n/a	-1	-1	500	0.0	fixation	poldrack-single-stim	437	1261180	0.0-19.22-0.22	beast_fmri_test	330	1261007,/	t	<div class = centerbox2><div class = fixation>+</div></div>	none	500.0	test	n/a	n/a	n/a	n/a	n/a	n/a	n/a	n/a	n/a	n/a	n/a	n/a	n/a	n/a	n/a	n/a	n/a	n/a	fixation
115636.05936331139	50.0	n/a	-1	-1	2750	81.9406366887	stim	stop-signal	438	1263931	0.0-19.22-1.22	beast_fmri_test	330	1261688,/,1262367,/,1263048,/,1263726,/	t,t,t,t	<img class = center src='/static/experiments/beast_fmri_test/images/V.png'></img>	71,89	2750.0	test	<img class = center src='/static/experiments/beast_fmri_test/images/redV.png'></img>	stop	2700.0	3.0	22.0	stop	target	V	71,Index Finger	89,Middle Finger	50.0	100.0	2700.0	2700.0	0.0	50.0	n/a	1.0	go_stim
118336.05936331139	2700.0	n/a	-1	-1	2750	81.9406366887	stim	stop-signal	438	1263931	0.0-19.22-1.22	beast_fmri_test	330	1261688,/,1262367,/,1263048,/,1263726,/	t,t,t,t	<img class = center src='/static/experiments/beast_fmri_test/images/V.png'></img>	71,89	2750.0	test	<img class = center src='/static/experiments/beast_fmri_test/images/redV.png'></img>	stop	2700.0	3.0	22.0	stop	target	V	71,Index Finger	89,Middle Finger	50.0	100.0	2700.0	2700.0	0.0	50.0	n/a	1.0	stop_stim
118386.05936331139	81.940636688686411	n/a	-1	-1	2750	81.9406366887	stim	stop-signal	438	1263931	0.0-19.22-1.22	beast_fmri_test	330	1261688,/,1262367,/,1263048,/,1263726,/	t,t,t,t	<img class = center src='/static/experiments/beast_fmri_test/images/V.png'></img>	71,89	2750.0	test	<img class = center src='/static/experiments/beast_fmri_test/images/redV.png'></img>	stop	2700.0	3.0	22.0	stop	target	V	71,Index Finger	89,Middle Finger	50.0	100.0	2700.0	2700.0	0.0	50.0	n/a	1.0	ITI
119108	500	n/a	-1	-1	500	0.0	fixation	poldrack-single-stim	439	1264571	0.0-19.23-0.23	beast_fmri_test	330	1264406,/	t	<div class = centerbox2><div class = fixation>+</div></div>	none	500.0	test	n/a	n/a	n/a	n/a	n/a	n/a	n/a	n/a	n/a	n/a	n/a	n/a	n/a	n/a	n/a	n/a	n/a	n/a	fixation
115596.11772161978	2750	n/a	729	89	2750	3512.88227838	stim	stop-signal	440	1267322	0.0-19.23-1.23	beast_fmri_test	330	1265088,/,1265766,/,1266446,/,1267125,/,1267805,/,1268484,/,1269164,/,1269845,/,1270524,/	t,t,t,t,t,t,t,t,t	<img class = center src='/static/experiments/beast_fmri_test/images/D.png'></img>	71,89	2750.0	test	<img class = center src='/static/experiments/beast_fmri_test/images/redD.png'></img>	go	2650.0	3.0	23.0	go	non-target	D	71,Index Finger	89,Middle Finger	100.0	100.0	2700.0	2650.0	1.0	100.0	1.0	n/a	go_stim
118346.11772161978	3512.8822783803248	n/a	729	89	2750	3512.88227838	stim	stop-signal	440	1267322	0.0-19.23-1.23	beast_fmri_test	330	1265088,/,1265766,/,1266446,/,1267125,/,1267805,/,1268484,/,1269164,/,1269845,/,1270524,/	t,t,t,t,t,t,t,t,t	<img class = center src='/static/experiments/beast_fmri_test/images/D.png'></img>	71,89	2750.0	test	<img class = center src='/static/experiments/beast_fmri_test/images/redD.png'></img>	go	2650.0	3.0	23.0	go	non-target	D	71,Index Finger	89,Middle Finger	100.0	100.0	2700.0	2650.0	1.0	100.0	1.0	n/a	ITI
125920	500	n/a	-1	-1	500	0.0	fixation	poldrack-single-stim	441	1271383	0.0-19.24-0.24	beast_fmri_test	330	1271204,/	t	<div class = centerbox2><div class = fixation>+</div></div>	none	500.0	test	n/a	n/a	n/a	n/a	n/a	n/a	n/a	n/a	n/a	n/a	n/a	n/a	n/a	n/a	n/a	n/a	n/a	n/a	fixation
125694.26585720712	2750	n/a	454	71	2750	225.734142793	stim	stop-signal	442	1274133	0.0-19.24-1.24	beast_fmri_test	330	1271883,/,1272562,/,1273242,/,1273921,/	t,t,t,t	<img class = center src='/static/experiments/beast_fmri_test/images/P.png'></img>	71,89	2750.0	test	<img class = center src='/static/experiments/beast_fmri_test/images/redP.png'></img>	go	2650.0	3.0	24.0	go	non-target	P	71,Index Finger	89,Middle Finger	100.0	100.0	2700.0	2650.0	0.0	100.0	0.0	n/a	go_stim
128444.26585720712	225.73414279287263	n/a	454	71	2750	225.734142793	stim	stop-signal	442	1274133	0.0-19.24-1.24	beast_fmri_test	330	1271883,/,1272562,/,1273242,/,1273921,/	t,t,t,t	<img class = center src='/static/experiments/beast_fmri_test/images/P.png'></img>	71,89	2750.0	test	<img class = center src='/static/experiments/beast_fmri_test/images/redP.png'></img>	go	2650.0	3.0	24.0	go	non-target	P	71,Index Finger	89,Middle Finger	100.0	100.0	2700.0	2650.0	0.0	100.0	0.0	n/a	ITI
129451	500	n/a	-1	-1	500	0.0	fixation	poldrack-single-stim	443	1274914	0.0-19.25-0.25	beast_fmri_test	330	1274650,/	t	<div class = centerbox2><div class = fixation>+</div></div>	none	500.0	test	n/a	n/a	n/a	n/a	n/a	n/a	n/a	n/a	n/a	n/a	n/a	n/a	n/a	n/a	n/a	n/a	n/a	n/a	fixation
128177.76560610184	2750	n/a	1047	89	2750	1276.2343939	stim	stop-signal	444	1277667	0.0-19.25-1.25	beast_fmri_test	330	1275282,/,1275962,/,1276641,/,1277321,/,1277999,/,1278680,/	t,t,t,t,t,t	<img class = center src='/static/experiments/beast_fmri_test/images/T.png'></img>	71,89	2750.0	test	<img class = center src='/static/experiments/beast_fmri_test/images/redT.png'></img>	go	2650.0	3.0	25.0	go	non-target	T	71,Index Finger	89,Middle Finger	100.0	100.0	2700.0	2650.0	1.0	100.0	1.0	n/a	go_stim
130927.76560610184	1276.2343938982449	n/a	1047	89	2750	1276.2343939	stim	stop-signal	444	1277667	0.0-19.25-1.25	beast_fmri_test	330	1275282,/,1275962,/,1276641,/,1277321,/,1277999,/,1278680,/	t,t,t,t,t,t	<img class = center src='/static/experiments/beast_fmri_test/images/T.png'></img>	71,89	2750.0	test	<img class = center src='/static/experiments/beast_fmri_test/images/redT.png'></img>	go	2650.0	3.0	25.0	go	non-target	T	71,Index Finger	89,Middle Finger	100.0	100.0	2700.0	2650.0	1.0	100.0	1.0	n/a	ITI
134035	500	n/a	-1	-1	500	0.0	fixation	poldrack-single-stim	445	1279498	0.0-19.26-0.26	beast_fmri_test	330	1279361,/	t	<div class = centerbox2><div class = fixation>+</div></div>	none	500.0	test	n/a	n/a	n/a	n/a	n/a	n/a	n/a	n/a	n/a	n/a	n/a	n/a	n/a	n/a	n/a	n/a	n/a	n/a	fixation
131550.95793242031	2750	n/a	534	89	2750	2487.04206758	stim	stop-signal	446	1282251	0.0-19.26-1.26	beast_fmri_test	330	1280082,/,1280719,/,1281399,/,1282078,/,1282757,/,1283437,/,1284116,/	t,t,t,t,t,t,t	<img class = center src='/static/experiments/beast_fmri_test/images/D.png'></img>	71,89	2750.0	test	<img class = center src='/static/experiments/beast_fmri_test/images/redD.png'></img>	go	2650.0	3.0	26.0	go	target	D	71,Index Finger	89,Middle Finger	100.0	100.0	2650.0	2650.0	0.0	100.0	0.0	n/a	go_stim
134300.95793242031	2487.0420675796431	n/a	534	89	2750	2487.04206758	stim	stop-signal	446	1282251	0.0-19.26-1.26	beast_fmri_test	330	1280082,/,1280719,/,1281399,/,1282078,/,1282757,/,1283437,/,1284116,/	t,t,t,t,t,t,t	<img class = center src='/static/experiments/beast_fmri_test/images/D.png'></img>	71,89	2750.0	test	<img class = center src='/static/experiments/beast_fmri_test/images/redD.png'></img>	go	2650.0	3.0	26.0	go	target	D	71,Index Finger	89,Middle Finger	100.0	100.0	2650.0	2650.0	0.0	100.0	0.0	n/a	ITI
139822	500	n/a	-1	-1	500	0.0	fixation	poldrack-single-stim	447	1285285	0.0-19.27-0.27	beast_fmri_test	330	1284797,/	t	<div class = centerbox2><div class = fixation>+</div></div>	none	500.0	test	n/a	n/a	n/a	n/a	n/a	n/a	n/a	n/a	n/a	n/a	n/a	n/a	n/a	n/a	n/a	n/a	n/a	n/a	fixation
138128.4849834519	2750	n/a	383	71	2750	1694.51501655	stim	stop-signal	448	1288036	0.0-19.27-1.27	beast_fmri_test	330	1285478,/,1286156,/,1286836,/,1287515,/,1288195,/,1288875,/,1289554,/	t,t,t,t,t,t,t	<img class = center src='/static/experiments/beast_fmri_test/images/P.png'></img>	71,89	2750.0	test	<img class = center src='/static/experiments/beast_fmri_test/images/redP.png'></img>	go	2650.0	3.0	27.0	go	target	P	71,Index Finger	89,Middle Finger	100.0	100.0	2650.0	2650.0	1.0	100.0	1.0	n/a	go_stim
140878.4849834519	1694.5150165480873	n/a	383	71	2750	1694.51501655	stim	stop-signal	448	1288036	0.0-19.27-1.27	beast_fmri_test	330	1285478,/,1286156,/,1286836,/,1287515,/,1288195,/,1288875,/,1289554,/	t,t,t,t,t,t,t	<img class = center src='/static/experiments/beast_fmri_test/images/P.png'></img>	71,89	2750.0	test	<img class = center src='/static/experiments/beast_fmri_test/images/redP.png'></img>	go	2650.0	3.0	27.0	go	target	P	71,Index Finger	89,Middle Finger	100.0	100.0	2650.0	2650.0	1.0	100.0	1.0	n/a	ITI
144820	500	n/a	-1	-1	500	0.0	fixation	poldrack-single-stim	449	1290283	0.0-19.28-0.28	beast_fmri_test	330	1290234,/	t	<div class = centerbox2><div class = fixation>+</div></div>	none	500.0	test	n/a	n/a	n/a	n/a	n/a	n/a	n/a	n/a	n/a	n/a	n/a	n/a	n/a	n/a	n/a	n/a	n/a	n/a	fixation
144801.79897574196	2750	n/a	1317	89	2750	21.201024258	stim	stop-signal	450	1293036	0.0-19.28-1.28	beast_fmri_test	330	1290914,/,1291594,/,1292274,/,1292955,/	t,t,t,t	<img class = center src='/static/experiments/beast_fmri_test/images/D.png'></img>	71,89	2750.0	test	<img class = center src='/static/experiments/beast_fmri_test/images/redD.png'></img>	go	2650.0	3.0	28.0	go	non-target	D	71,Index Finger	89,Middle Finger	100.0	100.0	2650.0	2650.0	1.0	100.0	1.0	n/a	go_stim
147551.79897574196	21.201024257958373	n/a	1317	89	2750	21.201024258	stim	stop-signal	450	1293036	0.0-19.28-1.28	beast_fmri_test	330	1290914,/,1291594,/,1292274,/,1292955,/	t,t,t,t	<img class = center src='/static/experiments/beast_fmri_test/images/D.png'></img>	71,89	2750.0	test	<img class = center src='/static/experiments/beast_fmri_test/images/redD.png'></img>	go	2650.0	3.0	28.0	go	non-target	D	71,Index Finger	89,Middle Finger	100.0	100.0	2650.0	2650.0	1.0	100.0	1.0	n/a	ITI
148146	500	n/a	-1	-1	500	0.0	fixation	poldrack-single-stim	451	1293609	0.0-19.29-0.29	beast_fmri_test	330	n/a	n/a	<div class = centerbox2><div class = fixation>+</div></div>	none	500.0	test	n/a	n/a	n/a	n/a	n/a	n/a	n/a	n/a	n/a	n/a	n/a	n/a	n/a	n/a	n/a	n/a	n/a	n/a	fixation
146758.13103390788	100.0	n/a	-1	-1	2750	1389.86896609	stim	stop-signal	452	1296361	0.0-19.29-1.29	beast_fmri_test	330	1293635,/,1294314,/,1294994,/,1295672,/,1296352,/,1297032,/,1297710,/	t,t,t,t,t,t,t	<img class = center src='/static/experiments/beast_fmri_test/images/T.png'></img>	71,89	2750.0	test	<img class = center src='/static/experiments/beast_fmri_test/images/redT.png'></img>	stop	2650.0	3.0	29.0	stop	non-target	T	71,Index Finger	89,Middle Finger	100.0	100.0	2650.0	2650.0	0.0	100.0	n/a	1.0	go_stim
149408.13103390788	2650.0	n/a	-1	-1	2750	1389.86896609	stim	stop-signal	452	1296361	0.0-19.29-1.29	beast_fmri_test	330	1293635,/,1294314,/,1294994,/,1295672,/,1296352,/,1297032,/,1297710,/	t,t,t,t,t,t,t	<img class = center src='/static/experiments/beast_fmri_test/images/T.png'></img>	71,89	2750.0	test	<img class = center src='/static/experiments/beast_fmri_test/images/redT.png'></img>	stop	2650.0	3.0	29.0	stop	non-target	T	71,Index Finger	89,Middle Finger	100.0	100.0	2650.0	2650.0	0.0	100.0	n/a	1.0	stop_stim
149508.13103390788	1389.8689660920193	n/a	-1	-1	2750	1389.86896609	stim	stop-signal	452	1296361	0.0-19.29-1.29	beast_fmri_test	330	1293635,/,1294314,/,1294994,/,1295672,/,1296352,/,1297032,/,1297710,/	t,t,t,t,t,t,t	<img class = center src='/static/experiments/beast_fmri_test/images/T.png'></img>	71,89	2750.0	test	<img class = center src='/static/experiments/beast_fmri_test/images/redT.png'></img>	stop	2650.0	3.0	29.0	stop	non-target	T	71,Index Finger	89,Middle Finger	100.0	100.0	2650.0	2650.0	0.0	100.0	n/a	1.0	ITI
152842	500	n/a	-1	-1	500	0.0	fixation	poldrack-single-stim	453	1298305	0.0-19.30-0.30	beast_fmri_test	330	n/a	n/a	<div class = centerbox2><div class = fixation>+</div></div>	none	500.0	test	n/a	n/a	n/a	n/a	n/a	n/a	n/a	n/a	n/a	n/a	n/a	n/a	n/a	n/a	n/a	n/a	n/a	n/a	fixation
152209.60799261322	2750	n/a	350	71	2750	633.392007387	stim	stop-signal	454	1301056	0.0-19.30-1.30	beast_fmri_test	330	1298391,/,1299071,/,1299750,/,1300430,/,1301109,/	t,t,t,t,t	<img class = center src='/static/experiments/beast_fmri_test/images/P.png'></img>	71,89	2750.0	test	<img class = center src='/static/experiments/beast_fmri_test/images/redP.png'></img>	go	2650.0	3.0	30.0	go	target	P	71,Index Finger	89,Middle Finger	100.0	150.0	2650.0	2650.0	1.0	100.0	1.0	n/a	go_stim
154959.60799261322	633.39200738684497	n/a	350	71	2750	633.392007387	stim	stop-signal	454	1301056	0.0-19.30-1.30	beast_fmri_test	330	1298391,/,1299071,/,1299750,/,1300430,/,1301109,/	t,t,t,t,t	<img class = center src='/static/experiments/beast_fmri_test/images/P.png'></img>	71,89	2750.0	test	<img class = center src='/static/experiments/beast_fmri_test/images/redP.png'></img>	go	2650.0	3.0	30.0	go	target	P	71,Index Finger	89,Middle Finger	100.0	150.0	2650.0	2650.0	1.0	100.0	1.0	n/a	ITI
156781	500	n/a	-1	-1	500	0.0	fixation	poldrack-single-stim	455	1302244	0.0-19.31-0.31	beast_fmri_test	330	1301789,/	t	<div class = centerbox2><div class = fixation>+</div></div>	none	500.0	test	n/a	n/a	n/a	n/a	n/a	n/a	n/a	n/a	n/a	n/a	n/a	n/a	n/a	n/a	n/a	n/a	n/a	n/a	fixation
155393.73033592687	150.0	n/a	-1	-1	2750	1388.26966407	stim	stop-signal	456	1304995	0.0-19.31-1.31	beast_fmri_test	330	1302468,/,1303150,/,1303828,/,1304508,/,1305189,/,1305867,/	t,t,t,t,t,t	<img class = center src='/static/experiments/beast_fmri_test/images/T.png'></img>	71,89	2750.0	test	<img class = center src='/static/experiments/beast_fmri_test/images/redT.png'></img>	stop	2600.0	3.0	31.0	stop	non-target	T	71,Index Finger	89,Middle Finger	100.0	150.0	2650.0	2600.0	0.0	150.0	n/a	1.0	go_stim
157993.73033592687	2600.0	n/a	-1	-1	2750	1388.26966407	stim	stop-signal	456	1304995	0.0-19.31-1.31	beast_fmri_test	330	1302468,/,1303150,/,1303828,/,1304508,/,1305189,/,1305867,/	t,t,t,t,t,t	<img class = center src='/static/experiments/beast_fmri_test/images/T.png'></img>	71,89	2750.0	test	<img class = center src='/static/experiments/beast_fmri_test/images/redT.png'></img>	stop	2600.0	3.0	31.0	stop	non-target	T	71,Index Finger	89,Middle Finger	100.0	150.0	2650.0	2600.0	0.0	150.0	n/a	1.0	stop_stim
158143.73033592687	1388.2696640731774	n/a	-1	-1	2750	1388.26966407	stim	stop-signal	456	1304995	0.0-19.31-1.31	beast_fmri_test	330	1302468,/,1303150,/,1303828,/,1304508,/,1305189,/,1305867,/	t,t,t,t,t,t	<img class = center src='/static/experiments/beast_fmri_test/images/T.png'></img>	71,89	2750.0	test	<img class = center src='/static/experiments/beast_fmri_test/images/redT.png'></img>	stop	2600.0	3.0	31.0	stop	non-target	T	71,Index Finger	89,Middle Finger	100.0	150.0	2650.0	2600.0	0.0	150.0	n/a	1.0	ITI
161475	500	n/a	-1	-1	500	0.0	fixation	poldrack-single-stim	457	1306938	0.0-19.32-0.32	beast_fmri_test	330	1306546,/	t	<div class = centerbox2><div class = fixation>+</div></div>	none	500.0	test	n/a	n/a	n/a	n/a	n/a	n/a	n/a	n/a	n/a	n/a	n/a	n/a	n/a	n/a	n/a	n/a	n/a	n/a	fixation
159805.92607595865	2750	n/a	580	89	2750	1670.07392404	stim	stop-signal	458	1309689	0.0-19.32-1.32	beast_fmri_test	330	1307228,/,1307905,/,1308586,/,1309265,/,1309945,/,1310624,/,1311304,/	t,t,t,t,t,t,t	<img class = center src='/static/experiments/beast_fmri_test/images/P.png'></img>	71,89	2750.0	test	<img class = center src='/static/experiments/beast_fmri_test/images/redP.png'></img>	go	2550.0	3.0	32.0	go	non-target	P	71,Index Finger	89,Middle Finger	100.0	200.0	2650.0	2550.0	1.0	200.0	1.0	n/a	go_stim
162555.92607595865	1670.0739240412402	n/a	580	89	2750	1670.07392404	stim	stop-signal	458	1309689	0.0-19.32-1.32	beast_fmri_test	330	1307228,/,1307905,/,1308586,/,1309265,/,1309945,/,1310624,/,1311304,/	t,t,t,t,t,t,t	<img class = center src='/static/experiments/beast_fmri_test/images/P.png'></img>	71,89	2750.0	test	<img class = center src='/static/experiments/beast_fmri_test/images/redP.png'></img>	go	2550.0	3.0	32.0	go	non-target	P	71,Index Finger	89,Middle Finger	100.0	200.0	2650.0	2550.0	1.0	200.0	1.0	n/a	ITI
166453	500	n/a	-1	-1	500	0.0	fixation	poldrack-single-stim	459	1311916	0.0-19.33-0.33	beast_fmri_test	330	n/a	n/a	<div class = centerbox2><div class = fixation>+</div></div>	none	500.0	test	n/a	n/a	n/a	n/a	n/a	n/a	n/a	n/a	n/a	n/a	n/a	n/a	n/a	n/a	n/a	n/a	n/a	n/a	fixation
162563.31547973817	100.0	n/a	-1	-1	2750	3890.68452026	stim	stop-signal	460	1314667	0.0-19.33-1.33	beast_fmri_test	330	1311983,/,1312664,/,1313345,/,1314023,/,1314711,/,1315383,/,1316061,/,1316741,/,1317421,/,1318102,/	t,t,t,t,t,t,t,t,t,t	<img class = center src='/static/experiments/beast_fmri_test/images/P.png'></img>	71,89	2750.0	test	<img class = center src='/static/experiments/beast_fmri_test/images/redP.png'></img>	stop	2650.0	3.0	33.0	stop	target	P	71,Index Finger	89,Middle Finger	100.0	200.0	2650.0	2550.0	0.0	100.0	n/a	1.0	go_stim
165213.31547973817	2650.0	n/a	-1	-1	2750	3890.68452026	stim	stop-signal	460	1314667	0.0-19.33-1.33	beast_fmri_test	330	1311983,/,1312664,/,1313345,/,1314023,/,1314711,/,1315383,/,1316061,/,1316741,/,1317421,/,1318102,/	t,t,t,t,t,t,t,t,t,t	<img class = center src='/static/experiments/beast_fmri_test/images/P.png'></img>	71,89	2750.0	test	<img class = center src='/static/experiments/beast_fmri_test/images/redP.png'></img>	stop	2650.0	3.0	33.0	stop	target	P	71,Index Finger	89,Middle Finger	100.0	200.0	2650.0	2550.0	0.0	100.0	n/a	1.0	stop_stim
165313.31547973817	3890.6845202619375	n/a	-1	-1	2750	3890.68452026	stim	stop-signal	460	1314667	0.0-19.33-1.33	beast_fmri_test	330	1311983,/,1312664,/,1313345,/,1314023,/,1314711,/,1315383,/,1316061,/,1316741,/,1317421,/,1318102,/	t,t,t,t,t,t,t,t,t,t	<img class = center src='/static/experiments/beast_fmri_test/images/P.png'></img>	71,89	2750.0	test	<img class = center src='/static/experiments/beast_fmri_test/images/redP.png'></img>	stop	2650.0	3.0	33.0	stop	target	P	71,Index Finger	89,Middle Finger	100.0	200.0	2650.0	2550.0	0.0	100.0	n/a	1.0	ITI
173651	500	n/a	-1	-1	500	0.0	fixation	poldrack-single-stim	461	1319114	0.0-19.34-0.34	beast_fmri_test	330	1318781,/	t	<div class = centerbox2><div class = fixation>+</div></div>	none	500.0	test	n/a	n/a	n/a	n/a	n/a	n/a	n/a	n/a	n/a	n/a	n/a	n/a	n/a	n/a	n/a	n/a	n/a	n/a	fixation
171800.19924473856	2750	n/a	955	89	2750	1851.80075526	stim	stop-signal	462	1321865	0.0-19.34-1.34	beast_fmri_test	330	1319460,/,1320140,/,1320822,/,1321499,/,1322180,/,1322860,/,1323539,/	t,t,t,t,t,t,t	<img class = center src='/static/experiments/beast_fmri_test/images/T.png'></img>	71,89	2750.0	test	<img class = center src='/static/experiments/beast_fmri_test/images/redT.png'></img>	go	2600.0	3.0	34.0	go	target	T	71,Index Finger	89,Middle Finger	150.0	200.0	2600.0	2550.0	0.0	150.0	0.0	n/a	go_stim
174550.19924473856	1851.8007552614395	n/a	955	89	2750	1851.80075526	stim	stop-signal	462	1321865	0.0-19.34-1.34	beast_fmri_test	330	1319460,/,1320140,/,1320822,/,1321499,/,1322180,/,1322860,/,1323539,/	t,t,t,t,t,t,t	<img class = center src='/static/experiments/beast_fmri_test/images/T.png'></img>	71,89	2750.0	test	<img class = center src='/static/experiments/beast_fmri_test/images/redT.png'></img>	go	2600.0	3.0	34.0	go	target	T	71,Index Finger	89,Middle Finger	150.0	200.0	2600.0	2550.0	0.0	150.0	0.0	n/a	ITI
178807	500	n/a	-1	-1	500	0.0	fixation	poldrack-single-stim	463	1324270	0.0-19.35-0.35	beast_fmri_test	330	1324219,/	t	<div class = centerbox2><div class = fixation>+</div></div>	none	500.0	test	n/a	n/a	n/a	n/a	n/a	n/a	n/a	n/a	n/a	n/a	n/a	n/a	n/a	n/a	n/a	n/a	n/a	n/a	fixation
178642.66226809938	150.0	n/a	-1	-1	2750	164.337731901	stim	stop-signal	464	1327020	0.0-19.35-1.35	beast_fmri_test	330	1324898,/,1325577,/,1326258,/,1326938,/	t,t,t,t	<img class = center src='/static/experiments/beast_fmri_test/images/P.png'></img>	71,89	2750.0	test	<img class = center src='/static/experiments/beast_fmri_test/images/redP.png'></img>	stop	2600.0	3.0	35.0	stop	target	P	71,Index Finger	89,Middle Finger	150.0	200.0	2600.0	2550.0	0.0	150.0	n/a	1.0	go_stim
181242.66226809938	2600.0	n/a	-1	-1	2750	164.337731901	stim	stop-signal	464	1327020	0.0-19.35-1.35	beast_fmri_test	330	1324898,/,1325577,/,1326258,/,1326938,/	t,t,t,t	<img class = center src='/static/experiments/beast_fmri_test/images/P.png'></img>	71,89	2750.0	test	<img class = center src='/static/experiments/beast_fmri_test/images/redP.png'></img>	stop	2600.0	3.0	35.0	stop	target	P	71,Index Finger	89,Middle Finger	150.0	200.0	2600.0	2550.0	0.0	150.0	n/a	1.0	stop_stim
181392.66226809938	164.33773190059861	n/a	-1	-1	2750	164.337731901	stim	stop-signal	464	1327020	0.0-19.35-1.35	beast_fmri_test	330	1324898,/,1325577,/,1326258,/,1326938,/	t,t,t,t	<img class = center src='/static/experiments/beast_fmri_test/images/P.png'></img>	71,89	2750.0	test	<img class = center src='/static/experiments/beast_fmri_test/images/redP.png'></img>	stop	2600.0	3.0	35.0	stop	target	P	71,Index Finger	89,Middle Finger	150.0	200.0	2600.0	2550.0	0.0	150.0	n/a	1.0	ITI
182279	500	n/a	-1	-1	500	0.0	fixation	poldrack-single-stim	465	1327742	0.0-19.36-0.36	beast_fmri_test	330	1327617,/	t	<div class = centerbox2><div class = fixation>+</div></div>	none	500.0	test	n/a	n/a	n/a	n/a	n/a	n/a	n/a	n/a	n/a	n/a	n/a	n/a	n/a	n/a	n/a	n/a	n/a	n/a	fixation
181756.73231281922	200.0	n/a	-1	-1	2750	525.267687181	stim	stop-signal	466	1330495	0.0-19.36-1.36	beast_fmri_test	330	1328298,/,1328976,/,1329656,/,1330336,/,1331015,/	t,t,t,t,t	<img class = center src='/static/experiments/beast_fmri_test/images/P.png'></img>	71,89	2750.0	test	<img class = center src='/static/experiments/beast_fmri_test/images/redP.png'></img>	stop	2550.0	3.0	36.0	stop	target	P	71,Index Finger	89,Middle Finger	200.0	200.0	2550.0	2550.0	0.0	200.0	n/a	1.0	go_stim
184306.73231281922	2550.0	n/a	-1	-1	2750	525.267687181	stim	stop-signal	466	1330495	0.0-19.36-1.36	beast_fmri_test	330	1328298,/,1328976,/,1329656,/,1330336,/,1331015,/	t,t,t,t,t	<img class = center src='/static/experiments/beast_fmri_test/images/P.png'></img>	71,89	2750.0	test	<img class = center src='/static/experiments/beast_fmri_test/images/redP.png'></img>	stop	2550.0	3.0	36.0	stop	target	P	71,Index Finger	89,Middle Finger	200.0	200.0	2550.0	2550.0	0.0	200.0	n/a	1.0	stop_stim
184506.73231281922	525.26768718083622	n/a	-1	-1	2750	525.267687181	stim	stop-signal	466	1330495	0.0-19.36-1.36	beast_fmri_test	330	1328298,/,1328976,/,1329656,/,1330336,/,1331015,/	t,t,t,t,t	<img class = center src='/static/experiments/beast_fmri_test/images/P.png'></img>	71,89	2750.0	test	<img class = center src='/static/experiments/beast_fmri_test/images/redP.png'></img>	stop	2550.0	3.0	36.0	stop	target	P	71,Index Finger	89,Middle Finger	200.0	200.0	2550.0	2550.0	0.0	200.0	n/a	1.0	ITI
186114	500	n/a	-1	-1	500	0.0	fixation	poldrack-single-stim	467	1331577	0.0-19.37-0.37	beast_fmri_test	330	n/a	n/a	<div class = centerbox2><div class = fixation>+</div></div>	none	500.0	test	n/a	n/a	n/a	n/a	n/a	n/a	n/a	n/a	n/a	n/a	n/a	n/a	n/a	n/a	n/a	n/a	n/a	n/a	fixation
184220.14129084582	2750	n/a	740	89	2750	1896.85870915	stim	stop-signal	468	1334330	0.0-19.37-1.37	beast_fmri_test	330	1331695,/,1332375,/,1333054,/,1333734,/,1334413,/,1335093,/,1335774,/	t,t,t,t,t,t,t	<img class = center src='/static/experiments/beast_fmri_test/images/D.png'></img>	71,89	2750.0	test	<img class = center src='/static/experiments/beast_fmri_test/images/redD.png'></img>	go	2550.0	3.0	37.0	go	non-target	D	71,Index Finger	89,Middle Finger	250.0	200.0	2550.0	2550.0	1.0	200.0	1.0	n/a	go_stim
186970.14129084582	1896.8587091542543	n/a	740	89	2750	1896.85870915	stim	stop-signal	468	1334330	0.0-19.37-1.37	beast_fmri_test	330	1331695,/,1332375,/,1333054,/,1333734,/,1334413,/,1335093,/,1335774,/	t,t,t,t,t,t,t	<img class = center src='/static/experiments/beast_fmri_test/images/D.png'></img>	71,89	2750.0	test	<img class = center src='/static/experiments/beast_fmri_test/images/redD.png'></img>	go	2550.0	3.0	37.0	go	non-target	D	71,Index Finger	89,Middle Finger	250.0	200.0	2550.0	2550.0	1.0	200.0	1.0	n/a	ITI
191319	500	n/a	-1	-1	500	0.0	fixation	poldrack-single-stim	469	1336782	0.0-19.38-0.38	beast_fmri_test	330	1336453,/	t	<div class = centerbox2><div class = fixation>+</div></div>	none	500.0	test	n/a	n/a	n/a	n/a	n/a	n/a	n/a	n/a	n/a	n/a	n/a	n/a	n/a	n/a	n/a	n/a	n/a	n/a	fixation
190575.78467551572	200.0	n/a	-1	-1	2750	745.215324484	stim	stop-signal	470	1339534	0.0-19.38-1.38	beast_fmri_test	330	1337133,/,1337812,/,1338491,/,1339171,/,1339850,/	t,t,t,t,t	<img class = center src='/static/experiments/beast_fmri_test/images/V.png'></img>	71,89	2750.0	test	<img class = center src='/static/experiments/beast_fmri_test/images/redV.png'></img>	stop	2550.0	3.0	38.0	stop	non-target	V	71,Index Finger	89,Middle Finger	250.0	200.0	2550.0	2550.0	0.0	200.0	n/a	1.0	go_stim
193125.78467551572	2550.0	n/a	-1	-1	2750	745.215324484	stim	stop-signal	470	1339534	0.0-19.38-1.38	beast_fmri_test	330	1337133,/,1337812,/,1338491,/,1339171,/,1339850,/	t,t,t,t,t	<img class = center src='/static/experiments/beast_fmri_test/images/V.png'></img>	71,89	2750.0	test	<img class = center src='/static/experiments/beast_fmri_test/images/redV.png'></img>	stop	2550.0	3.0	38.0	stop	non-target	V	71,Index Finger	89,Middle Finger	250.0	200.0	2550.0	2550.0	0.0	200.0	n/a	1.0	stop_stim
193325.78467551572	745.21532448425171	n/a	-1	-1	2750	745.215324484	stim	stop-signal	470	1339534	0.0-19.38-1.38	beast_fmri_test	330	1337133,/,1337812,/,1338491,/,1339171,/,1339850,/	t,t,t,t,t	<img class = center src='/static/experiments/beast_fmri_test/images/V.png'></img>	71,89	2750.0	test	<img class = center src='/static/experiments/beast_fmri_test/images/redV.png'></img>	stop	2550.0	3.0	38.0	stop	non-target	V	71,Index Finger	89,Middle Finger	250.0	200.0	2550.0	2550.0	0.0	200.0	n/a	1.0	ITI
195374	500	n/a	-1	-1	500	0.0	fixation	poldrack-single-stim	471	1340837	0.0-19.39-0.39	beast_fmri_test	330	1340530,/	t	<div class = centerbox2><div class = fixation>+</div></div>	none	500.0	test	n/a	n/a	n/a	n/a	n/a	n/a	n/a	n/a	n/a	n/a	n/a	n/a	n/a	n/a	n/a	n/a	n/a	n/a	fixation
194929.44143528957	2750	n/a	925	71	2750	447.55856471	stim	stop-signal	472	1343590	0.0-19.39-1.39	beast_fmri_test	330	1341211,/,1341890,/,1342569,/,1343249,/,1343928,/	t,t,t,t,t	<img class = center src='/static/experiments/beast_fmri_test/images/D.png'></img>	71,89	2750.0	test	<img class = center src='/static/experiments/beast_fmri_test/images/redD.png'></img>	go	2500.0	3.0	39.0	go	non-target	D	71,Index Finger	89,Middle Finger	250.0	250.0	2550.0	2500.0	0.0	250.0	0.0	n/a	go_stim
197679.44143528957	447.55856471038805	n/a	925	71	2750	447.55856471	stim	stop-signal	472	1343590	0.0-19.39-1.39	beast_fmri_test	330	1341211,/,1341890,/,1342569,/,1343249,/,1343928,/	t,t,t,t,t	<img class = center src='/static/experiments/beast_fmri_test/images/D.png'></img>	71,89	2750.0	test	<img class = center src='/static/experiments/beast_fmri_test/images/redD.png'></img>	go	2500.0	3.0	39.0	go	non-target	D	71,Index Finger	89,Middle Finger	250.0	250.0	2550.0	2500.0	0.0	250.0	0.0	n/a	ITI
199134	500	n/a	-1	-1	500	0.0	fixation	poldrack-single-stim	473	1344597	0.0-19.40-0.40	beast_fmri_test	330	n/a	n/a	<div class = centerbox2><div class = fixation>+</div></div>	none	500.0	test	n/a	n/a	n/a	n/a	n/a	n/a	n/a	n/a	n/a	n/a	n/a	n/a	n/a	n/a	n/a	n/a	n/a	n/a	fixation
197371.76150512043	2750	n/a	828	89	2750	1765.23849488	stim	stop-signal	474	1347350	0.0-19.40-1.40	beast_fmri_test	330	1344609,/,1345288,/,1345968,/,1346648,/,1347328,/,1348008,/,1348688,/	t,t,t,t,t,t,t	<img class = center src='/static/experiments/beast_fmri_test/images/B.png'></img>	71,89	2750.0	test	<img class = center src='/static/experiments/beast_fmri_test/images/redB.png'></img>	go	2500.0	3.0	40.0	go	non-target	B	71,Index Finger	89,Middle Finger	250.0	250.0	2550.0	2500.0	1.0	250.0	1.0	n/a	go_stim
200121.76150512043	1765.2384948796416	n/a	828	89	2750	1765.23849488	stim	stop-signal	474	1347350	0.0-19.40-1.40	beast_fmri_test	330	1344609,/,1345288,/,1345968,/,1346648,/,1347328,/,1348008,/,1348688,/	t,t,t,t,t,t,t	<img class = center src='/static/experiments/beast_fmri_test/images/B.png'></img>	71,89	2750.0	test	<img class = center src='/static/experiments/beast_fmri_test/images/redB.png'></img>	go	2500.0	3.0	40.0	go	non-target	B	71,Index Finger	89,Middle Finger	250.0	250.0	2550.0	2500.0	1.0	250.0	1.0	n/a	ITI
204210	500	n/a	-1	-1	500	0.0	fixation	poldrack-single-stim	475	1349673	0.0-19.41-0.41	beast_fmri_test	330	1349367,/	t	<div class = centerbox2><div class = fixation>+</div></div>	none	500.0	test	n/a	n/a	n/a	n/a	n/a	n/a	n/a	n/a	n/a	n/a	n/a	n/a	n/a	n/a	n/a	n/a	n/a	n/a	fixation
203659.89229419385	2750	n/a	660	71	2750	553.107705806	stim	stop-signal	476	1352426	0.0-19.41-1.41	beast_fmri_test	330	1350047,/,1350726,/,1351406,/,1352085,/,1352765,/	t,t,t,t,t	<img class = center src='/static/experiments/beast_fmri_test/images/T.png'></img>	71,89	2750.0	test	<img class = center src='/static/experiments/beast_fmri_test/images/redT.png'></img>	go	2500.0	3.0	41.0	go	non-target	T	71,Index Finger	89,Middle Finger	250.0	250.0	2550.0	2500.0	0.0	250.0	0.0	n/a	go_stim
206409.89229419385	553.10770580622921	n/a	660	71	2750	553.107705806	stim	stop-signal	476	1352426	0.0-19.41-1.41	beast_fmri_test	330	1350047,/,1350726,/,1351406,/,1352085,/,1352765,/	t,t,t,t,t	<img class = center src='/static/experiments/beast_fmri_test/images/T.png'></img>	71,89	2750.0	test	<img class = center src='/static/experiments/beast_fmri_test/images/redT.png'></img>	go	2500.0	3.0	41.0	go	non-target	T	71,Index Finger	89,Middle Finger	250.0	250.0	2550.0	2500.0	0.0	250.0	0.0	n/a	ITI
208077	500	n/a	-1	-1	500	0.0	fixation	poldrack-single-stim	477	1353540	0.0-19.42-0.42	beast_fmri_test	330	1353445,/	t	<div class = centerbox2><div class = fixation>+</div></div>	none	500.0	test	n/a	n/a	n/a	n/a	n/a	n/a	n/a	n/a	n/a	n/a	n/a	n/a	n/a	n/a	n/a	n/a	n/a	n/a	fixation
206336.24501161487	2750	n/a	410	71	2750	1741.75498839	stim	stop-signal	478	1356291	0.0-19.42-1.42	beast_fmri_test	330	1354125,/,1354805,/,1355484,/,1356164,/,1356844,/,1357522,/	t,t,t,t,t,t	<img class = center src='/static/experiments/beast_fmri_test/images/D.png'></img>	71,89	2750.0	test	<img class = center src='/static/experiments/beast_fmri_test/images/redD.png'></img>	go	2500.0	3.0	42.0	go	target	D	71,Index Finger	89,Middle Finger	250.0	250.0	2500.0	2500.0	1.0	250.0	1.0	n/a	go_stim
209086.24501161487	1741.75498838519	n/a	410	71	2750	1741.75498839	stim	stop-signal	478	1356291	0.0-19.42-1.42	beast_fmri_test	330	1354125,/,1354805,/,1355484,/,1356164,/,1356844,/,1357522,/	t,t,t,t,t,t	<img class = center src='/static/experiments/beast_fmri_test/images/D.png'></img>	71,89	2750.0	test	<img class = center src='/static/experiments/beast_fmri_test/images/redD.png'></img>	go	2500.0	3.0	42.0	go	target	D	71,Index Finger	89,Middle Finger	250.0	250.0	2500.0	2500.0	1.0	250.0	1.0	n/a	ITI
213126	500	n/a	-1	-1	500	0.0	fixation	poldrack-single-stim	479	1358589	0.0-19.43-0.43	beast_fmri_test	330	1358203,/	t	<div class = centerbox2><div class = fixation>+</div></div>	none	500.0	test	n/a	n/a	n/a	n/a	n/a	n/a	n/a	n/a	n/a	n/a	n/a	n/a	n/a	n/a	n/a	n/a	n/a	n/a	fixation
209903.41146083199	2750	n/a	796	71	2750	3224.58853917	stim	stop-signal	480	1361341	0.0-19.43-1.43	beast_fmri_test	330	1358882,/,1359562,/,1360242,/,1360922,/,1361601,/,1362280,/,1362960,/,1363639,/,1364320,/	t,t,t,t,t,t,t,t,t	<img class = center src='/static/experiments/beast_fmri_test/images/B.png'></img>	71,89	2750.0	test	<img class = center src='/static/experiments/beast_fmri_test/images/redB.png'></img>	go	2500.0	3.0	43.0	go	target	B	71,Index Finger	89,Middle Finger	250.0	250.0	2500.0	2500.0	1.0	250.0	1.0	n/a	go_stim
212653.41146083199	3224.5885391679049	n/a	796	71	2750	3224.58853917	stim	stop-signal	480	1361341	0.0-19.43-1.43	beast_fmri_test	330	1358882,/,1359562,/,1360242,/,1360922,/,1361601,/,1362280,/,1362960,/,1363639,/,1364320,/	t,t,t,t,t,t,t,t,t	<img class = center src='/static/experiments/beast_fmri_test/images/B.png'></img>	71,89	2750.0	test	<img class = center src='/static/experiments/beast_fmri_test/images/redB.png'></img>	go	2500.0	3.0	43.0	go	target	B	71,Index Finger	89,Middle Finger	250.0	250.0	2500.0	2500.0	1.0	250.0	1.0	n/a	ITI
219664	500	n/a	-1	-1	500	0.0	fixation	poldrack-single-stim	481	1365127	0.0-19.44-0.44	beast_fmri_test	330	1365001,/	t	<div class = centerbox2><div class = fixation>+</div></div>	none	500.0	test	n/a	n/a	n/a	n/a	n/a	n/a	n/a	n/a	n/a	n/a	n/a	n/a	n/a	n/a	n/a	n/a	n/a	n/a	fixation
218841.92844422464	2750	n/a	611	89	2750	823.071555775	stim	stop-signal	482	1367878	0.0-19.44-1.44	beast_fmri_test	330	1365679,/,1366359,/,1367038,/,1367717,/,1368397,/	t,t,t,t,t	<img class = center src='/static/experiments/beast_fmri_test/images/V.png'></img>	71,89	2750.0	test	<img class = center src='/static/experiments/beast_fmri_test/images/redV.png'></img>	go	2500.0	3.0	44.0	go	non-target	V	71,Index Finger	89,Middle Finger	250.0	250.0	2500.0	2500.0	1.0	250.0	1.0	n/a	go_stim
221591.92844422464	823.0715557752435	n/a	611	89	2750	823.071555775	stim	stop-signal	482	1367878	0.0-19.44-1.44	beast_fmri_test	330	1365679,/,1366359,/,1367038,/,1367717,/,1368397,/	t,t,t,t,t	<img class = center src='/static/experiments/beast_fmri_test/images/V.png'></img>	71,89	2750.0	test	<img class = center src='/static/experiments/beast_fmri_test/images/redV.png'></img>	go	2500.0	3.0	44.0	go	non-target	V	71,Index Finger	89,Middle Finger	250.0	250.0	2500.0	2500.0	1.0	250.0	1.0	n/a	ITI
223799	500	n/a	-1	-1	500	0.0	fixation	poldrack-single-stim	483	1369262	0.0-19.45-0.45	beast_fmri_test	330	1369078,/	t	<div class = centerbox2><div class = fixation>+</div></div>	none	500.0	test	n/a	n/a	n/a	n/a	n/a	n/a	n/a	n/a	n/a	n/a	n/a	n/a	n/a	n/a	n/a	n/a	n/a	n/a	fixation
223703.81652044668	250.0	n/a	-1	-1	2750	97.1834795533	stim	stop-signal	484	1372014	0.0-19.45-1.45	beast_fmri_test	330	1369757,/,1370437,/,1371117,/,1371795,/	t,t,t,t	<img class = center src='/static/experiments/beast_fmri_test/images/B.png'></img>	71,89	2750.0	test	<img class = center src='/static/experiments/beast_fmri_test/images/redB.png'></img>	stop	2500.0	3.0	45.0	stop	non-target	B	71,Index Finger	89,Middle Finger	250.0	250.0	2500.0	2500.0	0.0	250.0	n/a	1.0	go_stim
226203.81652044668	2500.0	n/a	-1	-1	2750	97.1834795533	stim	stop-signal	484	1372014	0.0-19.45-1.45	beast_fmri_test	330	1369757,/,1370437,/,1371117,/,1371795,/	t,t,t,t	<img class = center src='/static/experiments/beast_fmri_test/images/B.png'></img>	71,89	2750.0	test	<img class = center src='/static/experiments/beast_fmri_test/images/redB.png'></img>	stop	2500.0	3.0	45.0	stop	non-target	B	71,Index Finger	89,Middle Finger	250.0	250.0	2500.0	2500.0	0.0	250.0	n/a	1.0	stop_stim
226453.81652044668	97.18347955333752	n/a	-1	-1	2750	97.1834795533	stim	stop-signal	484	1372014	0.0-19.45-1.45	beast_fmri_test	330	1369757,/,1370437,/,1371117,/,1371795,/	t,t,t,t	<img class = center src='/static/experiments/beast_fmri_test/images/B.png'></img>	71,89	2750.0	test	<img class = center src='/static/experiments/beast_fmri_test/images/redB.png'></img>	stop	2500.0	3.0	45.0	stop	non-target	B	71,Index Finger	89,Middle Finger	250.0	250.0	2500.0	2500.0	0.0	250.0	n/a	1.0	ITI
227236	500	n/a	-1	-1	500	0.0	fixation	poldrack-single-stim	485	1372699	0.0-19.46-0.46	beast_fmri_test	330	1372508,/	t	<div class = centerbox2><div class = fixation>+</div></div>	none	500.0	test	n/a	n/a	n/a	n/a	n/a	n/a	n/a	n/a	n/a	n/a	n/a	n/a	n/a	n/a	n/a	n/a	n/a	n/a	fixation
227033.485678436	2750	n/a	1504	71	2750	203.514321564	stim	stop-signal	486	1375450	0.0-19.46-1.46	beast_fmri_test	330	1373155,/,1373835,/,1374516,/,1375196,/	t,t,t,t	<img class = center src='/static/experiments/beast_fmri_test/images/V.png'></img>	71,89	2750.0	test	<img class = center src='/static/experiments/beast_fmri_test/images/redV.png'></img>	go	2450.0	3.0	46.0	go	non-target	V	71,Index Finger	89,Middle Finger	250.0	300.0	2500.0	2450.0	0.0	300.0	0.0	n/a	go_stim
229783.485678436	203.51432156408768	n/a	1504	71	2750	203.514321564	stim	stop-signal	486	1375450	0.0-19.46-1.46	beast_fmri_test	330	1373155,/,1373835,/,1374516,/,1375196,/	t,t,t,t	<img class = center src='/static/experiments/beast_fmri_test/images/V.png'></img>	71,89	2750.0	test	<img class = center src='/static/experiments/beast_fmri_test/images/redV.png'></img>	go	2450.0	3.0	46.0	go	non-target	V	71,Index Finger	89,Middle Finger	250.0	300.0	2500.0	2450.0	0.0	300.0	0.0	n/a	ITI
230748	500	n/a	-1	-1	500	0.0	fixation	poldrack-single-stim	487	1376211	0.0-19.47-0.47	beast_fmri_test	330	1375874,/	t	<div class = centerbox2><div class = fixation>+</div></div>	none	500.0	test	n/a	n/a	n/a	n/a	n/a	n/a	n/a	n/a	n/a	n/a	n/a	n/a	n/a	n/a	n/a	n/a	n/a	n/a	fixation
229782.43687160639	2750	n/a	526	71	2750	966.563128394	stim	stop-signal	488	1378962	0.0-19.47-1.47	beast_fmri_test	330	1376554,/,1377236,/,1377957,/,1378594,/,1379273,/	t,t,t,t,t	<img class = center src='/static/experiments/beast_fmri_test/images/T.png'></img>	71,89	2750.0	test	<img class = center src='/static/experiments/beast_fmri_test/images/redT.png'></img>	go	2450.0	3.0	47.0	go	non-target	T	71,Index Finger	89,Middle Finger	250.0	300.0	2500.0	2450.0	0.0	300.0	0.0	n/a	go_stim
232532.43687160639	966.56312839367831	n/a	526	71	2750	966.563128394	stim	stop-signal	488	1378962	0.0-19.47-1.47	beast_fmri_test	330	1376554,/,1377236,/,1377957,/,1378594,/,1379273,/	t,t,t,t,t	<img class = center src='/static/experiments/beast_fmri_test/images/T.png'></img>	71,89	2750.0	test	<img class = center src='/static/experiments/beast_fmri_test/images/redT.png'></img>	go	2450.0	3.0	47.0	go	non-target	T	71,Index Finger	89,Middle Finger	250.0	300.0	2500.0	2450.0	0.0	300.0	0.0	n/a	ITI
249514	15000	n/a	-1	-1	15000	0.0	practice-no-stop-feedback	poldrack-single-stim	489	1394977	0.0-20.0	beast_fmri_test	330	1379983,/,1380632,/,1381313,/,1381993,/,1382672,/,1383352,/,1384032,/,1384711,/,1385390,/,1386070,/,1386749,/,1387428,/,1388110,/,1388789,/,1389468,/,1390149,/,1390827,/,1391507,/,1392187,/,1392867,/,1393547,/,1394227,/,1394906,/	t,t,t,t,t,t,t,t,t,t,t,t,t,t,t,t,t,t,t,t,t,t,t	"<div class = ""centerbox""><p class = ""block-text"">Your delay is 2 trials.</p><p class = block-text>Please wait for the scanner to start the block</p></div>"	77	15000.0	n/a	n/a	n/a	n/a	n/a	n/a	n/a	n/a	n/a	n/a	n/a	n/a	n/a	n/a	n/a	n/a	n/a	n/a	n/a	practice-no-stop-feedback
250017	500	n/a	-1	-1	500	0.0	fixation	poldrack-single-stim	490	1395480	0.0-21.0-0.0	beast_fmri_test	330	n/a	n/a	<div class = centerbox2><div class = fixation>+</div></div>	none	500.0	test	n/a	n/a	n/a	n/a	n/a	n/a	n/a	n/a	n/a	n/a	n/a	n/a	n/a	n/a	n/a	n/a	n/a	n/a	fixation
249641.4045784201	2750	n/a	941	89	2750	377.59542158	stim	stop-signal	491	1398232	0.0-21.0-1.0	beast_fmri_test	330	1395584,/,1396265,/,1396944,/,1397625,/,1398304,/	t,t,t,t,t	<img class = center src='/static/experiments/beast_fmri_test/images/V.png'></img>	71,89	2750.0	test	<img class = center src='/static/experiments/beast_fmri_test/images/redV.png'></img>	go	-1.0	2.0	0.0	go	temp-non-target	V	71,Index Finger	89,Middle Finger	250.0	300.0	2500.0	2450.0	0.0	n/a	n/a	n/a	go_stim
252391.4045784201	377.5954215798107	n/a	941	89	2750	377.59542158	stim	stop-signal	491	1398232	0.0-21.0-1.0	beast_fmri_test	330	1395584,/,1396265,/,1396944,/,1397625,/,1398304,/	t,t,t,t,t	<img class = center src='/static/experiments/beast_fmri_test/images/V.png'></img>	71,89	2750.0	test	<img class = center src='/static/experiments/beast_fmri_test/images/redV.png'></img>	go	-1.0	2.0	0.0	go	temp-non-target	V	71,Index Finger	89,Middle Finger	250.0	300.0	2500.0	2450.0	0.0	n/a	n/a	n/a	ITI
253701	500	n/a	-1	-1	500	0.0	fixation	poldrack-single-stim	492	1399164	0.0-21.1-0.1	beast_fmri_test	330	1398984,/	t	<div class = centerbox2><div class = fixation>+</div></div>	none	500.0	test	n/a	n/a	n/a	n/a	n/a	n/a	n/a	n/a	n/a	n/a	n/a	n/a	n/a	n/a	n/a	n/a	n/a	n/a	fixation
253401.86298279581	temp_go_duration	n/a	826	89	2750	300.137017204	stim	stop-signal	493	1401915	0.0-21.1-1.1	beast_fmri_test	330	1399662,/,1400342,/,1401023,/,1401701,/	t,t,t,t	<img class = center src='/static/experiments/beast_fmri_test/images/D.png'></img>	71,89	2750.0	test	<img class = center src='/static/experiments/beast_fmri_test/images/redD.png'></img>	stop	-1.0	2.0	1.0	stop	temp-non-target	D	71,Index Finger	89,Middle Finger	250.0	300.0	2500.0	2450.0	0.0	n/a	n/a	0.0	go_stim
temp-non-target	temp_stop_duration	n/a	826	89	2750	300.137017204	stim	stop-signal	493	1401915	0.0-21.1-1.1	beast_fmri_test	330	1399662,/,1400342,/,1401023,/,1401701,/	t,t,t,t	<img class = center src='/static/experiments/beast_fmri_test/images/D.png'></img>	71,89	2750.0	test	<img class = center src='/static/experiments/beast_fmri_test/images/redD.png'></img>	stop	-1.0	2.0	1.0	stop	temp-non-target	D	71,Index Finger	89,Middle Finger	250.0	300.0	2500.0	2450.0	0.0	n/a	n/a	0.0	stop_stim
256151.86298279581	300.1370172042806	n/a	826	89	2750	300.137017204	stim	stop-signal	493	1401915	0.0-21.1-1.1	beast_fmri_test	330	1399662,/,1400342,/,1401023,/,1401701,/	t,t,t,t	<img class = center src='/static/experiments/beast_fmri_test/images/D.png'></img>	71,89	2750.0	test	<img class = center src='/static/experiments/beast_fmri_test/images/redD.png'></img>	stop	-1.0	2.0	1.0	stop	temp-non-target	D	71,Index Finger	89,Middle Finger	250.0	300.0	2500.0	2450.0	0.0	n/a	n/a	0.0	ITI
257314	500	n/a	-1	-1	500	0.0	fixation	poldrack-single-stim	494	1402777	0.0-21.2-0.2	beast_fmri_test	330	1402382,/	t	<div class = centerbox2><div class = fixation>+</div></div>	none	500.0	test	n/a	n/a	n/a	n/a	n/a	n/a	n/a	n/a	n/a	n/a	n/a	n/a	n/a	n/a	n/a	n/a	n/a	n/a	fixation
257074.29603150068	2750	n/a	514	89	2750	239.703968499	stim	stop-signal	495	1405527	0.0-21.2-1.2	beast_fmri_test	330	1403062,/,1403741,/,1404421,/,1405101,/	t,t,t,t	<img class = center src='/static/experiments/beast_fmri_test/images/B.png'></img>	71,89	2750.0	test	<img class = center src='/static/experiments/beast_fmri_test/images/redB.png'></img>	go	2450.0	2.0	2.0	go	non-target	B	71,Index Finger	89,Middle Finger	250.0	300.0	2500.0	2450.0	1.0	300.0	1.0	n/a	go_stim
259824.29603150068	239.70396849941503	n/a	514	89	2750	239.703968499	stim	stop-signal	495	1405527	0.0-21.2-1.2	beast_fmri_test	330	1403062,/,1403741,/,1404421,/,1405101,/	t,t,t,t	<img class = center src='/static/experiments/beast_fmri_test/images/B.png'></img>	71,89	2750.0	test	<img class = center src='/static/experiments/beast_fmri_test/images/redB.png'></img>	go	2450.0	2.0	2.0	go	non-target	B	71,Index Finger	89,Middle Finger	250.0	300.0	2500.0	2450.0	1.0	300.0	1.0	n/a	ITI
260869	500	n/a	-1	-1	500	0.0	fixation	poldrack-single-stim	496	1406332	0.0-21.3-0.3	beast_fmri_test	330	1405829,/	t	<div class = centerbox2><div class = fixation>+</div></div>	none	500.0	test	n/a	n/a	n/a	n/a	n/a	n/a	n/a	n/a	n/a	n/a	n/a	n/a	n/a	n/a	n/a	n/a	n/a	n/a	fixation
259583.65062042582	2750	n/a	826	89	2750	1285.34937957	stim	stop-signal	497	1409082	0.0-21.3-1.3	beast_fmri_test	330	1406459,/,1407141,/,1407820,/,1408499,/,1409179,/,1409858,/	t,t,t,t,t,t	<img class = center src='/static/experiments/beast_fmri_test/images/T.png'></img>	71,89	2750.0	test	<img class = center src='/static/experiments/beast_fmri_test/images/redT.png'></img>	go	2450.0	2.0	3.0	go	non-target	T	71,Index Finger	89,Middle Finger	250.0	300.0	2500.0	2450.0	1.0	300.0	1.0	n/a	go_stim
262333.65062042582	1285.3493795741576	n/a	826	89	2750	1285.34937957	stim	stop-signal	497	1409082	0.0-21.3-1.3	beast_fmri_test	330	1406459,/,1407141,/,1407820,/,1408499,/,1409179,/,1409858,/	t,t,t,t,t,t	<img class = center src='/static/experiments/beast_fmri_test/images/T.png'></img>	71,89	2750.0	test	<img class = center src='/static/experiments/beast_fmri_test/images/redT.png'></img>	go	2450.0	2.0	3.0	go	non-target	T	71,Index Finger	89,Middle Finger	250.0	300.0	2500.0	2450.0	1.0	300.0	1.0	n/a	ITI
265470	500	n/a	-1	-1	500	0.0	fixation	poldrack-single-stim	498	1410933	0.0-21.4-0.4	beast_fmri_test	330	1410538,/	t	<div class = centerbox2><div class = fixation>+</div></div>	none	500.0	test	n/a	n/a	n/a	n/a	n/a	n/a	n/a	n/a	n/a	n/a	n/a	n/a	n/a	n/a	n/a	n/a	n/a	n/a	fixation
264695.6495928911	250.0	n/a	352	71	2750	776.350407109	stim	stop-signal	499	1413685	0.0-21.4-1.4	beast_fmri_test	330	1411218,/,1411898,/,1412578,/,1413258,/,1413937,/	t,t,t,t,t	<img class = center src='/static/experiments/beast_fmri_test/images/B.png'></img>	71,89	2750.0	test	<img class = center src='/static/experiments/beast_fmri_test/images/redB.png'></img>	stop	2500.0	2.0	4.0	stop	target	B	71,Index Finger	89,Middle Finger	250.0	300.0	2500.0	2450.0	0.0	250.0	n/a	0.0	go_stim
267195.6495928911	2500.0	n/a	352	71	2750	776.350407109	stim	stop-signal	499	1413685	0.0-21.4-1.4	beast_fmri_test	330	1411218,/,1411898,/,1412578,/,1413258,/,1413937,/	t,t,t,t,t	<img class = center src='/static/experiments/beast_fmri_test/images/B.png'></img>	71,89	2750.0	test	<img class = center src='/static/experiments/beast_fmri_test/images/redB.png'></img>	stop	2500.0	2.0	4.0	stop	target	B	71,Index Finger	89,Middle Finger	250.0	300.0	2500.0	2450.0	0.0	250.0	n/a	0.0	stop_stim
267445.6495928911	776.35040710882299	n/a	352	71	2750	776.350407109	stim	stop-signal	499	1413685	0.0-21.4-1.4	beast_fmri_test	330	1411218,/,1411898,/,1412578,/,1413258,/,1413937,/	t,t,t,t,t	<img class = center src='/static/experiments/beast_fmri_test/images/B.png'></img>	71,89	2750.0	test	<img class = center src='/static/experiments/beast_fmri_test/images/redB.png'></img>	stop	2500.0	2.0	4.0	stop	target	B	71,Index Finger	89,Middle Finger	250.0	300.0	2500.0	2450.0	0.0	250.0	n/a	0.0	ITI
269563	500	n/a	-1	-1	500	0.0	fixation	poldrack-single-stim	500	1415026	0.0-21.5-0.5	beast_fmri_test	330	1414616,/	t	<div class = centerbox2><div class = fixation>+</div></div>	none	500.0	test	n/a	n/a	n/a	n/a	n/a	n/a	n/a	n/a	n/a	n/a	n/a	n/a	n/a	n/a	n/a	n/a	n/a	n/a	fixation
269300.4377451539	300.0	n/a	469	89	2750	263.562254846	stim	stop-signal	501	1417777	0.0-21.5-1.5	beast_fmri_test	330	1415298,/,1415975,/,1416656,/,1417336,/,1418016,/	t,t,t,t,t	<img class = center src='/static/experiments/beast_fmri_test/images/V.png'></img>	71,89	2750.0	test	<img class = center src='/static/experiments/beast_fmri_test/images/redV.png'></img>	stop	2450.0	2.0	5.0	stop	non-target	V	71,Index Finger	89,Middle Finger	200.0	300.0	2500.0	2450.0	0.0	300.0	n/a	0.0	go_stim
271750.4377451539	2450.0	n/a	469	89	2750	263.562254846	stim	stop-signal	501	1417777	0.0-21.5-1.5	beast_fmri_test	330	1415298,/,1415975,/,1416656,/,1417336,/,1418016,/	t,t,t,t,t	<img class = center src='/static/experiments/beast_fmri_test/images/V.png'></img>	71,89	2750.0	test	<img class = center src='/static/experiments/beast_fmri_test/images/redV.png'></img>	stop	2450.0	2.0	5.0	stop	non-target	V	71,Index Finger	89,Middle Finger	200.0	300.0	2500.0	2450.0	0.0	300.0	n/a	0.0	stop_stim
272050.4377451539	263.5622548461443	n/a	469	89	2750	263.562254846	stim	stop-signal	501	1417777	0.0-21.5-1.5	beast_fmri_test	330	1415298,/,1415975,/,1416656,/,1417336,/,1418016,/	t,t,t,t,t	<img class = center src='/static/experiments/beast_fmri_test/images/V.png'></img>	71,89	2750.0	test	<img class = center src='/static/experiments/beast_fmri_test/images/redV.png'></img>	stop	2450.0	2.0	5.0	stop	non-target	V	71,Index Finger	89,Middle Finger	200.0	300.0	2500.0	2450.0	0.0	300.0	n/a	0.0	ITI
273139	500	n/a	-1	-1	500	0.0	fixation	poldrack-single-stim	502	1418602	0.0-21.6-0.6	beast_fmri_test	330	n/a	n/a	<div class = centerbox2><div class = fixation>+</div></div>	none	500.0	test	n/a	n/a	n/a	n/a	n/a	n/a	n/a	n/a	n/a	n/a	n/a	n/a	n/a	n/a	n/a	n/a	n/a	n/a	fixation
272986.78935086331	2750	n/a	442	89	2750	154.210649137	stim	stop-signal	503	1421354	0.0-21.6-1.6	beast_fmri_test	330	1418696,/,1419374,/,1420054,/,1420733,/,1421414,/	t,t,t,t,t	<img class = center src='/static/experiments/beast_fmri_test/images/P.png'></img>	71,89	2750.0	test	<img class = center src='/static/experiments/beast_fmri_test/images/redP.png'></img>	go	2500.0	2.0	6.0	go	non-target	P	71,Index Finger	89,Middle Finger	200.0	250.0	2500.0	2500.0	1.0	250.0	1.0	n/a	go_stim
275736.78935086331	154.21064913671489	n/a	442	89	2750	154.210649137	stim	stop-signal	503	1421354	0.0-21.6-1.6	beast_fmri_test	330	1418696,/,1419374,/,1420054,/,1420733,/,1421414,/	t,t,t,t,t	<img class = center src='/static/experiments/beast_fmri_test/images/P.png'></img>	71,89	2750.0	test	<img class = center src='/static/experiments/beast_fmri_test/images/redP.png'></img>	go	2500.0	2.0	6.0	go	non-target	P	71,Index Finger	89,Middle Finger	200.0	250.0	2500.0	2500.0	1.0	250.0	1.0	n/a	ITI
276607	500	n/a	-1	-1	500	0.0	fixation	poldrack-single-stim	504	1422070	0.0-21.7-0.7	beast_fmri_test	330	n/a	n/a	<div class = centerbox2><div class = fixation>+</div></div>	none	500.0	test	n/a	n/a	n/a	n/a	n/a	n/a	n/a	n/a	n/a	n/a	n/a	n/a	n/a	n/a	n/a	n/a	n/a	n/a	fixation
275617.52046952373	200.0	n/a	-1	-1	2750	990.479530476	stim	stop-signal	505	1424821	0.0-21.7-1.7	beast_fmri_test	330	1422094,/,1422772,/,1423452,/,1424132,/,1424811,/,1425491,/	t,t,t,t,t,t	<img class = center src='/static/experiments/beast_fmri_test/images/V.png'></img>	71,89	2750.0	test	<img class = center src='/static/experiments/beast_fmri_test/images/redV.png'></img>	stop	2550.0	2.0	7.0	stop	target	V	71,Index Finger	89,Middle Finger	200.0	250.0	2550.0	2500.0	0.0	200.0	n/a	1.0	go_stim
278167.52046952373	2550.0	n/a	-1	-1	2750	990.479530476	stim	stop-signal	505	1424821	0.0-21.7-1.7	beast_fmri_test	330	1422094,/,1422772,/,1423452,/,1424132,/,1424811,/,1425491,/	t,t,t,t,t,t	<img class = center src='/static/experiments/beast_fmri_test/images/V.png'></img>	71,89	2750.0	test	<img class = center src='/static/experiments/beast_fmri_test/images/redV.png'></img>	stop	2550.0	2.0	7.0	stop	target	V	71,Index Finger	89,Middle Finger	200.0	250.0	2550.0	2500.0	0.0	200.0	n/a	1.0	stop_stim
278367.52046952373	990.47953047615977	n/a	-1	-1	2750	990.479530476	stim	stop-signal	505	1424821	0.0-21.7-1.7	beast_fmri_test	330	1422094,/,1422772,/,1423452,/,1424132,/,1424811,/,1425491,/	t,t,t,t,t,t	<img class = center src='/static/experiments/beast_fmri_test/images/V.png'></img>	71,89	2750.0	test	<img class = center src='/static/experiments/beast_fmri_test/images/redV.png'></img>	stop	2550.0	2.0	7.0	stop	target	V	71,Index Finger	89,Middle Finger	200.0	250.0	2550.0	2500.0	0.0	200.0	n/a	1.0	ITI
280911	500	n/a	-1	-1	500	0.0	fixation	poldrack-single-stim	506	1426374	0.0-21.8-0.8	beast_fmri_test	330	1426171,/	t	<div class = centerbox2><div class = fixation>+</div></div>	none	500.0	test	n/a	n/a	n/a	n/a	n/a	n/a	n/a	n/a	n/a	n/a	n/a	n/a	n/a	n/a	n/a	n/a	n/a	n/a	fixation
279650.79259438952	2750	n/a	365	71	2750	1261.20740561	stim	stop-signal	507	1429125	0.0-21.8-1.8	beast_fmri_test	330	1426851,/,1427531,/,1428211,/,1428889,/,1429571,/,1430250,/	t,t,t,t,t,t	<img class = center src='/static/experiments/beast_fmri_test/images/P.png'></img>	71,89	2750.0	test	<img class = center src='/static/experiments/beast_fmri_test/images/redP.png'></img>	go	2500.0	2.0	8.0	go	target	P	71,Index Finger	89,Middle Finger	250.0	250.0	2500.0	2500.0	1.0	250.0	1.0	n/a	go_stim
282400.79259438952	1261.2074056103759	n/a	365	71	2750	1261.20740561	stim	stop-signal	507	1429125	0.0-21.8-1.8	beast_fmri_test	330	1426851,/,1427531,/,1428211,/,1428889,/,1429571,/,1430250,/	t,t,t,t,t,t	<img class = center src='/static/experiments/beast_fmri_test/images/P.png'></img>	71,89	2750.0	test	<img class = center src='/static/experiments/beast_fmri_test/images/redP.png'></img>	go	2500.0	2.0	8.0	go	target	P	71,Index Finger	89,Middle Finger	250.0	250.0	2500.0	2500.0	1.0	250.0	1.0	n/a	ITI
285487	500	n/a	-1	-1	500	0.0	fixation	poldrack-single-stim	508	1430950	0.0-21.9-0.9	beast_fmri_test	330	1430929,/	t	<div class = centerbox2><div class = fixation>+</div></div>	none	500.0	test	n/a	n/a	n/a	n/a	n/a	n/a	n/a	n/a	n/a	n/a	n/a	n/a	n/a	n/a	n/a	n/a	n/a	n/a	fixation
283776.08350298973	250.0	n/a	346	71	2750	1712.91649701	stim	stop-signal	509	1433702	0.0-21.9-1.9	beast_fmri_test	330	1431608,/,1432289,/,1432968,/,1433649,/,1434328,/,1435006,/	t,t,t,t,t,t	<img class = center src='/static/experiments/beast_fmri_test/images/V.png'></img>	71,89	2750.0	test	<img class = center src='/static/experiments/beast_fmri_test/images/redV.png'></img>	stop	2500.0	2.0	9.0	stop	target	V	71,Index Finger	89,Middle Finger	250.0	250.0	2500.0	2500.0	0.0	250.0	n/a	0.0	go_stim
286276.08350298973	2500.0	n/a	346	71	2750	1712.91649701	stim	stop-signal	509	1433702	0.0-21.9-1.9	beast_fmri_test	330	1431608,/,1432289,/,1432968,/,1433649,/,1434328,/,1435006,/	t,t,t,t,t,t	<img class = center src='/static/experiments/beast_fmri_test/images/V.png'></img>	71,89	2750.0	test	<img class = center src='/static/experiments/beast_fmri_test/images/redV.png'></img>	stop	2500.0	2.0	9.0	stop	target	V	71,Index Finger	89,Middle Finger	250.0	250.0	2500.0	2500.0	0.0	250.0	n/a	0.0	stop_stim
286526.08350298973	1712.9164970103438	n/a	346	71	2750	1712.91649701	stim	stop-signal	509	1433702	0.0-21.9-1.9	beast_fmri_test	330	1431608,/,1432289,/,1432968,/,1433649,/,1434328,/,1435006,/	t,t,t,t,t,t	<img class = center src='/static/experiments/beast_fmri_test/images/V.png'></img>	71,89	2750.0	test	<img class = center src='/static/experiments/beast_fmri_test/images/redV.png'></img>	stop	2500.0	2.0	9.0	stop	target	V	71,Index Finger	89,Middle Finger	250.0	250.0	2500.0	2500.0	0.0	250.0	n/a	0.0	ITI
290508	500	n/a	-1	-1	500	0.0	fixation	poldrack-single-stim	510	1435971	0.0-21.10-0.10	beast_fmri_test	330	1435688,/	t	<div class = centerbox2><div class = fixation>+</div></div>	none	500.0	test	n/a	n/a	n/a	n/a	n/a	n/a	n/a	n/a	n/a	n/a	n/a	n/a	n/a	n/a	n/a	n/a	n/a	n/a	fixation
290378.58600748377	2750	n/a	407	89	2750	130.413992516	stim	stop-signal	511	1438722	0.0-21.10-1.10	beast_fmri_test	330	1436367,/,1437046,/,1437725,/,1438405,/	t,t,t,t	<img class = center src='/static/experiments/beast_fmri_test/images/B.png'></img>	71,89	2750.0	test	<img class = center src='/static/experiments/beast_fmri_test/images/redB.png'></img>	go	2500.0	2.0	10.0	go	non-target	B	71,Index Finger	89,Middle Finger	200.0	250.0	2500.0	2500.0	1.0	250.0	1.0	n/a	go_stim
293128.58600748377	130.41399251618066	n/a	407	89	2750	130.413992516	stim	stop-signal	511	1438722	0.0-21.10-1.10	beast_fmri_test	330	1436367,/,1437046,/,1437725,/,1438405,/	t,t,t,t	<img class = center src='/static/experiments/beast_fmri_test/images/B.png'></img>	71,89	2750.0	test	<img class = center src='/static/experiments/beast_fmri_test/images/redB.png'></img>	go	2500.0	2.0	10.0	go	non-target	B	71,Index Finger	89,Middle Finger	200.0	250.0	2500.0	2500.0	1.0	250.0	1.0	n/a	ITI
293951	500	n/a	-1	-1	500	0.0	fixation	poldrack-single-stim	512	1439414	0.0-21.11-0.11	beast_fmri_test	330	1439087,/	t	<div class = centerbox2><div class = fixation>+</div></div>	none	500.0	test	n/a	n/a	n/a	n/a	n/a	n/a	n/a	n/a	n/a	n/a	n/a	n/a	n/a	n/a	n/a	n/a	n/a	n/a	fixation
293865.6083337334	2750	n/a	775	89	2750	86.3916662665	stim	stop-signal	513	1442165	0.0-21.11-1.11	beast_fmri_test	330	1439766,/,1440445,/,1441125,/,1441804,/	t,t,t,t	<img class = center src='/static/experiments/beast_fmri_test/images/D.png'></img>	71,89	2750.0	test	<img class = center src='/static/experiments/beast_fmri_test/images/redD.png'></img>	go	2500.0	2.0	11.0	go	non-target	D	71,Index Finger	89,Middle Finger	200.0	250.0	2500.0	2500.0	1.0	250.0	1.0	n/a	go_stim
296615.6083337334	86.391666266495051	n/a	775	89	2750	86.3916662665	stim	stop-signal	513	1442165	0.0-21.11-1.11	beast_fmri_test	330	1439766,/,1440445,/,1441125,/,1441804,/	t,t,t,t	<img class = center src='/static/experiments/beast_fmri_test/images/D.png'></img>	71,89	2750.0	test	<img class = center src='/static/experiments/beast_fmri_test/images/redD.png'></img>	go	2500.0	2.0	11.0	go	non-target	D	71,Index Finger	89,Middle Finger	200.0	250.0	2500.0	2500.0	1.0	250.0	1.0	n/a	ITI
297351	500	n/a	-1	-1	500	0.0	fixation	poldrack-single-stim	514	1442814	0.0-21.12-0.12	beast_fmri_test	330	1442483,/	t	<div class = centerbox2><div class = fixation>+</div></div>	none	500.0	test	n/a	n/a	n/a	n/a	n/a	n/a	n/a	n/a	n/a	n/a	n/a	n/a	n/a	n/a	n/a	n/a	n/a	n/a	fixation
296818.73329412169	2750	n/a	598	89	2750	533.266705878	stim	stop-signal	515	1445565	0.0-21.12-1.12	beast_fmri_test	330	1443163,/,1443842,/,1444523,/,1445203,/,1445882,/	t,t,t,t,t	<img class = center src='/static/experiments/beast_fmri_test/images/D.png'></img>	71,89	2750.0	test	<img class = center src='/static/experiments/beast_fmri_test/images/redD.png'></img>	go	2500.0	2.0	12.0	go	non-target	D	71,Index Finger	89,Middle Finger	200.0	250.0	2500.0	2500.0	1.0	250.0	1.0	n/a	go_stim
299568.73329412169	533.26670587835702	n/a	598	89	2750	533.266705878	stim	stop-signal	515	1445565	0.0-21.12-1.12	beast_fmri_test	330	1443163,/,1443842,/,1444523,/,1445203,/,1445882,/	t,t,t,t,t	<img class = center src='/static/experiments/beast_fmri_test/images/D.png'></img>	71,89	2750.0	test	<img class = center src='/static/experiments/beast_fmri_test/images/redD.png'></img>	go	2500.0	2.0	12.0	go	non-target	D	71,Index Finger	89,Middle Finger	200.0	250.0	2500.0	2500.0	1.0	250.0	1.0	n/a	ITI
301202	500	n/a	-1	-1	500	0.0	fixation	poldrack-single-stim	516	1446665	0.0-21.13-0.13	beast_fmri_test	330	1446562,/	t	<div class = centerbox2><div class = fixation>+</div></div>	none	500.0	test	n/a	n/a	n/a	n/a	n/a	n/a	n/a	n/a	n/a	n/a	n/a	n/a	n/a	n/a	n/a	n/a	n/a	n/a	fixation
300331.53876277036	2750	n/a	592	89	2750	871.46123723	stim	stop-signal	517	1449416	0.0-21.13-1.13	beast_fmri_test	330	1447241,/,1447921,/,1448600,/,1449281,/,1449960,/	t,t,t,t,t	<img class = center src='/static/experiments/beast_fmri_test/images/V.png'></img>	71,89	2750.0	test	<img class = center src='/static/experiments/beast_fmri_test/images/redV.png'></img>	go	2500.0	2.0	13.0	go	non-target	V	71,Index Finger	89,Middle Finger	200.0	250.0	2500.0	2500.0	1.0	250.0	1.0	n/a	go_stim
303081.53876277036	871.46123722966297	n/a	592	89	2750	871.46123723	stim	stop-signal	517	1449416	0.0-21.13-1.13	beast_fmri_test	330	1447241,/,1447921,/,1448600,/,1449281,/,1449960,/	t,t,t,t,t	<img class = center src='/static/experiments/beast_fmri_test/images/V.png'></img>	71,89	2750.0	test	<img class = center src='/static/experiments/beast_fmri_test/images/redV.png'></img>	go	2500.0	2.0	13.0	go	non-target	V	71,Index Finger	89,Middle Finger	200.0	250.0	2500.0	2500.0	1.0	250.0	1.0	n/a	ITI
305387	500	n/a	-1	-1	500	0.0	fixation	poldrack-single-stim	518	1450850	0.0-21.14-0.14	beast_fmri_test	330	1450640,/	t	<div class = centerbox2><div class = fixation>+</div></div>	none	500.0	test	n/a	n/a	n/a	n/a	n/a	n/a	n/a	n/a	n/a	n/a	n/a	n/a	n/a	n/a	n/a	n/a	n/a	n/a	fixation
304895.79415338207	2750	n/a	425	89	2750	492.205846618	stim	stop-signal	519	1453601	0.0-21.14-1.14	beast_fmri_test	330	1451320,/,1452000,/,1452678,/,1453358,/,1454039,/	t,t,t,t,t	<img class = center src='/static/experiments/beast_fmri_test/images/D.png'></img>	71,89	2750.0	test	<img class = center src='/static/experiments/beast_fmri_test/images/redD.png'></img>	go	2550.0	2.0	14.0	go	target	D	71,Index Finger	89,Middle Finger	200.0	250.0	2550.0	2500.0	0.0	200.0	0.0	n/a	go_stim
307645.79415338207	492.20584661788683	n/a	425	89	2750	492.205846618	stim	stop-signal	519	1453601	0.0-21.14-1.14	beast_fmri_test	330	1451320,/,1452000,/,1452678,/,1453358,/,1454039,/	t,t,t,t,t	<img class = center src='/static/experiments/beast_fmri_test/images/D.png'></img>	71,89	2750.0	test	<img class = center src='/static/experiments/beast_fmri_test/images/redD.png'></img>	go	2550.0	2.0	14.0	go	target	D	71,Index Finger	89,Middle Finger	200.0	250.0	2550.0	2500.0	0.0	200.0	0.0	n/a	ITI
309200	500	n/a	-1	-1	500	0.0	fixation	poldrack-single-stim	520	1454663	0.0-21.15-0.15	beast_fmri_test	330	n/a	n/a	<div class = centerbox2><div class = fixation>+</div></div>	none	500.0	test	n/a	n/a	n/a	n/a	n/a	n/a	n/a	n/a	n/a	n/a	n/a	n/a	n/a	n/a	n/a	n/a	n/a	n/a	fixation
308978.34031920996	2750	n/a	526	89	2750	223.65968079	stim	stop-signal	521	1457415	0.0-21.15-1.15	beast_fmri_test	330	1454719,/,1455398,/,1456077,/,1456756,/,1457435,/	t,t,t,t,t	<img class = center src='/static/experiments/beast_fmri_test/images/P.png'></img>	71,89	2750.0	test	<img class = center src='/static/experiments/beast_fmri_test/images/redP.png'></img>	go	2500.0	2.0	15.0	go	non-target	P	71,Index Finger	89,Middle Finger	200.0	250.0	2550.0	2500.0	1.0	250.0	1.0	n/a	go_stim
311728.34031920996	223.65968078999038	n/a	526	89	2750	223.65968079	stim	stop-signal	521	1457415	0.0-21.15-1.15	beast_fmri_test	330	1454719,/,1455398,/,1456077,/,1456756,/,1457435,/	t,t,t,t,t	<img class = center src='/static/experiments/beast_fmri_test/images/P.png'></img>	71,89	2750.0	test	<img class = center src='/static/experiments/beast_fmri_test/images/redP.png'></img>	go	2500.0	2.0	15.0	go	non-target	P	71,Index Finger	89,Middle Finger	200.0	250.0	2550.0	2500.0	1.0	250.0	1.0	n/a	ITI
312736	500	n/a	-1	-1	500	0.0	fixation	poldrack-single-stim	522	1458199	0.0-21.16-0.16	beast_fmri_test	330	1458118,/	t	<div class = centerbox2><div class = fixation>+</div></div>	none	500.0	test	n/a	n/a	n/a	n/a	n/a	n/a	n/a	n/a	n/a	n/a	n/a	n/a	n/a	n/a	n/a	n/a	n/a	n/a	fixation
311877.8031056535	2750	n/a	541	71	2750	859.196894347	stim	stop-signal	523	1460950	0.0-21.16-1.16	beast_fmri_test	330	1458795,/,1459476,/,1460155,/,1460834,/,1461514,/	t,t,t,t,t	<img class = center src='/static/experiments/beast_fmri_test/images/D.png'></img>	71,89	2750.0	test	<img class = center src='/static/experiments/beast_fmri_test/images/redD.png'></img>	go	2550.0	2.0	16.0	go	target	D	71,Index Finger	89,Middle Finger	200.0	250.0	2550.0	2500.0	1.0	200.0	1.0	n/a	go_stim
314627.8031056535	859.19689434651775	n/a	541	71	2750	859.196894347	stim	stop-signal	523	1460950	0.0-21.16-1.16	beast_fmri_test	330	1458795,/,1459476,/,1460155,/,1460834,/,1461514,/	t,t,t,t,t	<img class = center src='/static/experiments/beast_fmri_test/images/D.png'></img>	71,89	2750.0	test	<img class = center src='/static/experiments/beast_fmri_test/images/redD.png'></img>	go	2550.0	2.0	16.0	go	target	D	71,Index Finger	89,Middle Finger	200.0	250.0	2550.0	2500.0	1.0	200.0	1.0	n/a	ITI
316911	500	n/a	-1	-1	500	0.0	fixation	poldrack-single-stim	524	1462374	0.0-21.17-0.17	beast_fmri_test	330	1462222,/	t	<div class = centerbox2><div class = fixation>+</div></div>	none	500.0	test	n/a	n/a	n/a	n/a	n/a	n/a	n/a	n/a	n/a	n/a	n/a	n/a	n/a	n/a	n/a	n/a	n/a	n/a	fixation
316676.40367215499	200.0	n/a	420	71	2750	237.596327845	stim	stop-signal	525	1465127	0.0-21.17-1.17	beast_fmri_test	330	1462875,/,1463553,/,1464234,/,1464914,/	t,t,t,t	<img class = center src='/static/experiments/beast_fmri_test/images/P.png'></img>	71,89	2750.0	test	<img class = center src='/static/experiments/beast_fmri_test/images/redP.png'></img>	stop	2550.0	2.0	17.0	stop	target	P	71,Index Finger	89,Middle Finger	200.0	250.0	2550.0	2500.0	0.0	200.0	n/a	0.0	go_stim
319226.40367215499	2550.0	n/a	420	71	2750	237.596327845	stim	stop-signal	525	1465127	0.0-21.17-1.17	beast_fmri_test	330	1462875,/,1463553,/,1464234,/,1464914,/	t,t,t,t	<img class = center src='/static/experiments/beast_fmri_test/images/P.png'></img>	71,89	2750.0	test	<img class = center src='/static/experiments/beast_fmri_test/images/redP.png'></img>	stop	2550.0	2.0	17.0	stop	target	P	71,Index Finger	89,Middle Finger	200.0	250.0	2550.0	2500.0	0.0	200.0	n/a	0.0	stop_stim
319426.40367215499	237.59632784500855	n/a	420	71	2750	237.596327845	stim	stop-signal	525	1465127	0.0-21.17-1.17	beast_fmri_test	330	1462875,/,1463553,/,1464234,/,1464914,/	t,t,t,t	<img class = center src='/static/experiments/beast_fmri_test/images/P.png'></img>	71,89	2750.0	test	<img class = center src='/static/experiments/beast_fmri_test/images/redP.png'></img>	stop	2550.0	2.0	17.0	stop	target	P	71,Index Finger	89,Middle Finger	200.0	250.0	2550.0	2500.0	0.0	200.0	n/a	0.0	ITI
320460	500	n/a	-1	-1	500	0.0	fixation	poldrack-single-stim	526	1465923	0.0-21.18-0.18	beast_fmri_test	330	1465593,/	t	<div class = centerbox2><div class = fixation>+</div></div>	none	500.0	test	n/a	n/a	n/a	n/a	n/a	n/a	n/a	n/a	n/a	n/a	n/a	n/a	n/a	n/a	n/a	n/a	n/a	n/a	fixation
318270.63780237292	250.0	n/a	452	89	2750	2190.36219763	stim	stop-signal	527	1468674	0.0-21.18-1.18	beast_fmri_test	330	1466273,/,1466952,/,1467633,/,1468312,/,1469017,/,1469670,/,1470351,/	t,t,t,t,t,t,t	<img class = center src='/static/experiments/beast_fmri_test/images/V.png'></img>	71,89	2750.0	test	<img class = center src='/static/experiments/beast_fmri_test/images/redV.png'></img>	stop	2500.0	2.0	18.0	stop	non-target	V	71,Index Finger	89,Middle Finger	150.0	250.0	2550.0	2500.0	0.0	250.0	n/a	0.0	go_stim
320770.63780237292	2500.0	n/a	452	89	2750	2190.36219763	stim	stop-signal	527	1468674	0.0-21.18-1.18	beast_fmri_test	330	1466273,/,1466952,/,1467633,/,1468312,/,1469017,/,1469670,/,1470351,/	t,t,t,t,t,t,t	<img class = center src='/static/experiments/beast_fmri_test/images/V.png'></img>	71,89	2750.0	test	<img class = center src='/static/experiments/beast_fmri_test/images/redV.png'></img>	stop	2500.0	2.0	18.0	stop	non-target	V	71,Index Finger	89,Middle Finger	150.0	250.0	2550.0	2500.0	0.0	250.0	n/a	0.0	stop_stim
321020.63780237292	2190.3621976269687	n/a	452	89	2750	2190.36219763	stim	stop-signal	527	1468674	0.0-21.18-1.18	beast_fmri_test	330	1466273,/,1466952,/,1467633,/,1468312,/,1469017,/,1469670,/,1470351,/	t,t,t,t,t,t,t	<img class = center src='/static/experiments/beast_fmri_test/images/V.png'></img>	71,89	2750.0	test	<img class = center src='/static/experiments/beast_fmri_test/images/redV.png'></img>	stop	2500.0	2.0	18.0	stop	non-target	V	71,Index Finger	89,Middle Finger	150.0	250.0	2550.0	2500.0	0.0	250.0	n/a	0.0	ITI
325960	500	n/a	-1	-1	500	0.0	fixation	poldrack-single-stim	528	1471423	0.0-21.19-0.19	beast_fmri_test	330	1471031,/	t	<div class = centerbox2><div class = fixation>+</div></div>	none	500.0	test	n/a	n/a	n/a	n/a	n/a	n/a	n/a	n/a	n/a	n/a	n/a	n/a	n/a	n/a	n/a	n/a	n/a	n/a	fixation
325605.99963493319	200.0	n/a	493	89	2750	355.000365067	stim	stop-signal	529	1474174	0.0-21.19-1.19	beast_fmri_test	330	1471710,/,1472390,/,1473070,/,1473750,/,1474429,/	t,t,t,t,t	<img class = center src='/static/experiments/beast_fmri_test/images/T.png'></img>	71,89	2750.0	test	<img class = center src='/static/experiments/beast_fmri_test/images/redT.png'></img>	stop	2550.0	2.0	19.0	stop	non-target	T	71,Index Finger	89,Middle Finger	150.0	200.0	2550.0	2550.0	0.0	200.0	n/a	0.0	go_stim
328155.99963493319	2550.0	n/a	493	89	2750	355.000365067	stim	stop-signal	529	1474174	0.0-21.19-1.19	beast_fmri_test	330	1471710,/,1472390,/,1473070,/,1473750,/,1474429,/	t,t,t,t,t	<img class = center src='/static/experiments/beast_fmri_test/images/T.png'></img>	71,89	2750.0	test	<img class = center src='/static/experiments/beast_fmri_test/images/redT.png'></img>	stop	2550.0	2.0	19.0	stop	non-target	T	71,Index Finger	89,Middle Finger	150.0	200.0	2550.0	2550.0	0.0	200.0	n/a	0.0	stop_stim
328355.99963493319	355.00036506675195	n/a	493	89	2750	355.000365067	stim	stop-signal	529	1474174	0.0-21.19-1.19	beast_fmri_test	330	1471710,/,1472390,/,1473070,/,1473750,/,1474429,/	t,t,t,t,t	<img class = center src='/static/experiments/beast_fmri_test/images/T.png'></img>	71,89	2750.0	test	<img class = center src='/static/experiments/beast_fmri_test/images/redT.png'></img>	stop	2550.0	2.0	19.0	stop	non-target	T	71,Index Finger	89,Middle Finger	150.0	200.0	2550.0	2550.0	0.0	200.0	n/a	0.0	ITI
329624	500	n/a	-1	-1	500	0.0	fixation	poldrack-single-stim	530	1475087	0.0-21.20-0.20	beast_fmri_test	330	n/a	n/a	<div class = centerbox2><div class = fixation>+</div></div>	none	500.0	test	n/a	n/a	n/a	n/a	n/a	n/a	n/a	n/a	n/a	n/a	n/a	n/a	n/a	n/a	n/a	n/a	n/a	n/a	fixation
329413.38865446509	2750	n/a	575	89	2750	213.611345535	stim	stop-signal	531	1477840	0.0-21.20-1.20	beast_fmri_test	330	1475111,/,1475789,/,1476467,/,1477148,/,1477827,/	t,t,t,t,t	<img class = center src='/static/experiments/beast_fmri_test/images/P.png'></img>	71,89	2750.0	test	<img class = center src='/static/experiments/beast_fmri_test/images/redP.png'></img>	go	2600.0	2.0	20.0	go	non-target	P	71,Index Finger	89,Middle Finger	150.0	150.0	2550.0	2600.0	1.0	150.0	1.0	n/a	go_stim
