onset	duration	text	rt	key_press	block_duration	timing_post_trial	trial_id	trial_type	trial_index	time_elapsed	internal_node_id	exp_id	subject_id	trigger_times	triggers	stimulus	possible_responses	stim_duration	exp_stage	SS_stimulus	SS_trial_type	SS_duration	load	trial_num	stop_trial_type	adaptive_trial_type	stim	yes_response_key	no_response_key	SSD_target	SSD_non_target	SSTarget	SSNonTarget	go_acc	SS_delay	adaptive_acc	stop_acc	new_trial_type
test	10880.0	n/a	-1	-1	10880	0.0	practice-no-stop-feedback	poldrack-single-stim	6	109316	0.0-6.0	beast_fmri_test	330	98438,/,99116,/,99797,/,100477,/,101156,/,101835,/,102514,/,103194,/,103873,/,104555,/,105232,/,105914,/,106594,/,107272,/,107956,/,108632,/,109311,/	t,t,t,t,t,t,t,t,t,t,t,t,t,t,t,t,t	"<div class = ""centerbox""><p class = ""block-text"">Your delay is 2 trials.</p><p class = block-text>Please wait for the scanner to start the block</p></div>"	77	10880.0	n/a	n/a	n/a	n/a	n/a	n/a	n/a	n/a	n/a	n/a	n/a	n/a	n/a	n/a	n/a	n/a	n/a	n/a	n/a	start_functional_block
11381	500.0	n/a	-1	-1	500	0.0	fixation	poldrack-single-stim	7	109819	0.0-7.0-0.0	beast_fmri_test	330	n/a	n/a	<div class = centerbox2><div class = fixation>+</div></div>	none	500.0	test	n/a	n/a	n/a	n/a	n/a	n/a	n/a	n/a	n/a	n/a	n/a	n/a	n/a	n/a	n/a	n/a	n/a	n/a	fixation
8626.9965900911193	2750.0	n/a	-1	-1	2750	2761.00340991	stim	stop-signal	8	112576	0.0-7.0-1.0	beast_fmri_test	330	109992,/,110671,/,111351,/,112030,/,112709,/,113390,/,114069,/,114750,/	t,t,t,t,t,t,t,t	<img class = center src='/static/experiments/beast_fmri_test/images/V.png'></img>	71,89	2750.0	test	<img class = center src='/static/experiments/beast_fmri_test/images/redV.png'></img>	go	-1.0	2.0	0.0	go	temp-non-target	V	71,Index Finger	89,Middle Finger	500.0	500.0	0.0	0.0	0.0	n/a	n/a	n/a	go_stim
11376.996590091119	2761.00340991	n/a	-1	-1	2750	2761.00340991	stim	stop-signal	8	112576	0.0-7.0-1.0	beast_fmri_test	330	109992,/,110671,/,111351,/,112030,/,112709,/,113390,/,114069,/,114750,/	t,t,t,t,t,t,t,t	<img class = center src='/static/experiments/beast_fmri_test/images/V.png'></img>	71,89	2750.0	test	<img class = center src='/static/experiments/beast_fmri_test/images/redV.png'></img>	go	-1.0	2.0	0.0	go	temp-non-target	V	71,Index Finger	89,Middle Finger	500.0	500.0	0.0	0.0	0.0	n/a	n/a	n/a	ITI
17409	500.0	n/a	-1	-1	500	0.0	fixation	poldrack-single-stim	9	115847	0.0-7.1-0.1	beast_fmri_test	330	115429,/	t	<div class = centerbox2><div class = fixation>+</div></div>	none	500.0	test	n/a	n/a	n/a	n/a	n/a	n/a	n/a	n/a	n/a	n/a	n/a	n/a	n/a	n/a	n/a	n/a	n/a	n/a	fixation
16503.019311948534	2750.0	n/a	812	89	2750	907.980688051	stim	stop-signal	10	118599	0.0-7.1-1.1	beast_fmri_test	330	116109,/,116788,/,117468,/,118147,/,118827,/,119507,/	t,t,t,t,t,t	<img class = center src='/static/experiments/beast_fmri_test/images/T.png'></img>	71,89	2750.0	test	<img class = center src='/static/experiments/beast_fmri_test/images/redT.png'></img>	go	-1.0	2.0	1.0	go	temp-non-target	T	71,Index Finger	89,Middle Finger	500.0	500.0	0.0	0.0	0.0	n/a	n/a	n/a	go_stim
19253.019311948534	907.980688051	n/a	812	89	2750	907.980688051	stim	stop-signal	10	118599	0.0-7.1-1.1	beast_fmri_test	330	116109,/,116788,/,117468,/,118147,/,118827,/,119507,/	t,t,t,t,t,t	<img class = center src='/static/experiments/beast_fmri_test/images/T.png'></img>	71,89	2750.0	test	<img class = center src='/static/experiments/beast_fmri_test/images/redT.png'></img>	go	-1.0	2.0	1.0	go	temp-non-target	T	71,Index Finger	89,Middle Finger	500.0	500.0	0.0	0.0	0.0	n/a	n/a	n/a	ITI
21575	500.0	n/a	-1	-1	500	0.0	fixation	poldrack-single-stim	11	120013	0.0-7.2-0.2	beast_fmri_test	330	n/a	n/a	<div class = centerbox2><div class = fixation>+</div></div>	none	500.0	test	n/a	n/a	n/a	n/a	n/a	n/a	n/a	n/a	n/a	n/a	n/a	n/a	n/a	n/a	n/a	n/a	n/a	n/a	fixation
18901.263633219045	2750.0	n/a	683	89	2750	2675.73636678	stim	stop-signal	12	122765	0.0-7.2-1.2	beast_fmri_test	330	120187,/,120866,/,121546,/,122225,/,122905,/,123586,/,124265,/,124944,/	t,t,t,t,t,t,t,t	<img class = center src='/static/experiments/beast_fmri_test/images/P.png'></img>	71,89	2750.0	test	<img class = center src='/static/experiments/beast_fmri_test/images/redP.png'></img>	go	2250.0	2.0	2.0	go	non-target	P	71,Index Finger	89,Middle Finger	500.0	500.0	0.0	2250.0	1.0	500.0	1.0	n/a	go_stim
21651.263633219045	2675.73636678	n/a	683	89	2750	2675.73636678	stim	stop-signal	12	122765	0.0-7.2-1.2	beast_fmri_test	330	120187,/,120866,/,121546,/,122225,/,122905,/,123586,/,124265,/,124944,/	t,t,t,t,t,t,t,t	<img class = center src='/static/experiments/beast_fmri_test/images/P.png'></img>	71,89	2750.0	test	<img class = center src='/static/experiments/beast_fmri_test/images/redP.png'></img>	go	2250.0	2.0	2.0	go	non-target	P	71,Index Finger	89,Middle Finger	500.0	500.0	0.0	2250.0	1.0	500.0	1.0	n/a	ITI
27508	500.0	n/a	-1	-1	500	0.0	fixation	poldrack-single-stim	13	125946	0.0-7.3-0.3	beast_fmri_test	330	125624,/	t	<div class = centerbox2><div class = fixation>+</div></div>	none	500.0	test	n/a	n/a	n/a	n/a	n/a	n/a	n/a	n/a	n/a	n/a	n/a	n/a	n/a	n/a	n/a	n/a	n/a	n/a	fixation
26494.452812754331	500.0	n/a	827	89	2750	1016.54718725	stim	stop-signal	14	128699	0.0-7.3-1.3	beast_fmri_test	330	126304,/,126983,/,127662,/,128342,/,129022,/,129702,/	t,t,t,t,t,t	<img class = center src='/static/experiments/beast_fmri_test/images/B.png'></img>	71,89	2750.0	test	<img class = center src='/static/experiments/beast_fmri_test/images/redB.png'></img>	stop	2250.0	2.0	3.0	stop	non-target	B	71,Index Finger	89,Middle Finger	500.0	500.0	0.0	2250.0	0.0	500.0	n/a	0.0	go_stim
28744.452812754331	2250.0	n/a	827	89	2750	1016.54718725	stim	stop-signal	14	128699	0.0-7.3-1.3	beast_fmri_test	330	126304,/,126983,/,127662,/,128342,/,129022,/,129702,/	t,t,t,t,t,t	<img class = center src='/static/experiments/beast_fmri_test/images/B.png'></img>	71,89	2750.0	test	<img class = center src='/static/experiments/beast_fmri_test/images/redB.png'></img>	stop	2250.0	2.0	3.0	stop	non-target	B	71,Index Finger	89,Middle Finger	500.0	500.0	0.0	2250.0	0.0	500.0	n/a	0.0	stop_stim
29244.452812754331	1016.54718725	n/a	827	89	2750	1016.54718725	stim	stop-signal	14	128699	0.0-7.3-1.3	beast_fmri_test	330	126304,/,126983,/,127662,/,128342,/,129022,/,129702,/	t,t,t,t,t,t	<img class = center src='/static/experiments/beast_fmri_test/images/B.png'></img>	71,89	2750.0	test	<img class = center src='/static/experiments/beast_fmri_test/images/redB.png'></img>	stop	2250.0	2.0	3.0	stop	non-target	B	71,Index Finger	89,Middle Finger	500.0	500.0	0.0	2250.0	0.0	500.0	n/a	0.0	ITI
31783	500.0	n/a	-1	-1	500	0.0	fixation	poldrack-single-stim	15	130221	0.0-7.4-0.4	beast_fmri_test	330	n/a	n/a	<div class = centerbox2><div class = fixation>+</div></div>	none	500.0	test	n/a	n/a	n/a	n/a	n/a	n/a	n/a	n/a	n/a	n/a	n/a	n/a	n/a	n/a	n/a	n/a	n/a	n/a	fixation
31667.042626594426	450.0	n/a	-1	-1	2750	120.957373406	stim	stop-signal	16	132976	0.0-7.4-1.4	beast_fmri_test	330	130382,/,131061,/,131740,/,132420,/	t,t,t,t	<img class = center src='/static/experiments/beast_fmri_test/images/T.png'></img>	71,89	2750.0	test	<img class = center src='/static/experiments/beast_fmri_test/images/redT.png'></img>	stop	2300.0	2.0	4.0	stop	non-target	T	71,Index Finger	89,Middle Finger	500.0	450.0	0.0	2300.0	0.0	450.0	n/a	1.0	go_stim
33967.042626594426	2300.0	n/a	-1	-1	2750	120.957373406	stim	stop-signal	16	132976	0.0-7.4-1.4	beast_fmri_test	330	130382,/,131061,/,131740,/,132420,/	t,t,t,t	<img class = center src='/static/experiments/beast_fmri_test/images/T.png'></img>	71,89	2750.0	test	<img class = center src='/static/experiments/beast_fmri_test/images/redT.png'></img>	stop	2300.0	2.0	4.0	stop	non-target	T	71,Index Finger	89,Middle Finger	500.0	450.0	0.0	2300.0	0.0	450.0	n/a	1.0	stop_stim
34417.042626594426	120.957373406	n/a	-1	-1	2750	120.957373406	stim	stop-signal	16	132976	0.0-7.4-1.4	beast_fmri_test	330	130382,/,131061,/,131740,/,132420,/	t,t,t,t	<img class = center src='/static/experiments/beast_fmri_test/images/T.png'></img>	71,89	2750.0	test	<img class = center src='/static/experiments/beast_fmri_test/images/redT.png'></img>	stop	2300.0	2.0	4.0	stop	non-target	T	71,Index Finger	89,Middle Finger	500.0	450.0	0.0	2300.0	0.0	450.0	n/a	1.0	ITI
35164	500.0	n/a	-1	-1	500	0.0	fixation	poldrack-single-stim	17	133602	0.0-7.5-0.5	beast_fmri_test	330	133101,/	t	<div class = centerbox2><div class = fixation>+</div></div>	none	500.0	test	n/a	n/a	n/a	n/a	n/a	n/a	n/a	n/a	n/a	n/a	n/a	n/a	n/a	n/a	n/a	n/a	n/a	n/a	fixation
34976.132574835472	500.0	n/a	-1	-1	2750	188.867425165	stim	stop-signal	18	136353	0.0-7.5-1.5	beast_fmri_test	330	133780,/,134459,/,135140,/,135820,/,136498,/	t,t,t,t,t	<img class = center src='/static/experiments/beast_fmri_test/images/T.png'></img>	71,89	2750.0	test	<img class = center src='/static/experiments/beast_fmri_test/images/redT.png'></img>	stop	2250.0	2.0	5.0	stop	non-target	T	71,Index Finger	89,Middle Finger	500.0	500.0	0.0	2250.0	0.0	500.0	n/a	1.0	go_stim
37226.132574835472	2250.0	n/a	-1	-1	2750	188.867425165	stim	stop-signal	18	136353	0.0-7.5-1.5	beast_fmri_test	330	133780,/,134459,/,135140,/,135820,/,136498,/	t,t,t,t,t	<img class = center src='/static/experiments/beast_fmri_test/images/T.png'></img>	71,89	2750.0	test	<img class = center src='/static/experiments/beast_fmri_test/images/redT.png'></img>	stop	2250.0	2.0	5.0	stop	non-target	T	71,Index Finger	89,Middle Finger	500.0	500.0	0.0	2250.0	0.0	500.0	n/a	1.0	stop_stim
37726.132574835472	188.867425165	n/a	-1	-1	2750	188.867425165	stim	stop-signal	18	136353	0.0-7.5-1.5	beast_fmri_test	330	133780,/,134459,/,135140,/,135820,/,136498,/	t,t,t,t,t	<img class = center src='/static/experiments/beast_fmri_test/images/T.png'></img>	71,89	2750.0	test	<img class = center src='/static/experiments/beast_fmri_test/images/redT.png'></img>	stop	2250.0	2.0	5.0	stop	non-target	T	71,Index Finger	89,Middle Finger	500.0	500.0	0.0	2250.0	0.0	500.0	n/a	1.0	ITI
38612	500.0	n/a	-1	-1	500	0.0	fixation	poldrack-single-stim	19	137050	0.0-7.6-0.6	beast_fmri_test	330	n/a	n/a	<div class = centerbox2><div class = fixation>+</div></div>	none	500.0	test	n/a	n/a	n/a	n/a	n/a	n/a	n/a	n/a	n/a	n/a	n/a	n/a	n/a	n/a	n/a	n/a	n/a	n/a	fixation
37700.695269711665	2750.0	n/a	521	89	2750	912.304730288	stim	stop-signal	20	139801	0.0-7.6-1.6	beast_fmri_test	330	137179,/,137859,/,138538,/,139218,/,139897,/,140577,/	t,t,t,t,t,t	<img class = center src='/static/experiments/beast_fmri_test/images/V.png'></img>	71,89	2750.0	test	<img class = center src='/static/experiments/beast_fmri_test/images/redV.png'></img>	go	2200.0	2.0	6.0	go	non-target	V	71,Index Finger	89,Middle Finger	500.0	550.0	0.0	2200.0	1.0	550.0	1.0	n/a	go_stim
40450.695269711665	912.304730288	n/a	521	89	2750	912.304730288	stim	stop-signal	20	139801	0.0-7.6-1.6	beast_fmri_test	330	137179,/,137859,/,138538,/,139218,/,139897,/,140577,/	t,t,t,t,t,t	<img class = center src='/static/experiments/beast_fmri_test/images/V.png'></img>	71,89	2750.0	test	<img class = center src='/static/experiments/beast_fmri_test/images/redV.png'></img>	go	2200.0	2.0	6.0	go	non-target	V	71,Index Finger	89,Middle Finger	500.0	550.0	0.0	2200.0	1.0	550.0	1.0	n/a	ITI
42781	500.0	n/a	-1	-1	500	0.0	fixation	poldrack-single-stim	21	141219	0.0-7.7-0.7	beast_fmri_test	330	n/a	n/a	<div class = centerbox2><div class = fixation>+</div></div>	none	500.0	test	n/a	n/a	n/a	n/a	n/a	n/a	n/a	n/a	n/a	n/a	n/a	n/a	n/a	n/a	n/a	n/a	n/a	n/a	fixation
42610.244750945014	500.0	n/a	412	71	2750	172.755249055	stim	stop-signal	22	143971	0.0-7.7-1.7	beast_fmri_test	330	141259,/,141937,/,142617,/,143296,/,143978,/	t,t,t,t,t	<img class = center src='/static/experiments/beast_fmri_test/images/T.png'></img>	71,89	2750.0	test	<img class = center src='/static/experiments/beast_fmri_test/images/redT.png'></img>	stop	2250.0	2.0	7.0	stop	target	T	71,Index Finger	89,Middle Finger	500.0	550.0	2250.0	2200.0	0.0	500.0	n/a	0.0	go_stim
44860.244750945014	2250.0	n/a	412	71	2750	172.755249055	stim	stop-signal	22	143971	0.0-7.7-1.7	beast_fmri_test	330	141259,/,141937,/,142617,/,143296,/,143978,/	t,t,t,t,t	<img class = center src='/static/experiments/beast_fmri_test/images/T.png'></img>	71,89	2750.0	test	<img class = center src='/static/experiments/beast_fmri_test/images/redT.png'></img>	stop	2250.0	2.0	7.0	stop	target	T	71,Index Finger	89,Middle Finger	500.0	550.0	2250.0	2200.0	0.0	500.0	n/a	0.0	stop_stim
45360.244750945014	172.755249055	n/a	412	71	2750	172.755249055	stim	stop-signal	22	143971	0.0-7.7-1.7	beast_fmri_test	330	141259,/,141937,/,142617,/,143296,/,143978,/	t,t,t,t,t	<img class = center src='/static/experiments/beast_fmri_test/images/T.png'></img>	71,89	2750.0	test	<img class = center src='/static/experiments/beast_fmri_test/images/redT.png'></img>	stop	2250.0	2.0	7.0	stop	target	T	71,Index Finger	89,Middle Finger	500.0	550.0	2250.0	2200.0	0.0	500.0	n/a	0.0	ITI
46212	500.0	n/a	-1	-1	500	0.0	fixation	poldrack-single-stim	23	144650	0.0-7.8-0.8	beast_fmri_test	330	n/a	n/a	<div class = centerbox2><div class = fixation>+</div></div>	none	500.0	test	n/a	n/a	n/a	n/a	n/a	n/a	n/a	n/a	n/a	n/a	n/a	n/a	n/a	n/a	n/a	n/a	n/a	n/a	fixation
45424.787362797855	2750.0	n/a	573	71	2750	788.212637202	stim	stop-signal	24	147401	0.0-7.8-1.8	beast_fmri_test	330	144656,/,145335,/,146015,/,146694,/,147375,/,148055,/	t,t,t,t,t,t	<img class = center src='/static/experiments/beast_fmri_test/images/V.png'></img>	71,89	2750.0	test	<img class = center src='/static/experiments/beast_fmri_test/images/redV.png'></img>	go	2300.0	2.0	8.0	go	target	V	71,Index Finger	89,Middle Finger	450.0	550.0	2300.0	2200.0	1.0	450.0	1.0	n/a	go_stim
48174.787362797855	788.212637202	n/a	573	71	2750	788.212637202	stim	stop-signal	24	147401	0.0-7.8-1.8	beast_fmri_test	330	144656,/,145335,/,146015,/,146694,/,147375,/,148055,/	t,t,t,t,t,t	<img class = center src='/static/experiments/beast_fmri_test/images/V.png'></img>	71,89	2750.0	test	<img class = center src='/static/experiments/beast_fmri_test/images/redV.png'></img>	go	2300.0	2.0	8.0	go	target	V	71,Index Finger	89,Middle Finger	450.0	550.0	2300.0	2200.0	1.0	450.0	1.0	n/a	ITI
50261	500.0	n/a	-1	-1	500	0.0	fixation	poldrack-single-stim	25	148699	0.0-7.9-0.9	beast_fmri_test	330	n/a	n/a	<div class = centerbox2><div class = fixation>+</div></div>	none	500.0	test	n/a	n/a	n/a	n/a	n/a	n/a	n/a	n/a	n/a	n/a	n/a	n/a	n/a	n/a	n/a	n/a	n/a	n/a	fixation
48915.220968576468	550.0	n/a	858	89	2750	1347.77903142	stim	stop-signal	26	151451	0.0-7.9-1.9	beast_fmri_test	330	148734,/,149413,/,150093,/,150772,/,151452,/,152134,/	t,t,t,t,t,t	<img class = center src='/static/experiments/beast_fmri_test/images/P.png'></img>	71,89	2750.0	test	<img class = center src='/static/experiments/beast_fmri_test/images/redP.png'></img>	stop	2200.0	2.0	9.0	stop	non-target	P	71,Index Finger	89,Middle Finger	450.0	550.0	2300.0	2200.0	0.0	550.0	n/a	0.0	go_stim
51115.220968576468	2200.0	n/a	858	89	2750	1347.77903142	stim	stop-signal	26	151451	0.0-7.9-1.9	beast_fmri_test	330	148734,/,149413,/,150093,/,150772,/,151452,/,152134,/	t,t,t,t,t,t	<img class = center src='/static/experiments/beast_fmri_test/images/P.png'></img>	71,89	2750.0	test	<img class = center src='/static/experiments/beast_fmri_test/images/redP.png'></img>	stop	2200.0	2.0	9.0	stop	non-target	P	71,Index Finger	89,Middle Finger	450.0	550.0	2300.0	2200.0	0.0	550.0	n/a	0.0	stop_stim
51665.220968576468	1347.77903142	n/a	858	89	2750	1347.77903142	stim	stop-signal	26	151451	0.0-7.9-1.9	beast_fmri_test	330	148734,/,149413,/,150093,/,150772,/,151452,/,152134,/	t,t,t,t,t,t	<img class = center src='/static/experiments/beast_fmri_test/images/P.png'></img>	71,89	2750.0	test	<img class = center src='/static/experiments/beast_fmri_test/images/redP.png'></img>	stop	2200.0	2.0	9.0	stop	non-target	P	71,Index Finger	89,Middle Finger	450.0	550.0	2300.0	2200.0	0.0	550.0	n/a	0.0	ITI
54868	500.0	n/a	-1	-1	500	0.0	fixation	poldrack-single-stim	27	153306	0.0-7.10-0.10	beast_fmri_test	330	152812,/	t	<div class = centerbox2><div class = fixation>+</div></div>	none	500.0	test	n/a	n/a	n/a	n/a	n/a	n/a	n/a	n/a	n/a	n/a	n/a	n/a	n/a	n/a	n/a	n/a	n/a	n/a	fixation
54853.010266613273	2750.0	n/a	672	89	2750	14.9897333867	stim	stop-signal	28	156056	0.0-7.10-1.10	beast_fmri_test	330	153493,/,154171,/,154850,/,155531,/	t,t,t,t	<img class = center src='/static/experiments/beast_fmri_test/images/D.png'></img>	71,89	2750.0	test	<img class = center src='/static/experiments/beast_fmri_test/images/redD.png'></img>	go	2250.0	2.0	10.0	go	non-target	D	71,Index Finger	89,Middle Finger	450.0	500.0	2300.0	2250.0	1.0	500.0	1.0	n/a	go_stim
57603.010266613273	14.9897333867	n/a	672	89	2750	14.9897333867	stim	stop-signal	28	156056	0.0-7.10-1.10	beast_fmri_test	330	153493,/,154171,/,154850,/,155531,/	t,t,t,t	<img class = center src='/static/experiments/beast_fmri_test/images/D.png'></img>	71,89	2750.0	test	<img class = center src='/static/experiments/beast_fmri_test/images/redD.png'></img>	go	2250.0	2.0	10.0	go	non-target	D	71,Index Finger	89,Middle Finger	450.0	500.0	2300.0	2250.0	1.0	500.0	1.0	n/a	ITI
58140	500.0	n/a	-1	-1	500	0.0	fixation	poldrack-single-stim	29	156578	0.0-7.11-0.11	beast_fmri_test	330	156209,/	t	<div class = centerbox2><div class = fixation>+</div></div>	none	500.0	test	n/a	n/a	n/a	n/a	n/a	n/a	n/a	n/a	n/a	n/a	n/a	n/a	n/a	n/a	n/a	n/a	n/a	n/a	fixation
57696.50841854405	2750.0	n/a	654	71	2750	444.491581456	stim	stop-signal	30	159329	0.0-7.11-1.11	beast_fmri_test	330	156890,/,157570,/,158250,/,158929,/,159608,/	t,t,t,t,t	<img class = center src='/static/experiments/beast_fmri_test/images/P.png'></img>	71,89	2750.0	test	<img class = center src='/static/experiments/beast_fmri_test/images/redP.png'></img>	go	2300.0	2.0	11.0	go	target	P	71,Index Finger	89,Middle Finger	450.0	500.0	2300.0	2250.0	1.0	450.0	1.0	n/a	go_stim
60446.50841854405	444.491581456	n/a	654	71	2750	444.491581456	stim	stop-signal	30	159329	0.0-7.11-1.11	beast_fmri_test	330	156890,/,157570,/,158250,/,158929,/,159608,/	t,t,t,t,t	<img class = center src='/static/experiments/beast_fmri_test/images/P.png'></img>	71,89	2750.0	test	<img class = center src='/static/experiments/beast_fmri_test/images/redP.png'></img>	go	2300.0	2.0	11.0	go	target	P	71,Index Finger	89,Middle Finger	450.0	500.0	2300.0	2250.0	1.0	450.0	1.0	n/a	ITI
61847	500.0	n/a	-1	-1	500	0.0	fixation	poldrack-single-stim	31	160285	0.0-7.12-0.12	beast_fmri_test	330	n/a	n/a	<div class = centerbox2><div class = fixation>+</div></div>	none	500.0	test	n/a	n/a	n/a	n/a	n/a	n/a	n/a	n/a	n/a	n/a	n/a	n/a	n/a	n/a	n/a	n/a	n/a	n/a	fixation
61437.855770666676	2750.0	n/a	481	89	2750	410.144229333	stim	stop-signal	32	163036	0.0-7.12-1.12	beast_fmri_test	330	160288,/,160967,/,161648,/,162327,/,163007,/	t,t,t,t,t	<img class = center src='/static/experiments/beast_fmri_test/images/V.png'></img>	71,89	2750.0	test	<img class = center src='/static/experiments/beast_fmri_test/images/redV.png'></img>	go	2250.0	2.0	12.0	go	non-target	V	71,Index Finger	89,Middle Finger	450.0	500.0	2300.0	2250.0	1.0	500.0	1.0	n/a	go_stim
64187.855770666676	410.144229333	n/a	481	89	2750	410.144229333	stim	stop-signal	32	163036	0.0-7.12-1.12	beast_fmri_test	330	160288,/,160967,/,161648,/,162327,/,163007,/	t,t,t,t,t	<img class = center src='/static/experiments/beast_fmri_test/images/V.png'></img>	71,89	2750.0	test	<img class = center src='/static/experiments/beast_fmri_test/images/redV.png'></img>	go	2250.0	2.0	12.0	go	non-target	V	71,Index Finger	89,Middle Finger	450.0	500.0	2300.0	2250.0	1.0	500.0	1.0	n/a	ITI
65517	500.0	n/a	-1	-1	500	0.0	fixation	poldrack-single-stim	33	163955	0.0-7.13-0.13	beast_fmri_test	330	163687,/	t	<div class = centerbox2><div class = fixation>+</div></div>	none	500.0	test	n/a	n/a	n/a	n/a	n/a	n/a	n/a	n/a	n/a	n/a	n/a	n/a	n/a	n/a	n/a	n/a	n/a	n/a	fixation
64651.779349267541	2750.0	n/a	428	89	2750	868.220650732	stim	stop-signal	34	166708	0.0-7.13-1.13	beast_fmri_test	330	164366,/,165045,/,165728,/,166404,/,167087,/	t,t,t,t,t	<img class = center src='/static/experiments/beast_fmri_test/images/D.png'></img>	71,89	2750.0	test	<img class = center src='/static/experiments/beast_fmri_test/images/redD.png'></img>	go	2250.0	2.0	13.0	go	non-target	D	71,Index Finger	89,Middle Finger	450.0	500.0	2300.0	2250.0	1.0	500.0	1.0	n/a	go_stim
67401.779349267541	868.220650732	n/a	428	89	2750	868.220650732	stim	stop-signal	34	166708	0.0-7.13-1.13	beast_fmri_test	330	164366,/,165045,/,165728,/,166404,/,167087,/	t,t,t,t,t	<img class = center src='/static/experiments/beast_fmri_test/images/D.png'></img>	71,89	2750.0	test	<img class = center src='/static/experiments/beast_fmri_test/images/redD.png'></img>	go	2250.0	2.0	13.0	go	non-target	D	71,Index Finger	89,Middle Finger	450.0	500.0	2300.0	2250.0	1.0	500.0	1.0	n/a	ITI
69647	500.0	n/a	-1	-1	500	0.0	fixation	poldrack-single-stim	35	168085	0.0-7.14-0.14	beast_fmri_test	330	167765,/	t	<div class = centerbox2><div class = fixation>+</div></div>	none	500.0	test	n/a	n/a	n/a	n/a	n/a	n/a	n/a	n/a	n/a	n/a	n/a	n/a	n/a	n/a	n/a	n/a	n/a	n/a	fixation
65005.978008598846	2750.0	n/a	440	89	2750	4643.0219914	stim	stop-signal	36	170837	0.0-7.14-1.14	beast_fmri_test	330	168444,/,169124,/,169803,/,170483,/,171164,/,171845,/,172524,/,173203,/,173882,/,174561,/,175242,/	t,t,t,t,t,t,t,t,t,t,t	<img class = center src='/static/experiments/beast_fmri_test/images/P.png'></img>	71,89	2750.0	test	<img class = center src='/static/experiments/beast_fmri_test/images/redP.png'></img>	go	2250.0	2.0	14.0	go	non-target	P	71,Index Finger	89,Middle Finger	450.0	500.0	2300.0	2250.0	1.0	500.0	1.0	n/a	go_stim
67755.978008598846	4643.0219914	n/a	440	89	2750	4643.0219914	stim	stop-signal	36	170837	0.0-7.14-1.14	beast_fmri_test	330	168444,/,169124,/,169803,/,170483,/,171164,/,171845,/,172524,/,173203,/,173882,/,174561,/,175242,/	t,t,t,t,t,t,t,t,t,t,t	<img class = center src='/static/experiments/beast_fmri_test/images/P.png'></img>	71,89	2750.0	test	<img class = center src='/static/experiments/beast_fmri_test/images/redP.png'></img>	go	2250.0	2.0	14.0	go	non-target	P	71,Index Finger	89,Middle Finger	450.0	500.0	2300.0	2250.0	1.0	500.0	1.0	n/a	ITI
77551	500.0	n/a	-1	-1	500	0.0	fixation	poldrack-single-stim	37	175989	0.0-7.15-0.15	beast_fmri_test	330	175923,/	t	<div class = centerbox2><div class = fixation>+</div></div>	none	500.0	test	n/a	n/a	n/a	n/a	n/a	n/a	n/a	n/a	n/a	n/a	n/a	n/a	n/a	n/a	n/a	n/a	n/a	n/a	fixation
77157.112559807341	500.0	n/a	479	89	2750	396.887440193	stim	stop-signal	38	178742	0.0-7.15-1.15	beast_fmri_test	330	176602,/,177280,/,177960,/,178641,/	t,t,t,t	<img class = center src='/static/experiments/beast_fmri_test/images/P.png'></img>	71,89	2750.0	test	<img class = center src='/static/experiments/beast_fmri_test/images/redP.png'></img>	stop	2250.0	2.0	15.0	stop	non-target	P	71,Index Finger	89,Middle Finger	450.0	500.0	2300.0	2250.0	0.0	500.0	n/a	0.0	go_stim
79407.112559807341	2250.0	n/a	479	89	2750	396.887440193	stim	stop-signal	38	178742	0.0-7.15-1.15	beast_fmri_test	330	176602,/,177280,/,177960,/,178641,/	t,t,t,t	<img class = center src='/static/experiments/beast_fmri_test/images/P.png'></img>	71,89	2750.0	test	<img class = center src='/static/experiments/beast_fmri_test/images/redP.png'></img>	stop	2250.0	2.0	15.0	stop	non-target	P	71,Index Finger	89,Middle Finger	450.0	500.0	2300.0	2250.0	0.0	500.0	n/a	0.0	stop_stim
79907.112559807341	396.887440193	n/a	479	89	2750	396.887440193	stim	stop-signal	38	178742	0.0-7.15-1.15	beast_fmri_test	330	176602,/,177280,/,177960,/,178641,/	t,t,t,t	<img class = center src='/static/experiments/beast_fmri_test/images/P.png'></img>	71,89	2750.0	test	<img class = center src='/static/experiments/beast_fmri_test/images/redP.png'></img>	stop	2250.0	2.0	15.0	stop	non-target	P	71,Index Finger	89,Middle Finger	450.0	500.0	2300.0	2250.0	0.0	500.0	n/a	0.0	ITI
81212	500.0	n/a	-1	-1	500	0.0	fixation	poldrack-single-stim	39	179650	0.0-7.16-0.16	beast_fmri_test	330	179319,/	t	<div class = centerbox2><div class = fixation>+</div></div>	none	500.0	test	n/a	n/a	n/a	n/a	n/a	n/a	n/a	n/a	n/a	n/a	n/a	n/a	n/a	n/a	n/a	n/a	n/a	n/a	fixation
81055.240313919814	450.0	n/a	507	89	2750	156.75968608	stim	stop-signal	40	182400	0.0-7.16-1.16	beast_fmri_test	330	179999,/,180679,/,181358,/,182038,/	t,t,t,t	<img class = center src='/static/experiments/beast_fmri_test/images/D.png'></img>	71,89	2750.0	test	<img class = center src='/static/experiments/beast_fmri_test/images/redD.png'></img>	stop	2300.0	2.0	16.0	stop	non-target	D	71,Index Finger	89,Middle Finger	450.0	450.0	2300.0	2300.0	0.0	450.0	n/a	0.0	go_stim
83355.240313919814	2300.0	n/a	507	89	2750	156.75968608	stim	stop-signal	40	182400	0.0-7.16-1.16	beast_fmri_test	330	179999,/,180679,/,181358,/,182038,/	t,t,t,t	<img class = center src='/static/experiments/beast_fmri_test/images/D.png'></img>	71,89	2750.0	test	<img class = center src='/static/experiments/beast_fmri_test/images/redD.png'></img>	stop	2300.0	2.0	16.0	stop	non-target	D	71,Index Finger	89,Middle Finger	450.0	450.0	2300.0	2300.0	0.0	450.0	n/a	0.0	stop_stim
83805.240313919814	156.75968608	n/a	507	89	2750	156.75968608	stim	stop-signal	40	182400	0.0-7.16-1.16	beast_fmri_test	330	179999,/,180679,/,181358,/,182038,/	t,t,t,t	<img class = center src='/static/experiments/beast_fmri_test/images/D.png'></img>	71,89	2750.0	test	<img class = center src='/static/experiments/beast_fmri_test/images/redD.png'></img>	stop	2300.0	2.0	16.0	stop	non-target	D	71,Index Finger	89,Middle Finger	450.0	450.0	2300.0	2300.0	0.0	450.0	n/a	0.0	ITI
84628	500.0	n/a	-1	-1	500	0.0	fixation	poldrack-single-stim	41	183066	0.0-7.17-0.17	beast_fmri_test	330	182719,/	t	<div class = centerbox2><div class = fixation>+</div></div>	none	500.0	test	n/a	n/a	n/a	n/a	n/a	n/a	n/a	n/a	n/a	n/a	n/a	n/a	n/a	n/a	n/a	n/a	n/a	n/a	fixation
84272.260462122154	400.0	n/a	1009	89	2750	357.739537878	stim	stop-signal	42	185818	0.0-7.17-1.17	beast_fmri_test	330	183397,/,184077,/,184756,/,185437,/,186116,/	t,t,t,t,t	<img class = center src='/static/experiments/beast_fmri_test/images/V.png'></img>	71,89	2750.0	test	<img class = center src='/static/experiments/beast_fmri_test/images/redV.png'></img>	stop	2350.0	2.0	17.0	stop	non-target	V	71,Index Finger	89,Middle Finger	450.0	400.0	2300.0	2350.0	0.0	400.0	n/a	0.0	go_stim
86622.260462122154	2350.0	n/a	1009	89	2750	357.739537878	stim	stop-signal	42	185818	0.0-7.17-1.17	beast_fmri_test	330	183397,/,184077,/,184756,/,185437,/,186116,/	t,t,t,t,t	<img class = center src='/static/experiments/beast_fmri_test/images/V.png'></img>	71,89	2750.0	test	<img class = center src='/static/experiments/beast_fmri_test/images/redV.png'></img>	stop	2350.0	2.0	17.0	stop	non-target	V	71,Index Finger	89,Middle Finger	450.0	400.0	2300.0	2350.0	0.0	400.0	n/a	0.0	stop_stim
87022.260462122154	357.739537878	n/a	1009	89	2750	357.739537878	stim	stop-signal	42	185818	0.0-7.17-1.17	beast_fmri_test	330	183397,/,184077,/,184756,/,185437,/,186116,/	t,t,t,t,t	<img class = center src='/static/experiments/beast_fmri_test/images/V.png'></img>	71,89	2750.0	test	<img class = center src='/static/experiments/beast_fmri_test/images/redV.png'></img>	stop	2350.0	2.0	17.0	stop	non-target	V	71,Index Finger	89,Middle Finger	450.0	400.0	2300.0	2350.0	0.0	400.0	n/a	0.0	ITI
88247	500.0	n/a	-1	-1	500	0.0	fixation	poldrack-single-stim	43	186685	0.0-7.18-0.18	beast_fmri_test	330	n/a	n/a	<div class = centerbox2><div class = fixation>+</div></div>	none	500.0	test	n/a	n/a	n/a	n/a	n/a	n/a	n/a	n/a	n/a	n/a	n/a	n/a	n/a	n/a	n/a	n/a	n/a	n/a	fixation
88111.523282801121	2750.0	n/a	666	89	2750	136.476717199	stim	stop-signal	44	189436	0.0-7.18-1.18	beast_fmri_test	330	186797,/,187476,/,188154,/,188834,/,189514,/	t,t,t,t,t	<img class = center src='/static/experiments/beast_fmri_test/images/B.png'></img>	71,89	2750.0	test	<img class = center src='/static/experiments/beast_fmri_test/images/redB.png'></img>	go	2400.0	2.0	18.0	go	non-target	B	71,Index Finger	89,Middle Finger	450.0	350.0	2300.0	2400.0	1.0	350.0	1.0	n/a	go_stim
90861.523282801121	136.476717199	n/a	666	89	2750	136.476717199	stim	stop-signal	44	189436	0.0-7.18-1.18	beast_fmri_test	330	186797,/,187476,/,188154,/,188834,/,189514,/	t,t,t,t,t	<img class = center src='/static/experiments/beast_fmri_test/images/B.png'></img>	71,89	2750.0	test	<img class = center src='/static/experiments/beast_fmri_test/images/redB.png'></img>	go	2400.0	2.0	18.0	go	non-target	B	71,Index Finger	89,Middle Finger	450.0	350.0	2300.0	2400.0	1.0	350.0	1.0	n/a	ITI
91652	500.0	n/a	-1	-1	500	0.0	fixation	poldrack-single-stim	45	190090	0.0-7.19-0.19	beast_fmri_test	330	n/a	n/a	<div class = centerbox2><div class = fixation>+</div></div>	none	500.0	test	n/a	n/a	n/a	n/a	n/a	n/a	n/a	n/a	n/a	n/a	n/a	n/a	n/a	n/a	n/a	n/a	n/a	n/a	fixation
89308.928890898154	2750.0	n/a	457	89	2750	2344.0711091	stim	stop-signal	46	192841	0.0-7.19-1.19	beast_fmri_test	330	190195,/,190875,/,191554,/,192233,/,192912,/,193592,/,194273,/,194952,/	t,t,t,t,t,t,t,t	<img class = center src='/static/experiments/beast_fmri_test/images/T.png'></img>	71,89	2750.0	test	<img class = center src='/static/experiments/beast_fmri_test/images/redT.png'></img>	go	2400.0	2.0	19.0	go	non-target	T	71,Index Finger	89,Middle Finger	450.0	350.0	2300.0	2400.0	1.0	350.0	1.0	n/a	go_stim
92058.928890898154	2344.0711091	n/a	457	89	2750	2344.0711091	stim	stop-signal	46	192841	0.0-7.19-1.19	beast_fmri_test	330	190195,/,190875,/,191554,/,192233,/,192912,/,193592,/,194273,/,194952,/	t,t,t,t,t,t,t,t	<img class = center src='/static/experiments/beast_fmri_test/images/T.png'></img>	71,89	2750.0	test	<img class = center src='/static/experiments/beast_fmri_test/images/redT.png'></img>	go	2400.0	2.0	19.0	go	non-target	T	71,Index Finger	89,Middle Finger	450.0	350.0	2300.0	2400.0	1.0	350.0	1.0	n/a	ITI
97258	500.0	n/a	-1	-1	500	0.0	fixation	poldrack-single-stim	47	195696	0.0-7.20-0.20	beast_fmri_test	330	195633,/	t	<div class = centerbox2><div class = fixation>+</div></div>	none	500.0	test	n/a	n/a	n/a	n/a	n/a	n/a	n/a	n/a	n/a	n/a	n/a	n/a	n/a	n/a	n/a	n/a	n/a	n/a	fixation
97152.150900698005	2750.0	n/a	476	71	2750	105.849099302	stim	stop-signal	48	198446	0.0-7.20-1.20	beast_fmri_test	330	196311,/,196992,/,197671,/,198350,/	t,t,t,t	<img class = center src='/static/experiments/beast_fmri_test/images/B.png'></img>	71,89	2750.0	test	<img class = center src='/static/experiments/beast_fmri_test/images/redB.png'></img>	go	2300.0	2.0	20.0	go	target	B	71,Index Finger	89,Middle Finger	450.0	350.0	2300.0	2400.0	1.0	450.0	1.0	n/a	go_stim
99902.150900698005	105.849099302	n/a	476	71	2750	105.849099302	stim	stop-signal	48	198446	0.0-7.20-1.20	beast_fmri_test	330	196311,/,196992,/,197671,/,198350,/	t,t,t,t	<img class = center src='/static/experiments/beast_fmri_test/images/B.png'></img>	71,89	2750.0	test	<img class = center src='/static/experiments/beast_fmri_test/images/redB.png'></img>	go	2300.0	2.0	20.0	go	target	B	71,Index Finger	89,Middle Finger	450.0	350.0	2300.0	2400.0	1.0	450.0	1.0	n/a	ITI
100624	500.0	n/a	-1	-1	500	0.0	fixation	poldrack-single-stim	49	199062	0.0-7.21-0.21	beast_fmri_test	330	199031,/	t	<div class = centerbox2><div class = fixation>+</div></div>	none	500.0	test	n/a	n/a	n/a	n/a	n/a	n/a	n/a	n/a	n/a	n/a	n/a	n/a	n/a	n/a	n/a	n/a	n/a	n/a	fixation
100562.97240127553	2750.0	n/a	375	71	2750	64.0275987245	stim	stop-signal	50	201815	0.0-7.21-1.21	beast_fmri_test	330	199712,/,200390,/,201069,/,201750,/	t,t,t,t	<img class = center src='/static/experiments/beast_fmri_test/images/T.png'></img>	71,89	2750.0	test	<img class = center src='/static/experiments/beast_fmri_test/images/redT.png'></img>	go	2300.0	2.0	21.0	go	target	T	71,Index Finger	89,Middle Finger	450.0	350.0	2300.0	2400.0	1.0	450.0	1.0	n/a	go_stim
103312.97240127553	64.0275987245	n/a	375	71	2750	64.0275987245	stim	stop-signal	50	201815	0.0-7.21-1.21	beast_fmri_test	330	199712,/,200390,/,201069,/,201750,/	t,t,t,t	<img class = center src='/static/experiments/beast_fmri_test/images/T.png'></img>	71,89	2750.0	test	<img class = center src='/static/experiments/beast_fmri_test/images/redT.png'></img>	go	2300.0	2.0	21.0	go	target	T	71,Index Finger	89,Middle Finger	450.0	350.0	2300.0	2400.0	1.0	450.0	1.0	n/a	ITI
103953	500.0	n/a	-1	-1	500	0.0	fixation	poldrack-single-stim	51	202391	0.0-7.22-0.22	beast_fmri_test	330	n/a	n/a	<div class = centerbox2><div class = fixation>+</div></div>	none	500.0	test	n/a	n/a	n/a	n/a	n/a	n/a	n/a	n/a	n/a	n/a	n/a	n/a	n/a	n/a	n/a	n/a	n/a	n/a	fixation
103849.82599359943	2750.0	n/a	458	71	2750	104.174006401	stim	stop-signal	52	205142	0.0-7.22-1.22	beast_fmri_test	330	202431,/,203110,/,203789,/,204468,/,205148,/	t,t,t,t,t	<img class = center src='/static/experiments/beast_fmri_test/images/B.png'></img>	71,89	2750.0	test	<img class = center src='/static/experiments/beast_fmri_test/images/redB.png'></img>	go	2300.0	2.0	22.0	go	target	B	71,Index Finger	89,Middle Finger	450.0	350.0	2300.0	2400.0	1.0	450.0	1.0	n/a	go_stim
106599.82599359943	104.174006401	n/a	458	71	2750	104.174006401	stim	stop-signal	52	205142	0.0-7.22-1.22	beast_fmri_test	330	202431,/,203110,/,203789,/,204468,/,205148,/	t,t,t,t,t	<img class = center src='/static/experiments/beast_fmri_test/images/B.png'></img>	71,89	2750.0	test	<img class = center src='/static/experiments/beast_fmri_test/images/redB.png'></img>	go	2300.0	2.0	22.0	go	target	B	71,Index Finger	89,Middle Finger	450.0	350.0	2300.0	2400.0	1.0	450.0	1.0	n/a	ITI
107318	500.0	n/a	-1	-1	500	0.0	fixation	poldrack-single-stim	53	205756	0.0-7.23-0.23	beast_fmri_test	330	n/a	n/a	<div class = centerbox2><div class = fixation>+</div></div>	none	500.0	test	n/a	n/a	n/a	n/a	n/a	n/a	n/a	n/a	n/a	n/a	n/a	n/a	n/a	n/a	n/a	n/a	n/a	n/a	fixation
106541.07246473731	2750.0	n/a	722	89	2750	777.927535263	stim	stop-signal	54	208507	0.0-7.23-1.23	beast_fmri_test	330	205827,/,206506,/,207186,/,207866,/,208546,/,209226,/	t,t,t,t,t,t	<img class = center src='/static/experiments/beast_fmri_test/images/B.png'></img>	71,89	2750.0	test	<img class = center src='/static/experiments/beast_fmri_test/images/redB.png'></img>	go	2400.0	2.0	23.0	go	non-target	B	71,Index Finger	89,Middle Finger	450.0	350.0	2300.0	2400.0	1.0	350.0	1.0	n/a	go_stim
109291.07246473731	777.927535263	n/a	722	89	2750	777.927535263	stim	stop-signal	54	208507	0.0-7.23-1.23	beast_fmri_test	330	205827,/,206506,/,207186,/,207866,/,208546,/,209226,/	t,t,t,t,t,t	<img class = center src='/static/experiments/beast_fmri_test/images/B.png'></img>	71,89	2750.0	test	<img class = center src='/static/experiments/beast_fmri_test/images/redB.png'></img>	go	2400.0	2.0	23.0	go	non-target	B	71,Index Finger	89,Middle Finger	450.0	350.0	2300.0	2400.0	1.0	350.0	1.0	n/a	ITI
111359	500.0	n/a	-1	-1	500	0.0	fixation	poldrack-single-stim	55	209797	0.0-7.24-0.24	beast_fmri_test	330	n/a	n/a	<div class = centerbox2><div class = fixation>+</div></div>	none	500.0	test	n/a	n/a	n/a	n/a	n/a	n/a	n/a	n/a	n/a	n/a	n/a	n/a	n/a	n/a	n/a	n/a	n/a	n/a	fixation
110488.71490356265	350.0	n/a	673	89	2750	873.285096437	stim	stop-signal	56	212550	0.0-7.24-1.24	beast_fmri_test	330	209906,/,210585,/,211265,/,211944,/,212623,/,213304,/	t,t,t,t,t,t	<img class = center src='/static/experiments/beast_fmri_test/images/V.png'></img>	71,89	2750.0	test	<img class = center src='/static/experiments/beast_fmri_test/images/redV.png'></img>	stop	2400.0	2.0	24.0	stop	non-target	V	71,Index Finger	89,Middle Finger	450.0	350.0	2300.0	2400.0	0.0	350.0	n/a	0.0	go_stim
112888.71490356265	2400.0	n/a	673	89	2750	873.285096437	stim	stop-signal	56	212550	0.0-7.24-1.24	beast_fmri_test	330	209906,/,210585,/,211265,/,211944,/,212623,/,213304,/	t,t,t,t,t,t	<img class = center src='/static/experiments/beast_fmri_test/images/V.png'></img>	71,89	2750.0	test	<img class = center src='/static/experiments/beast_fmri_test/images/redV.png'></img>	stop	2400.0	2.0	24.0	stop	non-target	V	71,Index Finger	89,Middle Finger	450.0	350.0	2300.0	2400.0	0.0	350.0	n/a	0.0	stop_stim
113238.71490356265	873.285096437	n/a	673	89	2750	873.285096437	stim	stop-signal	56	212550	0.0-7.24-1.24	beast_fmri_test	330	209906,/,210585,/,211265,/,211944,/,212623,/,213304,/	t,t,t,t,t,t	<img class = center src='/static/experiments/beast_fmri_test/images/V.png'></img>	71,89	2750.0	test	<img class = center src='/static/experiments/beast_fmri_test/images/redV.png'></img>	stop	2400.0	2.0	24.0	stop	non-target	V	71,Index Finger	89,Middle Finger	450.0	350.0	2300.0	2400.0	0.0	350.0	n/a	0.0	ITI
115497	500.0	n/a	-1	-1	500	0.0	fixation	poldrack-single-stim	57	213935	0.0-7.25-0.25	beast_fmri_test	330	n/a	n/a	<div class = centerbox2><div class = fixation>+</div></div>	none	500.0	test	n/a	n/a	n/a	n/a	n/a	n/a	n/a	n/a	n/a	n/a	n/a	n/a	n/a	n/a	n/a	n/a	n/a	n/a	fixation
114801.46382744954	2750.0	n/a	626	89	2750	697.53617255	stim	stop-signal	58	216687	0.0-7.25-1.25	beast_fmri_test	330	213985,/,214663,/,215342,/,216021,/,216701,/,217381,/	t,t,t,t,t,t	<img class = center src='/static/experiments/beast_fmri_test/images/T.png'></img>	71,89	2750.0	test	<img class = center src='/static/experiments/beast_fmri_test/images/redT.png'></img>	go	2450.0	2.0	25.0	go	non-target	T	71,Index Finger	89,Middle Finger	450.0	300.0	2300.0	2450.0	1.0	300.0	1.0	n/a	go_stim
117551.46382744954	697.53617255	n/a	626	89	2750	697.53617255	stim	stop-signal	58	216687	0.0-7.25-1.25	beast_fmri_test	330	213985,/,214663,/,215342,/,216021,/,216701,/,217381,/	t,t,t,t,t,t	<img class = center src='/static/experiments/beast_fmri_test/images/T.png'></img>	71,89	2750.0	test	<img class = center src='/static/experiments/beast_fmri_test/images/redT.png'></img>	go	2450.0	2.0	25.0	go	non-target	T	71,Index Finger	89,Middle Finger	450.0	300.0	2300.0	2450.0	1.0	300.0	1.0	n/a	ITI
119457	500.0	n/a	-1	-1	500	0.0	fixation	poldrack-single-stim	59	217895	0.0-7.26-0.26	beast_fmri_test	330	n/a	n/a	<div class = centerbox2><div class = fixation>+</div></div>	none	500.0	test	n/a	n/a	n/a	n/a	n/a	n/a	n/a	n/a	n/a	n/a	n/a	n/a	n/a	n/a	n/a	n/a	n/a	n/a	fixation
119154.96677146512	2750.0	n/a	597	89	2750	303.033228535	stim	stop-signal	60	220646	0.0-7.26-1.26	beast_fmri_test	330	218062,/,218742,/,219422,/,220100,/,220780,/	t,t,t,t,t	<img class = center src='/static/experiments/beast_fmri_test/images/D.png'></img>	71,89	2750.0	test	<img class = center src='/static/experiments/beast_fmri_test/images/redD.png'></img>	go	2450.0	2.0	26.0	go	non-target	D	71,Index Finger	89,Middle Finger	450.0	300.0	2300.0	2450.0	1.0	300.0	1.0	n/a	go_stim
121904.96677146512	303.033228535	n/a	597	89	2750	303.033228535	stim	stop-signal	60	220646	0.0-7.26-1.26	beast_fmri_test	330	218062,/,218742,/,219422,/,220100,/,220780,/	t,t,t,t,t	<img class = center src='/static/experiments/beast_fmri_test/images/D.png'></img>	71,89	2750.0	test	<img class = center src='/static/experiments/beast_fmri_test/images/redD.png'></img>	go	2450.0	2.0	26.0	go	non-target	D	71,Index Finger	89,Middle Finger	450.0	300.0	2300.0	2450.0	1.0	300.0	1.0	n/a	ITI
123024	500.0	n/a	-1	-1	500	0.0	fixation	poldrack-single-stim	61	221462	0.0-7.27-0.27	beast_fmri_test	330	221459,/	t	<div class = centerbox2><div class = fixation>+</div></div>	none	500.0	test	n/a	n/a	n/a	n/a	n/a	n/a	n/a	n/a	n/a	n/a	n/a	n/a	n/a	n/a	n/a	n/a	n/a	n/a	fixation
122530.94754405835	450.0	n/a	540	71	2750	494.052455942	stim	stop-signal	62	224213	0.0-7.27-1.27	beast_fmri_test	330	222140,/,222818,/,223499,/,224179,/	t,t,t,t	<img class = center src='/static/experiments/beast_fmri_test/images/T.png'></img>	71,89	2750.0	test	<img class = center src='/static/experiments/beast_fmri_test/images/redT.png'></img>	stop	2300.0	2.0	27.0	stop	target	T	71,Index Finger	89,Middle Finger	450.0	300.0	2300.0	2450.0	0.0	450.0	n/a	0.0	go_stim
124830.94754405835	2300.0	n/a	540	71	2750	494.052455942	stim	stop-signal	62	224213	0.0-7.27-1.27	beast_fmri_test	330	222140,/,222818,/,223499,/,224179,/	t,t,t,t	<img class = center src='/static/experiments/beast_fmri_test/images/T.png'></img>	71,89	2750.0	test	<img class = center src='/static/experiments/beast_fmri_test/images/redT.png'></img>	stop	2300.0	2.0	27.0	stop	target	T	71,Index Finger	89,Middle Finger	450.0	300.0	2300.0	2450.0	0.0	450.0	n/a	0.0	stop_stim
125280.94754405835	494.052455942	n/a	540	71	2750	494.052455942	stim	stop-signal	62	224213	0.0-7.27-1.27	beast_fmri_test	330	222140,/,222818,/,223499,/,224179,/	t,t,t,t	<img class = center src='/static/experiments/beast_fmri_test/images/T.png'></img>	71,89	2750.0	test	<img class = center src='/static/experiments/beast_fmri_test/images/redT.png'></img>	stop	2300.0	2.0	27.0	stop	target	T	71,Index Finger	89,Middle Finger	450.0	300.0	2300.0	2450.0	0.0	450.0	n/a	0.0	ITI
126781	500.0	n/a	-1	-1	500	0.0	fixation	poldrack-single-stim	63	225219	0.0-7.28-0.28	beast_fmri_test	330	224859,/	t	<div class = centerbox2><div class = fixation>+</div></div>	none	500.0	test	n/a	n/a	n/a	n/a	n/a	n/a	n/a	n/a	n/a	n/a	n/a	n/a	n/a	n/a	n/a	n/a	n/a	n/a	fixation
124415.6441876122	2750.0	n/a	530	71	2750	2368.35581239	stim	stop-signal	64	227972	0.0-7.28-1.28	beast_fmri_test	330	225538,/,226219,/,226896,/,227579,/,228257,/,228937,/,229616,/,230296,/	t,t,t,t,t,t,t,t	<img class = center src='/static/experiments/beast_fmri_test/images/T.png'></img>	71,89	2750.0	test	<img class = center src='/static/experiments/beast_fmri_test/images/redT.png'></img>	go	2450.0	2.0	28.0	go	non-target	T	71,Index Finger	89,Middle Finger	400.0	300.0	2300.0	2450.0	0.0	300.0	0.0	n/a	go_stim
127165.6441876122	2368.35581239	n/a	530	71	2750	2368.35581239	stim	stop-signal	64	227972	0.0-7.28-1.28	beast_fmri_test	330	225538,/,226219,/,226896,/,227579,/,228257,/,228937,/,229616,/,230296,/	t,t,t,t,t,t,t,t	<img class = center src='/static/experiments/beast_fmri_test/images/T.png'></img>	71,89	2750.0	test	<img class = center src='/static/experiments/beast_fmri_test/images/redT.png'></img>	go	2450.0	2.0	28.0	go	non-target	T	71,Index Finger	89,Middle Finger	400.0	300.0	2300.0	2450.0	0.0	300.0	0.0	n/a	ITI
132413	500.0	n/a	-1	-1	500	0.0	fixation	poldrack-single-stim	65	230851	0.0-7.29-0.29	beast_fmri_test	330	n/a	n/a	<div class = centerbox2><div class = fixation>+</div></div>	none	500.0	test	n/a	n/a	n/a	n/a	n/a	n/a	n/a	n/a	n/a	n/a	n/a	n/a	n/a	n/a	n/a	n/a	n/a	n/a	fixation
131893.42915216615	2750.0	n/a	430	89	2750	520.570847834	stim	stop-signal	66	233602	0.0-7.29-1.29	beast_fmri_test	330	230977,/,231655,/,232335,/,233015,/,233694,/	t,t,t,t,t	<img class = center src='/static/experiments/beast_fmri_test/images/B.png'></img>	71,89	2750.0	test	<img class = center src='/static/experiments/beast_fmri_test/images/redB.png'></img>	go	2450.0	2.0	29.0	go	non-target	B	71,Index Finger	89,Middle Finger	400.0	300.0	2300.0	2450.0	1.0	300.0	1.0	n/a	go_stim
134643.42915216615	520.570847834	n/a	430	89	2750	520.570847834	stim	stop-signal	66	233602	0.0-7.29-1.29	beast_fmri_test	330	230977,/,231655,/,232335,/,233015,/,233694,/	t,t,t,t,t	<img class = center src='/static/experiments/beast_fmri_test/images/B.png'></img>	71,89	2750.0	test	<img class = center src='/static/experiments/beast_fmri_test/images/redB.png'></img>	go	2450.0	2.0	29.0	go	non-target	B	71,Index Finger	89,Middle Finger	400.0	300.0	2300.0	2450.0	1.0	300.0	1.0	n/a	ITI
136198	500.0	n/a	-1	-1	500	0.0	fixation	poldrack-single-stim	67	234636	0.0-7.30-0.30	beast_fmri_test	330	234374,/	t	<div class = centerbox2><div class = fixation>+</div></div>	none	500.0	test	n/a	n/a	n/a	n/a	n/a	n/a	n/a	n/a	n/a	n/a	n/a	n/a	n/a	n/a	n/a	n/a	n/a	n/a	fixation
134089.31025696394	2750.0	n/a	426	71	2750	2108.68974304	stim	stop-signal	68	237386	0.0-7.30-1.30	beast_fmri_test	330	235053,/,235733,/,236413,/,237094,/,237772,/,238453,/,239132,/	t,t,t,t,t,t,t	<img class = center src='/static/experiments/beast_fmri_test/images/T.png'></img>	71,89	2750.0	test	<img class = center src='/static/experiments/beast_fmri_test/images/redT.png'></img>	go	2350.0	2.0	30.0	go	target	T	71,Index Finger	89,Middle Finger	400.0	300.0	2350.0	2450.0	1.0	400.0	1.0	n/a	go_stim
136839.31025696394	2108.68974304	n/a	426	71	2750	2108.68974304	stim	stop-signal	68	237386	0.0-7.30-1.30	beast_fmri_test	330	235053,/,235733,/,236413,/,237094,/,237772,/,238453,/,239132,/	t,t,t,t,t,t,t	<img class = center src='/static/experiments/beast_fmri_test/images/T.png'></img>	71,89	2750.0	test	<img class = center src='/static/experiments/beast_fmri_test/images/redT.png'></img>	go	2350.0	2.0	30.0	go	target	T	71,Index Finger	89,Middle Finger	400.0	300.0	2350.0	2450.0	1.0	400.0	1.0	n/a	ITI
141569	500.0	n/a	-1	-1	500	0.0	fixation	poldrack-single-stim	69	240007	0.0-7.31-0.31	beast_fmri_test	330	239811,/	t	<div class = centerbox2><div class = fixation>+</div></div>	none	500.0	test	n/a	n/a	n/a	n/a	n/a	n/a	n/a	n/a	n/a	n/a	n/a	n/a	n/a	n/a	n/a	n/a	n/a	n/a	fixation
138788.27673009288	2750.0	n/a	394	89	2750	2782.72326991	stim	stop-signal	70	242759	0.0-7.31-1.31	beast_fmri_test	330	240490,/,241170,/,241851,/,242530,/,243210,/,243889,/,244568,/,245248,/	t,t,t,t,t,t,t,t	<img class = center src='/static/experiments/beast_fmri_test/images/D.png'></img>	71,89	2750.0	test	<img class = center src='/static/experiments/beast_fmri_test/images/redD.png'></img>	go	2450.0	2.0	31.0	go	non-target	D	71,Index Finger	89,Middle Finger	400.0	300.0	2350.0	2450.0	1.0	300.0	1.0	n/a	go_stim
141538.27673009288	2782.72326991	n/a	394	89	2750	2782.72326991	stim	stop-signal	70	242759	0.0-7.31-1.31	beast_fmri_test	330	240490,/,241170,/,241851,/,242530,/,243210,/,243889,/,244568,/,245248,/	t,t,t,t,t,t,t,t	<img class = center src='/static/experiments/beast_fmri_test/images/D.png'></img>	71,89	2750.0	test	<img class = center src='/static/experiments/beast_fmri_test/images/redD.png'></img>	go	2450.0	2.0	31.0	go	non-target	D	71,Index Finger	89,Middle Finger	400.0	300.0	2350.0	2450.0	1.0	300.0	1.0	n/a	ITI
147614	500.0	n/a	-1	-1	500	0.0	fixation	poldrack-single-stim	71	246052	0.0-7.32-0.32	beast_fmri_test	330	245928,/	t	<div class = centerbox2><div class = fixation>+</div></div>	none	500.0	test	n/a	n/a	n/a	n/a	n/a	n/a	n/a	n/a	n/a	n/a	n/a	n/a	n/a	n/a	n/a	n/a	n/a	n/a	fixation
146952.84711098834	2750.0	n/a	442	71	2750	662.152889012	stim	stop-signal	72	248803	0.0-7.32-1.32	beast_fmri_test	330	246609,/,247287,/,247967,/,248647,/,249326,/	t,t,t,t,t	<img class = center src='/static/experiments/beast_fmri_test/images/T.png'></img>	71,89	2750.0	test	<img class = center src='/static/experiments/beast_fmri_test/images/redT.png'></img>	go	2350.0	2.0	32.0	go	target	T	71,Index Finger	89,Middle Finger	400.0	300.0	2350.0	2450.0	1.0	400.0	1.0	n/a	go_stim
149702.84711098834	662.152889012	n/a	442	71	2750	662.152889012	stim	stop-signal	72	248803	0.0-7.32-1.32	beast_fmri_test	330	246609,/,247287,/,247967,/,248647,/,249326,/	t,t,t,t,t	<img class = center src='/static/experiments/beast_fmri_test/images/T.png'></img>	71,89	2750.0	test	<img class = center src='/static/experiments/beast_fmri_test/images/redT.png'></img>	go	2350.0	2.0	32.0	go	target	T	71,Index Finger	89,Middle Finger	400.0	300.0	2350.0	2450.0	1.0	400.0	1.0	n/a	ITI
151540	500.0	n/a	-1	-1	500	0.0	fixation	poldrack-single-stim	73	249978	0.0-7.33-0.33	beast_fmri_test	330	n/a	n/a	<div class = centerbox2><div class = fixation>+</div></div>	none	500.0	test	n/a	n/a	n/a	n/a	n/a	n/a	n/a	n/a	n/a	n/a	n/a	n/a	n/a	n/a	n/a	n/a	n/a	n/a	fixation
151128.88975401435	400.0	n/a	466	89	2750	413.110245986	stim	stop-signal	74	252730	0.0-7.33-1.33	beast_fmri_test	330	250006,/,250687,/,251366,/,252045,/,252726,/	t,t,t,t,t	<img class = center src='/static/experiments/beast_fmri_test/images/D.png'></img>	71,89	2750.0	test	<img class = center src='/static/experiments/beast_fmri_test/images/redD.png'></img>	stop	2350.0	2.0	33.0	stop	target	D	71,Index Finger	89,Middle Finger	400.0	300.0	2350.0	2450.0	0.0	400.0	n/a	0.0	go_stim
153478.88975401435	2350.0	n/a	466	89	2750	413.110245986	stim	stop-signal	74	252730	0.0-7.33-1.33	beast_fmri_test	330	250006,/,250687,/,251366,/,252045,/,252726,/	t,t,t,t,t	<img class = center src='/static/experiments/beast_fmri_test/images/D.png'></img>	71,89	2750.0	test	<img class = center src='/static/experiments/beast_fmri_test/images/redD.png'></img>	stop	2350.0	2.0	33.0	stop	target	D	71,Index Finger	89,Middle Finger	400.0	300.0	2350.0	2450.0	0.0	400.0	n/a	0.0	stop_stim
153878.88975401435	413.110245986	n/a	466	89	2750	413.110245986	stim	stop-signal	74	252730	0.0-7.33-1.33	beast_fmri_test	330	250006,/,250687,/,251366,/,252045,/,252726,/	t,t,t,t,t	<img class = center src='/static/experiments/beast_fmri_test/images/D.png'></img>	71,89	2750.0	test	<img class = center src='/static/experiments/beast_fmri_test/images/redD.png'></img>	stop	2350.0	2.0	33.0	stop	target	D	71,Index Finger	89,Middle Finger	400.0	300.0	2350.0	2450.0	0.0	400.0	n/a	0.0	ITI
155218	500.0	n/a	-1	-1	500	0.0	fixation	poldrack-single-stim	75	253656	0.0-7.34-0.34	beast_fmri_test	330	253405,/	t	<div class = centerbox2><div class = fixation>+</div></div>	none	500.0	test	n/a	n/a	n/a	n/a	n/a	n/a	n/a	n/a	n/a	n/a	n/a	n/a	n/a	n/a	n/a	n/a	n/a	n/a	fixation
155001.43181628879	300.0	n/a	474	89	2750	219.568183711	stim	stop-signal	76	256409	0.0-7.34-1.34	beast_fmri_test	330	254085,/,254765,/,255445,/,256124,/	t,t,t,t	<img class = center src='/static/experiments/beast_fmri_test/images/B.png'></img>	71,89	2750.0	test	<img class = center src='/static/experiments/beast_fmri_test/images/redB.png'></img>	stop	2450.0	2.0	34.0	stop	non-target	B	71,Index Finger	89,Middle Finger	350.0	300.0	2350.0	2450.0	0.0	300.0	n/a	0.0	go_stim
157451.43181628879	2450.0	n/a	474	89	2750	219.568183711	stim	stop-signal	76	256409	0.0-7.34-1.34	beast_fmri_test	330	254085,/,254765,/,255445,/,256124,/	t,t,t,t	<img class = center src='/static/experiments/beast_fmri_test/images/B.png'></img>	71,89	2750.0	test	<img class = center src='/static/experiments/beast_fmri_test/images/redB.png'></img>	stop	2450.0	2.0	34.0	stop	non-target	B	71,Index Finger	89,Middle Finger	350.0	300.0	2350.0	2450.0	0.0	300.0	n/a	0.0	stop_stim
157751.43181628879	219.568183711	n/a	474	89	2750	219.568183711	stim	stop-signal	76	256409	0.0-7.34-1.34	beast_fmri_test	330	254085,/,254765,/,255445,/,256124,/	t,t,t,t	<img class = center src='/static/experiments/beast_fmri_test/images/B.png'></img>	71,89	2750.0	test	<img class = center src='/static/experiments/beast_fmri_test/images/redB.png'></img>	stop	2450.0	2.0	34.0	stop	non-target	B	71,Index Finger	89,Middle Finger	350.0	300.0	2350.0	2450.0	0.0	300.0	n/a	0.0	ITI
158704	500.0	n/a	-1	-1	500	0.0	fixation	poldrack-single-stim	77	257142	0.0-7.35-0.35	beast_fmri_test	330	256804,/	t	<div class = centerbox2><div class = fixation>+</div></div>	none	500.0	test	n/a	n/a	n/a	n/a	n/a	n/a	n/a	n/a	n/a	n/a	n/a	n/a	n/a	n/a	n/a	n/a	n/a	n/a	fixation
157860.65221450498	2750.0	n/a	434	89	2750	844.347785495	stim	stop-signal	78	259893	0.0-7.35-1.35	beast_fmri_test	330	257484,/,258162,/,258843,/,259522,/,260202,/	t,t,t,t,t	<img class = center src='/static/experiments/beast_fmri_test/images/P.png'></img>	71,89	2750.0	test	<img class = center src='/static/experiments/beast_fmri_test/images/redP.png'></img>	go	2500.0	2.0	35.0	go	non-target	P	71,Index Finger	89,Middle Finger	350.0	250.0	2350.0	2500.0	1.0	250.0	1.0	n/a	go_stim
160610.65221450498	844.347785495	n/a	434	89	2750	844.347785495	stim	stop-signal	78	259893	0.0-7.35-1.35	beast_fmri_test	330	257484,/,258162,/,258843,/,259522,/,260202,/	t,t,t,t,t	<img class = center src='/static/experiments/beast_fmri_test/images/P.png'></img>	71,89	2750.0	test	<img class = center src='/static/experiments/beast_fmri_test/images/redP.png'></img>	go	2500.0	2.0	35.0	go	non-target	P	71,Index Finger	89,Middle Finger	350.0	250.0	2350.0	2500.0	1.0	250.0	1.0	n/a	ITI
162814	500.0	n/a	-1	-1	500	0.0	fixation	poldrack-single-stim	79	261252	0.0-7.36-0.36	beast_fmri_test	330	260883,/	t	<div class = centerbox2><div class = fixation>+</div></div>	none	500.0	test	n/a	n/a	n/a	n/a	n/a	n/a	n/a	n/a	n/a	n/a	n/a	n/a	n/a	n/a	n/a	n/a	n/a	n/a	fixation
162222.2662118983	2750.0	n/a	449	89	2750	593.733788102	stim	stop-signal	80	264004	0.0-7.36-1.36	beast_fmri_test	330	261562,/,262242,/,262921,/,263600,/,264280,/	t,t,t,t,t	<img class = center src='/static/experiments/beast_fmri_test/images/T.png'></img>	71,89	2750.0	test	<img class = center src='/static/experiments/beast_fmri_test/images/redT.png'></img>	go	2500.0	2.0	36.0	go	non-target	T	71,Index Finger	89,Middle Finger	350.0	250.0	2350.0	2500.0	1.0	250.0	1.0	n/a	go_stim
164972.2662118983	593.733788102	n/a	449	89	2750	593.733788102	stim	stop-signal	80	264004	0.0-7.36-1.36	beast_fmri_test	330	261562,/,262242,/,262921,/,263600,/,264280,/	t,t,t,t,t	<img class = center src='/static/experiments/beast_fmri_test/images/T.png'></img>	71,89	2750.0	test	<img class = center src='/static/experiments/beast_fmri_test/images/redT.png'></img>	go	2500.0	2.0	36.0	go	non-target	T	71,Index Finger	89,Middle Finger	350.0	250.0	2350.0	2500.0	1.0	250.0	1.0	n/a	ITI
166674	500.0	n/a	-1	-1	500	0.0	fixation	poldrack-single-stim	81	265112	0.0-7.37-0.37	beast_fmri_test	330	264961,/	t	<div class = centerbox2><div class = fixation>+</div></div>	none	500.0	test	n/a	n/a	n/a	n/a	n/a	n/a	n/a	n/a	n/a	n/a	n/a	n/a	n/a	n/a	n/a	n/a	n/a	n/a	fixation
166023.72342463525	2750.0	n/a	502	71	2750	651.276575365	stim	stop-signal	82	267863	0.0-7.37-1.37	beast_fmri_test	330	265640,/,266319,/,266999,/,267679,/,268358,/	t,t,t,t,t	<img class = center src='/static/experiments/beast_fmri_test/images/P.png'></img>	71,89	2750.0	test	<img class = center src='/static/experiments/beast_fmri_test/images/redP.png'></img>	go	2400.0	2.0	37.0	go	target	P	71,Index Finger	89,Middle Finger	350.0	250.0	2400.0	2500.0	1.0	350.0	1.0	n/a	go_stim
168773.72342463525	651.276575365	n/a	502	71	2750	651.276575365	stim	stop-signal	82	267863	0.0-7.37-1.37	beast_fmri_test	330	265640,/,266319,/,266999,/,267679,/,268358,/	t,t,t,t,t	<img class = center src='/static/experiments/beast_fmri_test/images/P.png'></img>	71,89	2750.0	test	<img class = center src='/static/experiments/beast_fmri_test/images/redP.png'></img>	go	2400.0	2.0	37.0	go	target	P	71,Index Finger	89,Middle Finger	350.0	250.0	2400.0	2500.0	1.0	350.0	1.0	n/a	ITI
170594	500.0	n/a	-1	-1	500	0.0	fixation	poldrack-single-stim	83	269032	0.0-7.38-0.38	beast_fmri_test	330	n/a	n/a	<div class = centerbox2><div class = fixation>+</div></div>	none	500.0	test	n/a	n/a	n/a	n/a	n/a	n/a	n/a	n/a	n/a	n/a	n/a	n/a	n/a	n/a	n/a	n/a	n/a	n/a	fixation
167556.25862795993	250.0	n/a	507	89	2750	3038.74137204	stim	stop-signal	84	271783	0.0-7.38-1.38	beast_fmri_test	330	269038,/,269718,/,270397,/,271077,/,271757,/,272436,/,273116,/,273797,/,274476,/	t,t,t,t,t,t,t,t,t	<img class = center src='/static/experiments/beast_fmri_test/images/P.png'></img>	71,89	2750.0	test	<img class = center src='/static/experiments/beast_fmri_test/images/redP.png'></img>	stop	2500.0	2.0	38.0	stop	non-target	P	71,Index Finger	89,Middle Finger	350.0	250.0	2400.0	2500.0	0.0	250.0	n/a	0.0	go_stim
170056.25862795993	2500.0	n/a	507	89	2750	3038.74137204	stim	stop-signal	84	271783	0.0-7.38-1.38	beast_fmri_test	330	269038,/,269718,/,270397,/,271077,/,271757,/,272436,/,273116,/,273797,/,274476,/	t,t,t,t,t,t,t,t,t	<img class = center src='/static/experiments/beast_fmri_test/images/P.png'></img>	71,89	2750.0	test	<img class = center src='/static/experiments/beast_fmri_test/images/redP.png'></img>	stop	2500.0	2.0	38.0	stop	non-target	P	71,Index Finger	89,Middle Finger	350.0	250.0	2400.0	2500.0	0.0	250.0	n/a	0.0	stop_stim
170306.25862795993	3038.74137204	n/a	507	89	2750	3038.74137204	stim	stop-signal	84	271783	0.0-7.38-1.38	beast_fmri_test	330	269038,/,269718,/,270397,/,271077,/,271757,/,272436,/,273116,/,273797,/,274476,/	t,t,t,t,t,t,t,t,t	<img class = center src='/static/experiments/beast_fmri_test/images/P.png'></img>	71,89	2750.0	test	<img class = center src='/static/experiments/beast_fmri_test/images/redP.png'></img>	stop	2500.0	2.0	38.0	stop	non-target	P	71,Index Finger	89,Middle Finger	350.0	250.0	2400.0	2500.0	0.0	250.0	n/a	0.0	ITI
176899	500.0	n/a	-1	-1	500	0.0	fixation	poldrack-single-stim	85	275337	0.0-7.39-0.39	beast_fmri_test	330	275155,/	t	<div class = centerbox2><div class = fixation>+</div></div>	none	500.0	test	n/a	n/a	n/a	n/a	n/a	n/a	n/a	n/a	n/a	n/a	n/a	n/a	n/a	n/a	n/a	n/a	n/a	n/a	fixation
176157.81368124275	2750.0	n/a	442	71	2750	742.186318757	stim	stop-signal	86	278088	0.0-7.39-1.39	beast_fmri_test	330	275836,/,276515,/,277194,/,277874,/,278553,/	t,t,t,t,t	<img class = center src='/static/experiments/beast_fmri_test/images/P.png'></img>	71,89	2750.0	test	<img class = center src='/static/experiments/beast_fmri_test/images/redP.png'></img>	go	2400.0	2.0	39.0	go	target	P	71,Index Finger	89,Middle Finger	350.0	200.0	2400.0	2500.0	1.0	350.0	1.0	n/a	go_stim
178907.81368124275	742.186318757	n/a	442	71	2750	742.186318757	stim	stop-signal	86	278088	0.0-7.39-1.39	beast_fmri_test	330	275836,/,276515,/,277194,/,277874,/,278553,/	t,t,t,t,t	<img class = center src='/static/experiments/beast_fmri_test/images/P.png'></img>	71,89	2750.0	test	<img class = center src='/static/experiments/beast_fmri_test/images/redP.png'></img>	go	2400.0	2.0	39.0	go	target	P	71,Index Finger	89,Middle Finger	350.0	200.0	2400.0	2500.0	1.0	350.0	1.0	n/a	ITI
180911	500.0	n/a	-1	-1	500	0.0	fixation	poldrack-single-stim	87	279349	0.0-7.40-0.40	beast_fmri_test	330	279233,/	t	<div class = centerbox2><div class = fixation>+</div></div>	none	500.0	test	n/a	n/a	n/a	n/a	n/a	n/a	n/a	n/a	n/a	n/a	n/a	n/a	n/a	n/a	n/a	n/a	n/a	n/a	fixation
179879.82052906771	2750.0	n/a	505	71	2750	1032.17947093	stim	stop-signal	88	282100	0.0-7.40-1.40	beast_fmri_test	330	279913,/,280593,/,281272,/,281952,/,282632,/	t,t,t,t,t	<img class = center src='/static/experiments/beast_fmri_test/images/P.png'></img>	71,89	2750.0	test	<img class = center src='/static/experiments/beast_fmri_test/images/redP.png'></img>	go	2400.0	2.0	40.0	go	target	P	71,Index Finger	89,Middle Finger	350.0	200.0	2400.0	2500.0	1.0	350.0	1.0	n/a	go_stim
182629.82052906771	1032.17947093	n/a	505	71	2750	1032.17947093	stim	stop-signal	88	282100	0.0-7.40-1.40	beast_fmri_test	330	279913,/,280593,/,281272,/,281952,/,282632,/	t,t,t,t,t	<img class = center src='/static/experiments/beast_fmri_test/images/P.png'></img>	71,89	2750.0	test	<img class = center src='/static/experiments/beast_fmri_test/images/redP.png'></img>	go	2400.0	2.0	40.0	go	target	P	71,Index Finger	89,Middle Finger	350.0	200.0	2400.0	2500.0	1.0	350.0	1.0	n/a	ITI
185213	500.0	n/a	-1	-1	500	0.0	fixation	poldrack-single-stim	89	283651	0.0-7.41-0.41	beast_fmri_test	330	283314,/	t	<div class = centerbox2><div class = fixation>+</div></div>	none	500.0	test	n/a	n/a	n/a	n/a	n/a	n/a	n/a	n/a	n/a	n/a	n/a	n/a	n/a	n/a	n/a	n/a	n/a	n/a	fixation
184875.03683290782	350.0	n/a	402	71	2750	337.963167092	stim	stop-signal	90	286401	0.0-7.41-1.41	beast_fmri_test	330	283992,/,284672,/,285352,/,286031,/,286710,/	t,t,t,t,t	<img class = center src='/static/experiments/beast_fmri_test/images/P.png'></img>	71,89	2750.0	test	<img class = center src='/static/experiments/beast_fmri_test/images/redP.png'></img>	stop	2400.0	2.0	41.0	stop	target	P	71,Index Finger	89,Middle Finger	350.0	200.0	2400.0	2500.0	0.0	350.0	n/a	0.0	go_stim
187275.03683290782	2400.0	n/a	402	71	2750	337.963167092	stim	stop-signal	90	286401	0.0-7.41-1.41	beast_fmri_test	330	283992,/,284672,/,285352,/,286031,/,286710,/	t,t,t,t,t	<img class = center src='/static/experiments/beast_fmri_test/images/P.png'></img>	71,89	2750.0	test	<img class = center src='/static/experiments/beast_fmri_test/images/redP.png'></img>	stop	2400.0	2.0	41.0	stop	target	P	71,Index Finger	89,Middle Finger	350.0	200.0	2400.0	2500.0	0.0	350.0	n/a	0.0	stop_stim
187625.03683290782	337.963167092	n/a	402	71	2750	337.963167092	stim	stop-signal	90	286401	0.0-7.41-1.41	beast_fmri_test	330	283992,/,284672,/,285352,/,286031,/,286710,/	t,t,t,t,t	<img class = center src='/static/experiments/beast_fmri_test/images/P.png'></img>	71,89	2750.0	test	<img class = center src='/static/experiments/beast_fmri_test/images/redP.png'></img>	stop	2400.0	2.0	41.0	stop	target	P	71,Index Finger	89,Middle Finger	350.0	200.0	2400.0	2500.0	0.0	350.0	n/a	0.0	ITI
188817	500.0	n/a	-1	-1	500	0.0	fixation	poldrack-single-stim	91	287255	0.0-7.42-0.42	beast_fmri_test	330	n/a	n/a	<div class = centerbox2><div class = fixation>+</div></div>	none	500.0	test	n/a	n/a	n/a	n/a	n/a	n/a	n/a	n/a	n/a	n/a	n/a	n/a	n/a	n/a	n/a	n/a	n/a	n/a	fixation
186747.7175820574	2750.0	n/a	457	89	2750	2071.28241794	stim	stop-signal	92	290007	0.0-7.42-1.42	beast_fmri_test	330	287390,/,288069,/,288751,/,289429,/,290109,/,290788,/,291468,/	t,t,t,t,t,t,t	<img class = center src='/static/experiments/beast_fmri_test/images/B.png'></img>	71,89	2750.0	test	<img class = center src='/static/experiments/beast_fmri_test/images/redB.png'></img>	go	2550.0	2.0	42.0	go	non-target	B	71,Index Finger	89,Middle Finger	300.0	200.0	2400.0	2550.0	1.0	200.0	1.0	n/a	go_stim
189497.7175820574	2071.28241794	n/a	457	89	2750	2071.28241794	stim	stop-signal	92	290007	0.0-7.42-1.42	beast_fmri_test	330	287390,/,288069,/,288751,/,289429,/,290109,/,290788,/,291468,/	t,t,t,t,t,t,t	<img class = center src='/static/experiments/beast_fmri_test/images/B.png'></img>	71,89	2750.0	test	<img class = center src='/static/experiments/beast_fmri_test/images/redB.png'></img>	go	2550.0	2.0	42.0	go	non-target	B	71,Index Finger	89,Middle Finger	300.0	200.0	2400.0	2550.0	1.0	200.0	1.0	n/a	ITI
194154	500.0	n/a	-1	-1	500	0.0	fixation	poldrack-single-stim	93	292592	0.0-7.43-0.43	beast_fmri_test	330	292147,/	t	<div class = centerbox2><div class = fixation>+</div></div>	none	500.0	test	n/a	n/a	n/a	n/a	n/a	n/a	n/a	n/a	n/a	n/a	n/a	n/a	n/a	n/a	n/a	n/a	n/a	n/a	fixation
193849.08197243436	2750.0	n/a	696	89	2750	304.918027566	stim	stop-signal	94	295342	0.0-7.43-1.43	beast_fmri_test	330	292827,/,293507,/,294188,/,294867,/,295546,/	t,t,t,t,t	<img class = center src='/static/experiments/beast_fmri_test/images/B.png'></img>	71,89	2750.0	test	<img class = center src='/static/experiments/beast_fmri_test/images/redB.png'></img>	go	2550.0	2.0	43.0	go	non-target	B	71,Index Finger	89,Middle Finger	300.0	200.0	2400.0	2550.0	1.0	200.0	1.0	n/a	go_stim
196599.08197243436	304.918027566	n/a	696	89	2750	304.918027566	stim	stop-signal	94	295342	0.0-7.43-1.43	beast_fmri_test	330	292827,/,293507,/,294188,/,294867,/,295546,/	t,t,t,t,t	<img class = center src='/static/experiments/beast_fmri_test/images/B.png'></img>	71,89	2750.0	test	<img class = center src='/static/experiments/beast_fmri_test/images/redB.png'></img>	go	2550.0	2.0	43.0	go	non-target	B	71,Index Finger	89,Middle Finger	300.0	200.0	2400.0	2550.0	1.0	200.0	1.0	n/a	ITI
197724	500.0	n/a	-1	-1	500	0.0	fixation	poldrack-single-stim	95	296162	0.0-7.44-0.44	beast_fmri_test	330	n/a	n/a	<div class = centerbox2><div class = fixation>+</div></div>	none	500.0	test	n/a	n/a	n/a	n/a	n/a	n/a	n/a	n/a	n/a	n/a	n/a	n/a	n/a	n/a	n/a	n/a	n/a	n/a	fixation
196981.71984104899	300.0	n/a	467	71	2750	744.280158951	stim	stop-signal	96	298914	0.0-7.44-1.44	beast_fmri_test	330	296225,/,296905,/,297584,/,298266,/,298944,/,299625,/	t,t,t,t,t,t	<img class = center src='/static/experiments/beast_fmri_test/images/B.png'></img>	71,89	2750.0	test	<img class = center src='/static/experiments/beast_fmri_test/images/redB.png'></img>	stop	2450.0	2.0	44.0	stop	target	B	71,Index Finger	89,Middle Finger	300.0	200.0	2450.0	2550.0	0.0	300.0	n/a	0.0	go_stim
199431.71984104899	2450.0	n/a	467	71	2750	744.280158951	stim	stop-signal	96	298914	0.0-7.44-1.44	beast_fmri_test	330	296225,/,296905,/,297584,/,298266,/,298944,/,299625,/	t,t,t,t,t,t	<img class = center src='/static/experiments/beast_fmri_test/images/B.png'></img>	71,89	2750.0	test	<img class = center src='/static/experiments/beast_fmri_test/images/redB.png'></img>	stop	2450.0	2.0	44.0	stop	target	B	71,Index Finger	89,Middle Finger	300.0	200.0	2450.0	2550.0	0.0	300.0	n/a	0.0	stop_stim
199731.71984104899	744.280158951	n/a	467	71	2750	744.280158951	stim	stop-signal	96	298914	0.0-7.44-1.44	beast_fmri_test	330	296225,/,296905,/,297584,/,298266,/,298944,/,299625,/	t,t,t,t,t,t	<img class = center src='/static/experiments/beast_fmri_test/images/B.png'></img>	71,89	2750.0	test	<img class = center src='/static/experiments/beast_fmri_test/images/redB.png'></img>	stop	2450.0	2.0	44.0	stop	target	B	71,Index Finger	89,Middle Finger	300.0	200.0	2450.0	2550.0	0.0	300.0	n/a	0.0	ITI
201735	500.0	n/a	-1	-1	500	0.0	fixation	poldrack-single-stim	97	300173	0.0-7.45-0.45	beast_fmri_test	330	n/a	n/a	<div class = centerbox2><div class = fixation>+</div></div>	none	500.0	test	n/a	n/a	n/a	n/a	n/a	n/a	n/a	n/a	n/a	n/a	n/a	n/a	n/a	n/a	n/a	n/a	n/a	n/a	fixation
201375.87136899272	2750.0	n/a	466	89	2750	361.128631007	stim	stop-signal	98	302925	0.0-7.45-1.45	beast_fmri_test	330	300304,/,300984,/,301663,/,302342,/,303022,/	t,t,t,t,t	<img class = center src='/static/experiments/beast_fmri_test/images/D.png'></img>	71,89	2750.0	test	<img class = center src='/static/experiments/beast_fmri_test/images/redD.png'></img>	go	2550.0	2.0	45.0	go	non-target	D	71,Index Finger	89,Middle Finger	250.0	200.0	2450.0	2550.0	1.0	200.0	1.0	n/a	go_stim
204125.87136899272	361.128631007	n/a	466	89	2750	361.128631007	stim	stop-signal	98	302925	0.0-7.45-1.45	beast_fmri_test	330	300304,/,300984,/,301663,/,302342,/,303022,/	t,t,t,t,t	<img class = center src='/static/experiments/beast_fmri_test/images/D.png'></img>	71,89	2750.0	test	<img class = center src='/static/experiments/beast_fmri_test/images/redD.png'></img>	go	2550.0	2.0	45.0	go	non-target	D	71,Index Finger	89,Middle Finger	250.0	200.0	2450.0	2550.0	1.0	200.0	1.0	n/a	ITI
205365	500.0	n/a	-1	-1	500	0.0	fixation	poldrack-single-stim	99	303803	0.0-7.46-0.46	beast_fmri_test	330	303702,/	t	<div class = centerbox2><div class = fixation>+</div></div>	none	500.0	test	n/a	n/a	n/a	n/a	n/a	n/a	n/a	n/a	n/a	n/a	n/a	n/a	n/a	n/a	n/a	n/a	n/a	n/a	fixation
205006.0396158676	2750.0	n/a	437	89	2750	362.960384132	stim	stop-signal	100	306557	0.0-7.46-1.46	beast_fmri_test	330	304381,/,305062,/,305741,/,306420,/	t,t,t,t	<img class = center src='/static/experiments/beast_fmri_test/images/V.png'></img>	71,89	2750.0	test	<img class = center src='/static/experiments/beast_fmri_test/images/redV.png'></img>	go	2550.0	2.0	46.0	go	non-target	V	71,Index Finger	89,Middle Finger	250.0	200.0	2450.0	2550.0	1.0	200.0	1.0	n/a	go_stim
207756.0396158676	362.960384132	n/a	437	89	2750	362.960384132	stim	stop-signal	100	306557	0.0-7.46-1.46	beast_fmri_test	330	304381,/,305062,/,305741,/,306420,/	t,t,t,t	<img class = center src='/static/experiments/beast_fmri_test/images/V.png'></img>	71,89	2750.0	test	<img class = center src='/static/experiments/beast_fmri_test/images/redV.png'></img>	go	2550.0	2.0	46.0	go	non-target	V	71,Index Finger	89,Middle Finger	250.0	200.0	2450.0	2550.0	1.0	200.0	1.0	n/a	ITI
223497	15000.0	n/a	-1	-1	15000	0.0	practice-no-stop-feedback	poldrack-single-stim	101	321935	0.0-8.0	beast_fmri_test	330	307100,/,307781,/,308460,/,309139,/,309819,/,310498,/,311178,/,311858,/,312538,/,313219,/,313898,/,314577,/,315257,/,315939,/,316617,/,317296,/,317977,/,318656,/,319335,/,320014,/,320694,/,321377,/	t,t,t,t,t,t,t,t,t,t,t,t,t,t,t,t,t,t,t,t,t,t	"<div class = ""centerbox""><p class = ""block-text"">Your delay is 3 trials.</p><p class = block-text>Please wait for the scanner to start the block</p></div>"	77	15000.0	n/a	n/a	n/a	n/a	n/a	n/a	n/a	n/a	n/a	n/a	n/a	n/a	n/a	n/a	n/a	n/a	n/a	n/a	n/a	practice-no-stop-feedback
223999	500.0	n/a	-1	-1	500	0.0	fixation	poldrack-single-stim	102	322437	0.0-9.0-0.0	beast_fmri_test	330	322054,/	t	<div class = centerbox2><div class = fixation>+</div></div>	none	500.0	test	n/a	n/a	n/a	n/a	n/a	n/a	n/a	n/a	n/a	n/a	n/a	n/a	n/a	n/a	n/a	n/a	n/a	n/a	fixation
220935.92698465963	2750.0	n/a	918	89	2750	3065.07301534	stim	stop-signal	103	325189	0.0-9.0-1.0	beast_fmri_test	330	322734,/,323413,/,324093,/,324773,/,325452,/,326133,/,326812,/,327492,/,328171,/	t,t,t,t,t,t,t,t,t	<img class = center src='/static/experiments/beast_fmri_test/images/D.png'></img>	71,89	2750.0	test	<img class = center src='/static/experiments/beast_fmri_test/images/redD.png'></img>	go	-1.0	3.0	0.0	go	temp-non-target	D	71,Index Finger	89,Middle Finger	250.0	200.0	2450.0	2550.0	0.0	n/a	n/a	n/a	go_stim
223685.92698465963	3065.07301534	n/a	918	89	2750	3065.07301534	stim	stop-signal	103	325189	0.0-9.0-1.0	beast_fmri_test	330	322734,/,323413,/,324093,/,324773,/,325452,/,326133,/,326812,/,327492,/,328171,/	t,t,t,t,t,t,t,t,t	<img class = center src='/static/experiments/beast_fmri_test/images/D.png'></img>	71,89	2750.0	test	<img class = center src='/static/experiments/beast_fmri_test/images/redD.png'></img>	go	-1.0	3.0	0.0	go	temp-non-target	D	71,Index Finger	89,Middle Finger	250.0	200.0	2450.0	2550.0	0.0	n/a	n/a	n/a	ITI
230335	500.0	n/a	-1	-1	500	0.0	fixation	poldrack-single-stim	104	328773	0.0-9.1-0.1	beast_fmri_test	330	n/a	n/a	<div class = centerbox2><div class = fixation>+</div></div>	none	500.0	test	n/a	n/a	n/a	n/a	n/a	n/a	n/a	n/a	n/a	n/a	n/a	n/a	n/a	n/a	n/a	n/a	n/a	n/a	fixation
228150.96411445184	2750.0	n/a	589	89	2750	2185.03588555	stim	stop-signal	105	331524	0.0-9.1-1.1	beast_fmri_test	330	328851,/,329530,/,330210,/,330890,/,331570,/,332249,/,332930,/,333609,/	t,t,t,t,t,t,t,t	<img class = center src='/static/experiments/beast_fmri_test/images/B.png'></img>	71,89	2750.0	test	<img class = center src='/static/experiments/beast_fmri_test/images/redB.png'></img>	go	-1.0	3.0	1.0	go	temp-non-target	B	71,Index Finger	89,Middle Finger	250.0	200.0	2450.0	2550.0	0.0	n/a	n/a	n/a	go_stim
230900.96411445184	2185.03588555	n/a	589	89	2750	2185.03588555	stim	stop-signal	105	331524	0.0-9.1-1.1	beast_fmri_test	330	328851,/,329530,/,330210,/,330890,/,331570,/,332249,/,332930,/,333609,/	t,t,t,t,t,t,t,t	<img class = center src='/static/experiments/beast_fmri_test/images/B.png'></img>	71,89	2750.0	test	<img class = center src='/static/experiments/beast_fmri_test/images/redB.png'></img>	go	-1.0	3.0	1.0	go	temp-non-target	B	71,Index Finger	89,Middle Finger	250.0	200.0	2450.0	2550.0	0.0	n/a	n/a	n/a	ITI
235786	500.0	n/a	-1	-1	500	0.0	fixation	poldrack-single-stim	106	334224	0.0-9.2-0.2	beast_fmri_test	330	n/a	n/a	<div class = centerbox2><div class = fixation>+</div></div>	none	500.0	test	n/a	n/a	n/a	n/a	n/a	n/a	n/a	n/a	n/a	n/a	n/a	n/a	n/a	n/a	n/a	n/a	n/a	n/a	fixation
235688.8141808316	2750.0	n/a	1501	89	2750	99.1858191684	stim	stop-signal	107	336976	0.0-9.2-1.2	beast_fmri_test	330	334288,/,334967,/,335648,/,336327,/,337006,/	t,t,t,t,t	<img class = center src='/static/experiments/beast_fmri_test/images/T.png'></img>	71,89	2750.0	test	<img class = center src='/static/experiments/beast_fmri_test/images/redT.png'></img>	go	-1.0	3.0	2.0	go	temp-non-target	T	71,Index Finger	89,Middle Finger	250.0	200.0	2450.0	2550.0	0.0	n/a	n/a	n/a	go_stim
238438.8141808316	99.1858191684	n/a	1501	89	2750	99.1858191684	stim	stop-signal	107	336976	0.0-9.2-1.2	beast_fmri_test	330	334288,/,334967,/,335648,/,336327,/,337006,/	t,t,t,t,t	<img class = center src='/static/experiments/beast_fmri_test/images/T.png'></img>	71,89	2750.0	test	<img class = center src='/static/experiments/beast_fmri_test/images/redT.png'></img>	go	-1.0	3.0	2.0	go	temp-non-target	T	71,Index Finger	89,Middle Finger	250.0	200.0	2450.0	2550.0	0.0	n/a	n/a	n/a	ITI
239158	500.0	n/a	-1	-1	500	0.0	fixation	poldrack-single-stim	108	337596	0.0-9.3-0.3	beast_fmri_test	330	n/a	n/a	<div class = centerbox2><div class = fixation>+</div></div>	none	500.0	test	n/a	n/a	n/a	n/a	n/a	n/a	n/a	n/a	n/a	n/a	n/a	n/a	n/a	n/a	n/a	n/a	n/a	n/a	fixation
238593.58085769188	2750.0	n/a	1218	71	2750	567.419142308	stim	stop-signal	109	340349	0.0-9.3-1.3	beast_fmri_test	330	337687,/,338366,/,339045,/,339725,/,340404,/	t,t,t,t,t	<img class = center src='/static/experiments/beast_fmri_test/images/D.png'></img>	71,89	2750.0	test	<img class = center src='/static/experiments/beast_fmri_test/images/redD.png'></img>	go	2500.0	3.0	3.0	go	target	D	71,Index Finger	89,Middle Finger	250.0	200.0	2500.0	2550.0	1.0	250.0	1.0	n/a	go_stim
241343.58085769188	567.419142308	n/a	1218	71	2750	567.419142308	stim	stop-signal	109	340349	0.0-9.3-1.3	beast_fmri_test	330	337687,/,338366,/,339045,/,339725,/,340404,/	t,t,t,t,t	<img class = center src='/static/experiments/beast_fmri_test/images/D.png'></img>	71,89	2750.0	test	<img class = center src='/static/experiments/beast_fmri_test/images/redD.png'></img>	go	2500.0	3.0	3.0	go	target	D	71,Index Finger	89,Middle Finger	250.0	200.0	2500.0	2550.0	1.0	250.0	1.0	n/a	ITI
242995	500.0	n/a	-1	-1	500	0.0	fixation	poldrack-single-stim	110	341433	0.0-9.4-0.4	beast_fmri_test	330	341085,/	t	<div class = centerbox2><div class = fixation>+</div></div>	none	500.0	test	n/a	n/a	n/a	n/a	n/a	n/a	n/a	n/a	n/a	n/a	n/a	n/a	n/a	n/a	n/a	n/a	n/a	n/a	fixation
238196.87917647982	250.0	n/a	989	71	2750	4800.12082352	stim	stop-signal	111	344185	0.0-9.4-1.4	beast_fmri_test	330	341766,/,342445,/,343124,/,343804,/,344485,/,345165,/,345844,/,346524,/,347202,/,347882,/,348562,/	t,t,t,t,t,t,t,t,t,t,t	<img class = center src='/static/experiments/beast_fmri_test/images/B.png'></img>	71,89	2750.0	test	<img class = center src='/static/experiments/beast_fmri_test/images/redB.png'></img>	stop	2500.0	3.0	4.0	stop	target	B	71,Index Finger	89,Middle Finger	250.0	200.0	2500.0	2550.0	0.0	250.0	n/a	0.0	go_stim
240696.87917647982	2500.0	n/a	989	71	2750	4800.12082352	stim	stop-signal	111	344185	0.0-9.4-1.4	beast_fmri_test	330	341766,/,342445,/,343124,/,343804,/,344485,/,345165,/,345844,/,346524,/,347202,/,347882,/,348562,/	t,t,t,t,t,t,t,t,t,t,t	<img class = center src='/static/experiments/beast_fmri_test/images/B.png'></img>	71,89	2750.0	test	<img class = center src='/static/experiments/beast_fmri_test/images/redB.png'></img>	stop	2500.0	3.0	4.0	stop	target	B	71,Index Finger	89,Middle Finger	250.0	200.0	2500.0	2550.0	0.0	250.0	n/a	0.0	stop_stim
240946.87917647982	4800.12082352	n/a	989	71	2750	4800.12082352	stim	stop-signal	111	344185	0.0-9.4-1.4	beast_fmri_test	330	341766,/,342445,/,343124,/,343804,/,344485,/,345165,/,345844,/,346524,/,347202,/,347882,/,348562,/	t,t,t,t,t,t,t,t,t,t,t	<img class = center src='/static/experiments/beast_fmri_test/images/B.png'></img>	71,89	2750.0	test	<img class = center src='/static/experiments/beast_fmri_test/images/redB.png'></img>	stop	2500.0	3.0	4.0	stop	target	B	71,Index Finger	89,Middle Finger	250.0	200.0	2500.0	2550.0	0.0	250.0	n/a	0.0	ITI
251063	500.0	n/a	-1	-1	500	0.0	fixation	poldrack-single-stim	112	349501	0.0-9.5-0.5	beast_fmri_test	330	349241,/	t	<div class = centerbox2><div class = fixation>+</div></div>	none	500.0	test	n/a	n/a	n/a	n/a	n/a	n/a	n/a	n/a	n/a	n/a	n/a	n/a	n/a	n/a	n/a	n/a	n/a	n/a	fixation
250250.94818797725	2750.0	n/a	444	71	2750	813.051812023	stim	stop-signal	113	352252	0.0-9.5-1.5	beast_fmri_test	330	349922,/,350602,/,351281,/,351961,/,352641,/	t,t,t,t,t	<img class = center src='/static/experiments/beast_fmri_test/images/T.png'></img>	71,89	2750.0	test	<img class = center src='/static/experiments/beast_fmri_test/images/redT.png'></img>	go	2550.0	3.0	5.0	go	target	T	71,Index Finger	89,Middle Finger	200.0	200.0	2550.0	2550.0	1.0	200.0	1.0	n/a	go_stim
253000.94818797725	813.051812023	n/a	444	71	2750	813.051812023	stim	stop-signal	113	352252	0.0-9.5-1.5	beast_fmri_test	330	349922,/,350602,/,351281,/,351961,/,352641,/	t,t,t,t,t	<img class = center src='/static/experiments/beast_fmri_test/images/T.png'></img>	71,89	2750.0	test	<img class = center src='/static/experiments/beast_fmri_test/images/redT.png'></img>	go	2550.0	3.0	5.0	go	target	T	71,Index Finger	89,Middle Finger	200.0	200.0	2550.0	2550.0	1.0	200.0	1.0	n/a	ITI
255145	500.0	n/a	-1	-1	500	0.0	fixation	poldrack-single-stim	114	353583	0.0-9.6-0.6	beast_fmri_test	330	353322,/	t	<div class = centerbox2><div class = fixation>+</div></div>	none	500.0	test	n/a	n/a	n/a	n/a	n/a	n/a	n/a	n/a	n/a	n/a	n/a	n/a	n/a	n/a	n/a	n/a	n/a	n/a	fixation
253750.05102195981	2750.0	n/a	1371	71	2750	1394.94897804	stim	stop-signal	115	356333	0.0-9.6-1.6	beast_fmri_test	330	354000,/,354680,/,355360,/,356039,/,356719,/,357397,/	t,t,t,t,t,t	<img class = center src='/static/experiments/beast_fmri_test/images/D.png'></img>	71,89	2750.0	test	<img class = center src='/static/experiments/beast_fmri_test/images/redD.png'></img>	go	2550.0	3.0	6.0	go	target	D	71,Index Finger	89,Middle Finger	200.0	200.0	2550.0	2550.0	1.0	200.0	1.0	n/a	go_stim
256500.05102195981	1394.94897804	n/a	1371	71	2750	1394.94897804	stim	stop-signal	115	356333	0.0-9.6-1.6	beast_fmri_test	330	354000,/,354680,/,355360,/,356039,/,356719,/,357397,/	t,t,t,t,t,t	<img class = center src='/static/experiments/beast_fmri_test/images/D.png'></img>	71,89	2750.0	test	<img class = center src='/static/experiments/beast_fmri_test/images/redD.png'></img>	go	2550.0	3.0	6.0	go	target	D	71,Index Finger	89,Middle Finger	200.0	200.0	2550.0	2550.0	1.0	200.0	1.0	n/a	ITI
259809	500.0	n/a	-1	-1	500	0.0	fixation	poldrack-single-stim	116	358247	0.0-9.7-0.7	beast_fmri_test	330	358077,/	t	<div class = centerbox2><div class = fixation>+</div></div>	none	500.0	test	n/a	n/a	n/a	n/a	n/a	n/a	n/a	n/a	n/a	n/a	n/a	n/a	n/a	n/a	n/a	n/a	n/a	n/a	fixation
259097.26805893442	2750.0	n/a	537	89	2750	712.731941066	stim	stop-signal	117	360998	0.0-9.7-1.7	beast_fmri_test	330	358757,/,359437,/,360116,/,360796,/,361475,/	t,t,t,t,t	<img class = center src='/static/experiments/beast_fmri_test/images/D.png'></img>	71,89	2750.0	test	<img class = center src='/static/experiments/beast_fmri_test/images/redD.png'></img>	go	2550.0	3.0	7.0	go	non-target	D	71,Index Finger	89,Middle Finger	200.0	200.0	2550.0	2550.0	1.0	200.0	1.0	n/a	go_stim
261847.26805893442	712.731941066	n/a	537	89	2750	712.731941066	stim	stop-signal	117	360998	0.0-9.7-1.7	beast_fmri_test	330	358757,/,359437,/,360116,/,360796,/,361475,/	t,t,t,t,t	<img class = center src='/static/experiments/beast_fmri_test/images/D.png'></img>	71,89	2750.0	test	<img class = center src='/static/experiments/beast_fmri_test/images/redD.png'></img>	go	2550.0	3.0	7.0	go	non-target	D	71,Index Finger	89,Middle Finger	200.0	200.0	2550.0	2550.0	1.0	200.0	1.0	n/a	ITI
263789	500.0	n/a	-1	-1	500	0.0	fixation	poldrack-single-stim	118	362227	0.0-9.8-0.8	beast_fmri_test	330	362156,/	t	<div class = centerbox2><div class = fixation>+</div></div>	none	500.0	test	n/a	n/a	n/a	n/a	n/a	n/a	n/a	n/a	n/a	n/a	n/a	n/a	n/a	n/a	n/a	n/a	n/a	n/a	fixation
263681.06120058801	200.0	n/a	594	89	2750	109.938799412	stim	stop-signal	119	364979	0.0-9.8-1.8	beast_fmri_test	330	362835,/,363514,/,364195,/,364875,/	t,t,t,t	<img class = center src='/static/experiments/beast_fmri_test/images/V.png'></img>	71,89	2750.0	test	<img class = center src='/static/experiments/beast_fmri_test/images/redV.png'></img>	stop	2550.0	3.0	8.0	stop	non-target	V	71,Index Finger	89,Middle Finger	200.0	200.0	2550.0	2550.0	0.0	200.0	n/a	0.0	go_stim
266231.06120058801	2550.0	n/a	594	89	2750	109.938799412	stim	stop-signal	119	364979	0.0-9.8-1.8	beast_fmri_test	330	362835,/,363514,/,364195,/,364875,/	t,t,t,t	<img class = center src='/static/experiments/beast_fmri_test/images/V.png'></img>	71,89	2750.0	test	<img class = center src='/static/experiments/beast_fmri_test/images/redV.png'></img>	stop	2550.0	3.0	8.0	stop	non-target	V	71,Index Finger	89,Middle Finger	200.0	200.0	2550.0	2550.0	0.0	200.0	n/a	0.0	stop_stim
266431.06120058801	109.938799412	n/a	594	89	2750	109.938799412	stim	stop-signal	119	364979	0.0-9.8-1.8	beast_fmri_test	330	362835,/,363514,/,364195,/,364875,/	t,t,t,t	<img class = center src='/static/experiments/beast_fmri_test/images/V.png'></img>	71,89	2750.0	test	<img class = center src='/static/experiments/beast_fmri_test/images/redV.png'></img>	stop	2550.0	3.0	8.0	stop	non-target	V	71,Index Finger	89,Middle Finger	200.0	200.0	2550.0	2550.0	0.0	200.0	n/a	0.0	ITI
267168	500.0	n/a	-1	-1	500	0.0	fixation	poldrack-single-stim	120	365606	0.0-9.9-0.9	beast_fmri_test	330	365555,/	t	<div class = centerbox2><div class = fixation>+</div></div>	none	500.0	test	n/a	n/a	n/a	n/a	n/a	n/a	n/a	n/a	n/a	n/a	n/a	n/a	n/a	n/a	n/a	n/a	n/a	n/a	fixation
265249.21347090806	150.0	n/a	703	89	2750	1920.78652909	stim	stop-signal	121	368358	0.0-9.9-1.9	beast_fmri_test	330	366234,/,366913,/,367592,/,368272,/,368952,/,369632,/	t,t,t,t,t,t	<img class = center src='/static/experiments/beast_fmri_test/images/P.png'></img>	71,89	2750.0	test	<img class = center src='/static/experiments/beast_fmri_test/images/redP.png'></img>	stop	2600.0	3.0	9.0	stop	non-target	P	71,Index Finger	89,Middle Finger	200.0	150.0	2550.0	2600.0	0.0	150.0	n/a	0.0	go_stim
267849.21347090806	2600.0	n/a	703	89	2750	1920.78652909	stim	stop-signal	121	368358	0.0-9.9-1.9	beast_fmri_test	330	366234,/,366913,/,367592,/,368272,/,368952,/,369632,/	t,t,t,t,t,t	<img class = center src='/static/experiments/beast_fmri_test/images/P.png'></img>	71,89	2750.0	test	<img class = center src='/static/experiments/beast_fmri_test/images/redP.png'></img>	stop	2600.0	3.0	9.0	stop	non-target	P	71,Index Finger	89,Middle Finger	200.0	150.0	2550.0	2600.0	0.0	150.0	n/a	0.0	stop_stim
267999.21347090806	1920.78652909	n/a	703	89	2750	1920.78652909	stim	stop-signal	121	368358	0.0-9.9-1.9	beast_fmri_test	330	366234,/,366913,/,367592,/,368272,/,368952,/,369632,/	t,t,t,t,t,t	<img class = center src='/static/experiments/beast_fmri_test/images/P.png'></img>	71,89	2750.0	test	<img class = center src='/static/experiments/beast_fmri_test/images/redP.png'></img>	stop	2600.0	3.0	9.0	stop	non-target	P	71,Index Finger	89,Middle Finger	200.0	150.0	2550.0	2600.0	0.0	150.0	n/a	0.0	ITI
272355	500.0	n/a	-1	-1	500	0.0	fixation	poldrack-single-stim	122	370793	0.0-9.10-0.10	beast_fmri_test	330	370313,/	t	<div class = centerbox2><div class = fixation>+</div></div>	none	500.0	test	n/a	n/a	n/a	n/a	n/a	n/a	n/a	n/a	n/a	n/a	n/a	n/a	n/a	n/a	n/a	n/a	n/a	n/a	fixation
272280.02385952137	2750.0	n/a	565	71	2750	75.9761404786	stim	stop-signal	123	373544	0.0-9.10-1.10	beast_fmri_test	330	370991,/,371672,/,372353,/,373029,/	t,t,t,t	<img class = center src='/static/experiments/beast_fmri_test/images/B.png'></img>	71,89	2750.0	test	<img class = center src='/static/experiments/beast_fmri_test/images/redB.png'></img>	go	2650.0	3.0	10.0	go	non-target	B	71,Index Finger	89,Middle Finger	200.0	100.0	2550.0	2650.0	0.0	100.0	0.0	n/a	go_stim
275030.02385952137	75.9761404786	n/a	565	71	2750	75.9761404786	stim	stop-signal	123	373544	0.0-9.10-1.10	beast_fmri_test	330	370991,/,371672,/,372353,/,373029,/	t,t,t,t	<img class = center src='/static/experiments/beast_fmri_test/images/B.png'></img>	71,89	2750.0	test	<img class = center src='/static/experiments/beast_fmri_test/images/redB.png'></img>	go	2650.0	3.0	10.0	go	non-target	B	71,Index Finger	89,Middle Finger	200.0	100.0	2550.0	2650.0	0.0	100.0	0.0	n/a	ITI
275705	500.0	n/a	-1	-1	500	0.0	fixation	poldrack-single-stim	124	374143	0.0-9.11-0.11	beast_fmri_test	330	373711,/	t	<div class = centerbox2><div class = fixation>+</div></div>	none	500.0	test	n/a	n/a	n/a	n/a	n/a	n/a	n/a	n/a	n/a	n/a	n/a	n/a	n/a	n/a	n/a	n/a	n/a	n/a	fixation
274190.84786534472	2750.0	n/a	984	71	2750	1518.15213466	stim	stop-signal	125	376897	0.0-9.11-1.11	beast_fmri_test	330	374391,/,375070,/,375750,/,376430,/,377108,/,377789,/	t,t,t,t,t,t	<img class = center src='/static/experiments/beast_fmri_test/images/T.png'></img>	71,89	2750.0	test	<img class = center src='/static/experiments/beast_fmri_test/images/redT.png'></img>	go	2650.0	3.0	11.0	go	non-target	T	71,Index Finger	89,Middle Finger	200.0	100.0	2550.0	2650.0	0.0	100.0	0.0	n/a	go_stim
276940.84786534472	1518.15213466	n/a	984	71	2750	1518.15213466	stim	stop-signal	125	376897	0.0-9.11-1.11	beast_fmri_test	330	374391,/,375070,/,375750,/,376430,/,377108,/,377789,/	t,t,t,t,t,t	<img class = center src='/static/experiments/beast_fmri_test/images/T.png'></img>	71,89	2750.0	test	<img class = center src='/static/experiments/beast_fmri_test/images/redT.png'></img>	go	2650.0	3.0	11.0	go	non-target	T	71,Index Finger	89,Middle Finger	200.0	100.0	2550.0	2650.0	0.0	100.0	0.0	n/a	ITI
280494	500.0	n/a	-1	-1	500	0.0	fixation	poldrack-single-stim	126	378932	0.0-9.12-0.12	beast_fmri_test	330	378469,/	t	<div class = centerbox2><div class = fixation>+</div></div>	none	500.0	test	n/a	n/a	n/a	n/a	n/a	n/a	n/a	n/a	n/a	n/a	n/a	n/a	n/a	n/a	n/a	n/a	n/a	n/a	fixation
280403.82934301847	2750.0	n/a	991	71	2750	91.1706569816	stim	stop-signal	127	381683	0.0-9.12-1.12	beast_fmri_test	330	379149,/,379828,/,380508,/,381186,/	t,t,t,t	<img class = center src='/static/experiments/beast_fmri_test/images/P.png'></img>	71,89	2750.0	test	<img class = center src='/static/experiments/beast_fmri_test/images/redP.png'></img>	go	2550.0	3.0	12.0	go	target	P	71,Index Finger	89,Middle Finger	200.0	100.0	2550.0	2650.0	1.0	200.0	1.0	n/a	go_stim
283153.82934301847	91.1706569816	n/a	991	71	2750	91.1706569816	stim	stop-signal	127	381683	0.0-9.12-1.12	beast_fmri_test	330	379149,/,379828,/,380508,/,381186,/	t,t,t,t	<img class = center src='/static/experiments/beast_fmri_test/images/P.png'></img>	71,89	2750.0	test	<img class = center src='/static/experiments/beast_fmri_test/images/redP.png'></img>	go	2550.0	3.0	12.0	go	target	P	71,Index Finger	89,Middle Finger	200.0	100.0	2550.0	2650.0	1.0	200.0	1.0	n/a	ITI
283858	500.0	n/a	-1	-1	500	0.0	fixation	poldrack-single-stim	128	382296	0.0-9.13-0.13	beast_fmri_test	330	381867,/	t	<div class = centerbox2><div class = fixation>+</div></div>	none	500.0	test	n/a	n/a	n/a	n/a	n/a	n/a	n/a	n/a	n/a	n/a	n/a	n/a	n/a	n/a	n/a	n/a	n/a	n/a	fixation
283724.17031752161	200.0	n/a	999	71	2750	135.829682478	stim	stop-signal	129	385048	0.0-9.13-1.13	beast_fmri_test	330	382546,/,383226,/,383906,/,384586,/	t,t,t,t	<img class = center src='/static/experiments/beast_fmri_test/images/B.png'></img>	71,89	2750.0	test	<img class = center src='/static/experiments/beast_fmri_test/images/redB.png'></img>	stop	2550.0	3.0	13.0	stop	target	B	71,Index Finger	89,Middle Finger	200.0	100.0	2550.0	2650.0	0.0	200.0	n/a	0.0	go_stim
286274.17031752161	2550.0	n/a	999	71	2750	135.829682478	stim	stop-signal	129	385048	0.0-9.13-1.13	beast_fmri_test	330	382546,/,383226,/,383906,/,384586,/	t,t,t,t	<img class = center src='/static/experiments/beast_fmri_test/images/B.png'></img>	71,89	2750.0	test	<img class = center src='/static/experiments/beast_fmri_test/images/redB.png'></img>	stop	2550.0	3.0	13.0	stop	target	B	71,Index Finger	89,Middle Finger	200.0	100.0	2550.0	2650.0	0.0	200.0	n/a	0.0	stop_stim
286474.17031752161	135.829682478	n/a	999	71	2750	135.829682478	stim	stop-signal	129	385048	0.0-9.13-1.13	beast_fmri_test	330	382546,/,383226,/,383906,/,384586,/	t,t,t,t	<img class = center src='/static/experiments/beast_fmri_test/images/B.png'></img>	71,89	2750.0	test	<img class = center src='/static/experiments/beast_fmri_test/images/redB.png'></img>	stop	2550.0	3.0	13.0	stop	target	B	71,Index Finger	89,Middle Finger	200.0	100.0	2550.0	2650.0	0.0	200.0	n/a	0.0	ITI
287264	500.0	n/a	-1	-1	500	0.0	fixation	poldrack-single-stim	130	385702	0.0-9.14-0.14	beast_fmri_test	330	385265,/	t	<div class = centerbox2><div class = fixation>+</div></div>	none	500.0	test	n/a	n/a	n/a	n/a	n/a	n/a	n/a	n/a	n/a	n/a	n/a	n/a	n/a	n/a	n/a	n/a	n/a	n/a	fixation
286760.21564858686	2750.0	n/a	1022	89	2750	506.784351413	stim	stop-signal	131	388455	0.0-9.14-1.14	beast_fmri_test	330	385945,/,386627,/,387305,/,387984,/,388664,/	t,t,t,t,t	<img class = center src='/static/experiments/beast_fmri_test/images/V.png'></img>	71,89	2750.0	test	<img class = center src='/static/experiments/beast_fmri_test/images/redV.png'></img>	go	2650.0	3.0	14.0	go	non-target	V	71,Index Finger	89,Middle Finger	150.0	100.0	2550.0	2650.0	1.0	100.0	1.0	n/a	go_stim
289510.21564858686	506.784351413	n/a	1022	89	2750	506.784351413	stim	stop-signal	131	388455	0.0-9.14-1.14	beast_fmri_test	330	385945,/,386627,/,387305,/,387984,/,388664,/	t,t,t,t,t	<img class = center src='/static/experiments/beast_fmri_test/images/V.png'></img>	71,89	2750.0	test	<img class = center src='/static/experiments/beast_fmri_test/images/redV.png'></img>	go	2650.0	3.0	14.0	go	non-target	V	71,Index Finger	89,Middle Finger	150.0	100.0	2550.0	2650.0	1.0	100.0	1.0	n/a	ITI
291043	500.0	n/a	-1	-1	500	0.0	fixation	poldrack-single-stim	132	389481	0.0-9.15-0.15	beast_fmri_test	330	389344,/	t	<div class = centerbox2><div class = fixation>+</div></div>	none	500.0	test	n/a	n/a	n/a	n/a	n/a	n/a	n/a	n/a	n/a	n/a	n/a	n/a	n/a	n/a	n/a	n/a	n/a	n/a	fixation
290581.15013667027	150.0	n/a	870	71	2750	462.84986333	stim	stop-signal	133	392232	0.0-9.15-1.15	beast_fmri_test	330	390023,/,390702,/,391382,/,392061,/	t,t,t,t	<img class = center src='/static/experiments/beast_fmri_test/images/P.png'></img>	71,89	2750.0	test	<img class = center src='/static/experiments/beast_fmri_test/images/redP.png'></img>	stop	2600.0	3.0	15.0	stop	target	P	71,Index Finger	89,Middle Finger	150.0	100.0	2600.0	2650.0	0.0	150.0	n/a	0.0	go_stim
293181.15013667027	2600.0	n/a	870	71	2750	462.84986333	stim	stop-signal	133	392232	0.0-9.15-1.15	beast_fmri_test	330	390023,/,390702,/,391382,/,392061,/	t,t,t,t	<img class = center src='/static/experiments/beast_fmri_test/images/P.png'></img>	71,89	2750.0	test	<img class = center src='/static/experiments/beast_fmri_test/images/redP.png'></img>	stop	2600.0	3.0	15.0	stop	target	P	71,Index Finger	89,Middle Finger	150.0	100.0	2600.0	2650.0	0.0	150.0	n/a	0.0	stop_stim
293331.15013667027	462.84986333	n/a	870	71	2750	462.84986333	stim	stop-signal	133	392232	0.0-9.15-1.15	beast_fmri_test	330	390023,/,390702,/,391382,/,392061,/	t,t,t,t	<img class = center src='/static/experiments/beast_fmri_test/images/P.png'></img>	71,89	2750.0	test	<img class = center src='/static/experiments/beast_fmri_test/images/redP.png'></img>	stop	2600.0	3.0	15.0	stop	target	P	71,Index Finger	89,Middle Finger	150.0	100.0	2600.0	2650.0	0.0	150.0	n/a	0.0	ITI
294777	500.0	n/a	-1	-1	500	0.0	fixation	poldrack-single-stim	134	393215	0.0-9.16-0.16	beast_fmri_test	330	392743,/	t	<div class = centerbox2><div class = fixation>+</div></div>	none	500.0	test	n/a	n/a	n/a	n/a	n/a	n/a	n/a	n/a	n/a	n/a	n/a	n/a	n/a	n/a	n/a	n/a	n/a	n/a	fixation
294702.99432940199	100.0	n/a	626	89	2750	76.005670598	stim	stop-signal	135	395967	0.0-9.16-1.16	beast_fmri_test	330	393421,/,394101,/,394781,/,395460,/	t,t,t,t	<img class = center src='/static/experiments/beast_fmri_test/images/T.png'></img>	71,89	2750.0	test	<img class = center src='/static/experiments/beast_fmri_test/images/redT.png'></img>	stop	2650.0	3.0	16.0	stop	non-target	T	71,Index Finger	89,Middle Finger	100.0	100.0	2600.0	2650.0	0.0	100.0	n/a	0.0	go_stim
297352.99432940199	2650.0	n/a	626	89	2750	76.005670598	stim	stop-signal	135	395967	0.0-9.16-1.16	beast_fmri_test	330	393421,/,394101,/,394781,/,395460,/	t,t,t,t	<img class = center src='/static/experiments/beast_fmri_test/images/T.png'></img>	71,89	2750.0	test	<img class = center src='/static/experiments/beast_fmri_test/images/redT.png'></img>	stop	2650.0	3.0	16.0	stop	non-target	T	71,Index Finger	89,Middle Finger	100.0	100.0	2600.0	2650.0	0.0	100.0	n/a	0.0	stop_stim
297452.99432940199	76.005670598	n/a	626	89	2750	76.005670598	stim	stop-signal	135	395967	0.0-9.16-1.16	beast_fmri_test	330	393421,/,394101,/,394781,/,395460,/	t,t,t,t	<img class = center src='/static/experiments/beast_fmri_test/images/T.png'></img>	71,89	2750.0	test	<img class = center src='/static/experiments/beast_fmri_test/images/redT.png'></img>	stop	2650.0	3.0	16.0	stop	non-target	T	71,Index Finger	89,Middle Finger	100.0	100.0	2600.0	2650.0	0.0	100.0	n/a	0.0	ITI
298129	500.0	n/a	-1	-1	500	0.0	fixation	poldrack-single-stim	136	396567	0.0-9.17-0.17	beast_fmri_test	330	396139,/	t	<div class = centerbox2><div class = fixation>+</div></div>	none	500.0	test	n/a	n/a	n/a	n/a	n/a	n/a	n/a	n/a	n/a	n/a	n/a	n/a	n/a	n/a	n/a	n/a	n/a	n/a	fixation
297414.0828528264	2750.0	n/a	871	89	2750	715.917147174	stim	stop-signal	137	399318	0.0-9.17-1.17	beast_fmri_test	330	396820,/,397499,/,398180,/,398859,/,399538,/	t,t,t,t,t	<img class = center src='/static/experiments/beast_fmri_test/images/V.png'></img>	71,89	2750.0	test	<img class = center src='/static/experiments/beast_fmri_test/images/redV.png'></img>	go	2650.0	3.0	17.0	go	target	V	71,Index Finger	89,Middle Finger	100.0	50.0	2650.0	2650.0	0.0	100.0	0.0	n/a	go_stim
300164.0828528264	715.917147174	n/a	871	89	2750	715.917147174	stim	stop-signal	137	399318	0.0-9.17-1.17	beast_fmri_test	330	396820,/,397499,/,398180,/,398859,/,399538,/	t,t,t,t,t	<img class = center src='/static/experiments/beast_fmri_test/images/V.png'></img>	71,89	2750.0	test	<img class = center src='/static/experiments/beast_fmri_test/images/redV.png'></img>	go	2650.0	3.0	17.0	go	target	V	71,Index Finger	89,Middle Finger	100.0	50.0	2650.0	2650.0	0.0	100.0	0.0	n/a	ITI
302117	500.0	n/a	-1	-1	500	0.0	fixation	poldrack-single-stim	138	400555	0.0-9.18-0.18	beast_fmri_test	330	400219,/	t	<div class = centerbox2><div class = fixation>+</div></div>	none	500.0	test	n/a	n/a	n/a	n/a	n/a	n/a	n/a	n/a	n/a	n/a	n/a	n/a	n/a	n/a	n/a	n/a	n/a	n/a	fixation
301833.75699542917	2750.0	n/a	1051	89	2750	285.243004571	stim	stop-signal	139	403307	0.0-9.18-1.18	beast_fmri_test	330	400899,/,401578,/,402258,/,402937,/	t,t,t,t	<img class = center src='/static/experiments/beast_fmri_test/images/V.png'></img>	71,89	2750.0	test	<img class = center src='/static/experiments/beast_fmri_test/images/redV.png'></img>	go	2700.0	3.0	18.0	go	non-target	V	71,Index Finger	89,Middle Finger	100.0	50.0	2650.0	2700.0	1.0	50.0	1.0	n/a	go_stim
304583.75699542917	285.243004571	n/a	1051	89	2750	285.243004571	stim	stop-signal	139	403307	0.0-9.18-1.18	beast_fmri_test	330	400899,/,401578,/,402258,/,402937,/	t,t,t,t	<img class = center src='/static/experiments/beast_fmri_test/images/V.png'></img>	71,89	2750.0	test	<img class = center src='/static/experiments/beast_fmri_test/images/redV.png'></img>	go	2700.0	3.0	18.0	go	non-target	V	71,Index Finger	89,Middle Finger	100.0	50.0	2650.0	2700.0	1.0	50.0	1.0	n/a	ITI
305673	500.0	n/a	-1	-1	500	0.0	fixation	poldrack-single-stim	140	404111	0.0-9.19-0.19	beast_fmri_test	330	403617,/	t	<div class = centerbox2><div class = fixation>+</div></div>	none	500.0	test	n/a	n/a	n/a	n/a	n/a	n/a	n/a	n/a	n/a	n/a	n/a	n/a	n/a	n/a	n/a	n/a	n/a	n/a	fixation
304045.62392462301	50.0	n/a	1020	89	2750	1628.37607538	stim	stop-signal	141	406862	0.0-9.19-1.19	beast_fmri_test	330	404297,/,404976,/,405658,/,406336,/,407016,/,407695,/,408375,/	t,t,t,t,t,t,t	<img class = center src='/static/experiments/beast_fmri_test/images/P.png'></img>	71,89	2750.0	test	<img class = center src='/static/experiments/beast_fmri_test/images/redP.png'></img>	stop	2700.0	3.0	19.0	stop	non-target	P	71,Index Finger	89,Middle Finger	100.0	50.0	2650.0	2700.0	0.0	50.0	n/a	0.0	go_stim
306745.62392462301	2700.0	n/a	1020	89	2750	1628.37607538	stim	stop-signal	141	406862	0.0-9.19-1.19	beast_fmri_test	330	404297,/,404976,/,405658,/,406336,/,407016,/,407695,/,408375,/	t,t,t,t,t,t,t	<img class = center src='/static/experiments/beast_fmri_test/images/P.png'></img>	71,89	2750.0	test	<img class = center src='/static/experiments/beast_fmri_test/images/redP.png'></img>	stop	2700.0	3.0	19.0	stop	non-target	P	71,Index Finger	89,Middle Finger	100.0	50.0	2650.0	2700.0	0.0	50.0	n/a	0.0	stop_stim
306795.62392462301	1628.37607538	n/a	1020	89	2750	1628.37607538	stim	stop-signal	141	406862	0.0-9.19-1.19	beast_fmri_test	330	404297,/,404976,/,405658,/,406336,/,407016,/,407695,/,408375,/	t,t,t,t,t,t,t	<img class = center src='/static/experiments/beast_fmri_test/images/P.png'></img>	71,89	2750.0	test	<img class = center src='/static/experiments/beast_fmri_test/images/redP.png'></img>	stop	2700.0	3.0	19.0	stop	non-target	P	71,Index Finger	89,Middle Finger	100.0	50.0	2650.0	2700.0	0.0	50.0	n/a	0.0	ITI
310575	500.0	n/a	-1	-1	500	0.0	fixation	poldrack-single-stim	142	409013	0.0-9.20-0.20	beast_fmri_test	330	n/a	n/a	<div class = centerbox2><div class = fixation>+</div></div>	none	500.0	test	n/a	n/a	n/a	n/a	n/a	n/a	n/a	n/a	n/a	n/a	n/a	n/a	n/a	n/a	n/a	n/a	n/a	n/a	fixation
309720.01952490257	100.0	n/a	641	71	2750	856.980475097	stim	stop-signal	143	411765	0.0-9.20-1.20	beast_fmri_test	330	409054,/,409734,/,410415,/,411094,/,411776,/,412453,/	t,t,t,t,t,t	<img class = center src='/static/experiments/beast_fmri_test/images/V.png'></img>	71,89	2750.0	test	<img class = center src='/static/experiments/beast_fmri_test/images/redV.png'></img>	stop	2650.0	3.0	20.0	stop	target	V	71,Index Finger	89,Middle Finger	100.0	0.0	2650.0	2700.0	0.0	100.0	n/a	0.0	go_stim
312370.01952490257	2650.0	n/a	641	71	2750	856.980475097	stim	stop-signal	143	411765	0.0-9.20-1.20	beast_fmri_test	330	409054,/,409734,/,410415,/,411094,/,411776,/,412453,/	t,t,t,t,t,t	<img class = center src='/static/experiments/beast_fmri_test/images/V.png'></img>	71,89	2750.0	test	<img class = center src='/static/experiments/beast_fmri_test/images/redV.png'></img>	stop	2650.0	3.0	20.0	stop	target	V	71,Index Finger	89,Middle Finger	100.0	0.0	2650.0	2700.0	0.0	100.0	n/a	0.0	stop_stim
312470.01952490257	856.980475097	n/a	641	71	2750	856.980475097	stim	stop-signal	143	411765	0.0-9.20-1.20	beast_fmri_test	330	409054,/,409734,/,410415,/,411094,/,411776,/,412453,/	t,t,t,t,t,t	<img class = center src='/static/experiments/beast_fmri_test/images/V.png'></img>	71,89	2750.0	test	<img class = center src='/static/experiments/beast_fmri_test/images/redV.png'></img>	stop	2650.0	3.0	20.0	stop	target	V	71,Index Finger	89,Middle Finger	100.0	0.0	2650.0	2700.0	0.0	100.0	n/a	0.0	ITI
314708	500.0	n/a	-1	-1	500	0.0	fixation	poldrack-single-stim	144	413146	0.0-9.21-0.21	beast_fmri_test	330	413133,/	t	<div class = centerbox2><div class = fixation>+</div></div>	none	500.0	test	n/a	n/a	n/a	n/a	n/a	n/a	n/a	n/a	n/a	n/a	n/a	n/a	n/a	n/a	n/a	n/a	n/a	n/a	fixation
313873.10979381221	2750.0	n/a	606	89	2750	837.890206188	stim	stop-signal	145	415899	0.0-9.21-1.21	beast_fmri_test	330	413812,/,414491,/,415171,/,415851,/,416532,/	t,t,t,t,t	<img class = center src='/static/experiments/beast_fmri_test/images/D.png'></img>	71,89	2750.0	test	<img class = center src='/static/experiments/beast_fmri_test/images/redD.png'></img>	go	2750.0	3.0	21.0	go	non-target	D	71,Index Finger	89,Middle Finger	50.0	0.0	2650.0	2750.0	1.0	0.0	1.0	n/a	go_stim
316623.10979381221	837.890206188	n/a	606	89	2750	837.890206188	stim	stop-signal	145	415899	0.0-9.21-1.21	beast_fmri_test	330	413812,/,414491,/,415171,/,415851,/,416532,/	t,t,t,t,t	<img class = center src='/static/experiments/beast_fmri_test/images/D.png'></img>	71,89	2750.0	test	<img class = center src='/static/experiments/beast_fmri_test/images/redD.png'></img>	go	2750.0	3.0	21.0	go	non-target	D	71,Index Finger	89,Middle Finger	50.0	0.0	2650.0	2750.0	1.0	0.0	1.0	n/a	ITI
318817	500.0	n/a	-1	-1	500	0.0	fixation	poldrack-single-stim	146	417255	0.0-9.22-0.22	beast_fmri_test	330	417211,/	t	<div class = centerbox2><div class = fixation>+</div></div>	none	500.0	test	n/a	n/a	n/a	n/a	n/a	n/a	n/a	n/a	n/a	n/a	n/a	n/a	n/a	n/a	n/a	n/a	n/a	n/a	fixation
317718.90992978017	0.0	n/a	607	89	2750	1099.09007022	stim	stop-signal	147	420006	0.0-9.22-1.22	beast_fmri_test	330	417889,/,418569,/,419249,/,419930,/,420609,/	t,t,t,t,t	<img class = center src='/static/experiments/beast_fmri_test/images/B.png'></img>	71,89	2750.0	test	<img class = center src='/static/experiments/beast_fmri_test/images/redB.png'></img>	stop	2750.0	3.0	22.0	stop	non-target	B	71,Index Finger	89,Middle Finger	50.0	0.0	2650.0	2750.0	0.0	0.0	n/a	0.0	go_stim
320468.90992978017	2750.0	n/a	607	89	2750	1099.09007022	stim	stop-signal	147	420006	0.0-9.22-1.22	beast_fmri_test	330	417889,/,418569,/,419249,/,419930,/,420609,/	t,t,t,t,t	<img class = center src='/static/experiments/beast_fmri_test/images/B.png'></img>	71,89	2750.0	test	<img class = center src='/static/experiments/beast_fmri_test/images/redB.png'></img>	stop	2750.0	3.0	22.0	stop	non-target	B	71,Index Finger	89,Middle Finger	50.0	0.0	2650.0	2750.0	0.0	0.0	n/a	0.0	stop_stim
320468.90992978017	1099.09007022	n/a	607	89	2750	1099.09007022	stim	stop-signal	147	420006	0.0-9.22-1.22	beast_fmri_test	330	417889,/,418569,/,419249,/,419930,/,420609,/	t,t,t,t,t	<img class = center src='/static/experiments/beast_fmri_test/images/B.png'></img>	71,89	2750.0	test	<img class = center src='/static/experiments/beast_fmri_test/images/redB.png'></img>	stop	2750.0	3.0	22.0	stop	non-target	B	71,Index Finger	89,Middle Finger	50.0	0.0	2650.0	2750.0	0.0	0.0	n/a	0.0	ITI
