onset	duration	text	rt	key_press	block_duration	timing_post_trial	trial_id	trial_type	trial_index	time_elapsed	internal_node_id	exp_id	subject_id	trigger_times	triggers	stimulus	possible_responses	stim_duration	exp_stage	SS_stimulus	SS_trial_type	SS_duration	load	trial_num	stop_trial_type	adaptive_trial_type	stim	yes_response_key	no_response_key	SSD_target	SSD_non_target	SSTarget	SSNonTarget	go_acc	SS_delay	adaptive_acc	stop_acc	new_trial_type
test	10880	n/a	-1	-1	10880	0.0	practice-no-stop-feedback	poldrack-single-stim	576	1626321	0.0-22.0	beast_fmri_test	306	26.924083333333332,26.935383333333334,26.946716666666667,26.95805,26.969383333333333,26.9807,26.992066666666666,27.0034,27.014716666666665,27.02605,27.0374,27.0487,27.06,27.071316666666668,27.08265,27.093983333333334,27.105316666666667	t,t,t,t,t,t,t,t,t,t,t,t,t,t,t,t,t	"<div class = ""centerbox""><p class = ""center-block-text"">Your delay is 2 trials.</p><p class = center-block-text>Please wait for the scanner to start the block</p></div>"	77	10880.0	n/a	n/a	n/a	n/a	n/a	n/a	n/a	n/a	n/a	n/a	n/a	n/a	n/a	n/a	n/a	n/a	n/a	n/a	n/a	start_functional_block
11378.0	500	n/a	-1	-1	500	0.0	fixation	poldrack-single-stim	577	1626823	0.0-23.0-0.0	beast_fmri_test	306	n/a	n/a	<div class = centerbox><div class = fixation>+</div></div>	none	500.0	test	n/a	n/a	n/a	n/a	n/a	n/a	n/a	n/a	n/a	n/a	n/a	n/a	n/a	n/a	n/a	n/a	n/a	n/a	fixation
10213.323498589685	temp_go_duration	n/a	399	89	2750	1167.67650141	stim	stop-signal	578	1629576	0.0-23.0-1.0	beast_fmri_test	306	27.116633333333333,27.12795,27.1393,27.15063333333333,27.16195,27.17331666666667	t,t,t,t,t,t	<img class = center src='/static/experiments/beast_fmri_test/images/T.png'></img>	71,89	2750.0	test	<img class = center src='/static/experiments/beast_fmri_test/images/redT.png'></img>	stop	-1.0	2.0	0.0	stop	temp-non-target	T	71,Green Button	89,Yellow Button	400.0	400.0	2400.0	2350.0	0.0	n/a	n/a	0.0	go_stim
temp-non-target	temp_stop_duration	n/a	399	89	2750	1167.67650141	stim	stop-signal	578	1629576	0.0-23.0-1.0	beast_fmri_test	306	27.116633333333333,27.12795,27.1393,27.15063333333333,27.16195,27.17331666666667	t,t,t,t,t,t	<img class = center src='/static/experiments/beast_fmri_test/images/T.png'></img>	71,89	2750.0	test	<img class = center src='/static/experiments/beast_fmri_test/images/redT.png'></img>	stop	-1.0	2.0	0.0	stop	temp-non-target	T	71,Green Button	89,Yellow Button	400.0	400.0	2400.0	2350.0	0.0	n/a	n/a	0.0	stop_stim
12963.323498589685	1167.6765014102964	n/a	399	89	2750	1167.67650141	stim	stop-signal	578	1629576	0.0-23.0-1.0	beast_fmri_test	306	27.116633333333333,27.12795,27.1393,27.15063333333333,27.16195,27.17331666666667	t,t,t,t,t,t	<img class = center src='/static/experiments/beast_fmri_test/images/T.png'></img>	71,89	2750.0	test	<img class = center src='/static/experiments/beast_fmri_test/images/redT.png'></img>	stop	-1.0	2.0	0.0	stop	temp-non-target	T	71,Green Button	89,Yellow Button	400.0	400.0	2400.0	2350.0	0.0	n/a	n/a	0.0	ITI
15857.0	500	n/a	-1	-1	500	0.0	fixation	poldrack-single-stim	579	1631302	0.0-23.1-0.1	beast_fmri_test	306	27.18465	t	<div class = centerbox><div class = fixation>+</div></div>	none	500.0	test	n/a	n/a	n/a	n/a	n/a	n/a	n/a	n/a	n/a	n/a	n/a	n/a	n/a	n/a	n/a	n/a	n/a	n/a	fixation
13813.521576477215	2750	n/a	292	89	2750	2041.47842352	stim	stop-signal	580	1634050	0.0-23.1-1.1	beast_fmri_test	306	27.195983333333334,27.2073,27.218616666666666,27.229883333333333,27.241233333333334,27.252566666666667,27.2639	t,t,t,t,t,t,t	<img class = center src='/static/experiments/beast_fmri_test/images/B.png'></img>	71,89	2750.0	test	<img class = center src='/static/experiments/beast_fmri_test/images/redB.png'></img>	go	-1.0	2.0	1.0	go	temp-non-target	B	71,Green Button	89,Yellow Button	400.0	400.0	2400.0	2350.0	0.0	n/a	n/a	n/a	go_stim
16563.521576477215	2041.4784235228369	n/a	292	89	2750	2041.47842352	stim	stop-signal	580	1634050	0.0-23.1-1.1	beast_fmri_test	306	27.195983333333334,27.2073,27.218616666666666,27.229883333333333,27.241233333333334,27.252566666666667,27.2639	t,t,t,t,t,t,t	<img class = center src='/static/experiments/beast_fmri_test/images/B.png'></img>	71,89	2750.0	test	<img class = center src='/static/experiments/beast_fmri_test/images/redB.png'></img>	go	-1.0	2.0	1.0	go	temp-non-target	B	71,Green Button	89,Yellow Button	400.0	400.0	2400.0	2350.0	0.0	n/a	n/a	n/a	ITI
21205.0	500	n/a	-1	-1	500	0.0	fixation	poldrack-single-stim	581	1636650	0.0-23.2-0.2	beast_fmri_test	306	27.275233333333333	t	<div class = centerbox><div class = fixation>+</div></div>	none	500.0	test	n/a	n/a	n/a	n/a	n/a	n/a	n/a	n/a	n/a	n/a	n/a	n/a	n/a	n/a	n/a	n/a	n/a	n/a	fixation
18723.353394745616	2750	n/a	473	89	2750	2484.64660525	stim	stop-signal	582	1639403	0.0-23.2-1.2	beast_fmri_test	306	27.286566666666666,27.2979,27.309216666666668,27.320566666666668,27.3319,27.343233333333334,27.354566666666667	t,t,t,t,t,t,t	<img class = center src='/static/experiments/beast_fmri_test/images/B.png'></img>	71,89	2750.0	test	<img class = center src='/static/experiments/beast_fmri_test/images/redB.png'></img>	go	2350.0	2.0	2.0	go	non-target	B	71,Green Button	89,Yellow Button	400.0	400.0	2400.0	2350.0	1.0	400.0	1.0	n/a	go_stim
21473.353394745616	2484.6466052542919	n/a	473	89	2750	2484.64660525	stim	stop-signal	582	1639403	0.0-23.2-1.2	beast_fmri_test	306	27.286566666666666,27.2979,27.309216666666668,27.320566666666668,27.3319,27.343233333333334,27.354566666666667	t,t,t,t,t,t,t	<img class = center src='/static/experiments/beast_fmri_test/images/B.png'></img>	71,89	2750.0	test	<img class = center src='/static/experiments/beast_fmri_test/images/redB.png'></img>	go	2350.0	2.0	2.0	go	non-target	B	71,Green Button	89,Yellow Button	400.0	400.0	2400.0	2350.0	1.0	400.0	1.0	n/a	ITI
27002.0	500	n/a	-1	-1	500	0.0	fixation	poldrack-single-stim	583	1642447	0.0-23.3-0.3	beast_fmri_test	306	27.365883333333333	t	<div class = centerbox><div class = fixation>+</div></div>	none	500.0	test	n/a	n/a	n/a	n/a	n/a	n/a	n/a	n/a	n/a	n/a	n/a	n/a	n/a	n/a	n/a	n/a	n/a	n/a	fixation
25078.421203590697	2750	n/a	523	89	2750	1921.57879641	stim	stop-signal	584	1645195	0.0-23.3-1.3	beast_fmri_test	306	27.377216666666666,27.388483333333333,27.399816666666666,27.411133333333332,27.422483333333332,27.433816666666665,27.44515	t,t,t,t,t,t,t	<img class = center src='/static/experiments/beast_fmri_test/images/P.png'></img>	71,89	2750.0	test	<img class = center src='/static/experiments/beast_fmri_test/images/redP.png'></img>	go	2350.0	2.0	3.0	go	non-target	P	71,Green Button	89,Yellow Button	400.0	400.0	2400.0	2350.0	1.0	400.0	1.0	n/a	go_stim
27828.421203590697	1921.5787964092804	n/a	523	89	2750	1921.57879641	stim	stop-signal	584	1645195	0.0-23.3-1.3	beast_fmri_test	306	27.377216666666666,27.388483333333333,27.399816666666666,27.411133333333332,27.422483333333332,27.433816666666665,27.44515	t,t,t,t,t,t,t	<img class = center src='/static/experiments/beast_fmri_test/images/P.png'></img>	71,89	2750.0	test	<img class = center src='/static/experiments/beast_fmri_test/images/redP.png'></img>	go	2350.0	2.0	3.0	go	non-target	P	71,Green Button	89,Yellow Button	400.0	400.0	2400.0	2350.0	1.0	400.0	1.0	n/a	ITI
32237.0	500	n/a	-1	-1	500	0.0	fixation	poldrack-single-stim	585	1647682	0.0-23.4-0.4	beast_fmri_test	306	27.456483333333335	t	<div class = centerbox><div class = fixation>+</div></div>	none	500.0	test	n/a	n/a	n/a	n/a	n/a	n/a	n/a	n/a	n/a	n/a	n/a	n/a	n/a	n/a	n/a	n/a	n/a	n/a	fixation
31922.229214552324	400.0	n/a	458	89	2750	318.770785448	stim	stop-signal	586	1650436	0.0-23.4-1.4	beast_fmri_test	306	27.467816666666668,27.47915,27.490483333333334,27.501816666666667	t,t,t,t	<img class = center src='/static/experiments/beast_fmri_test/images/T.png'></img>	71,89	2750.0	test	<img class = center src='/static/experiments/beast_fmri_test/images/redT.png'></img>	stop	2350.0	2.0	4.0	stop	non-target	T	71,Green Button	89,Yellow Button	400.0	400.0	2400.0	2350.0	0.0	400.0	1.0	0.0	go_stim
34272.229214552324	2350.0	n/a	458	89	2750	318.770785448	stim	stop-signal	586	1650436	0.0-23.4-1.4	beast_fmri_test	306	27.467816666666668,27.47915,27.490483333333334,27.501816666666667	t,t,t,t	<img class = center src='/static/experiments/beast_fmri_test/images/T.png'></img>	71,89	2750.0	test	<img class = center src='/static/experiments/beast_fmri_test/images/redT.png'></img>	stop	2350.0	2.0	4.0	stop	non-target	T	71,Green Button	89,Yellow Button	400.0	400.0	2400.0	2350.0	0.0	400.0	1.0	0.0	stop_stim
34672.229214552324	318.7707854476597	n/a	458	89	2750	318.770785448	stim	stop-signal	586	1650436	0.0-23.4-1.4	beast_fmri_test	306	27.467816666666668,27.47915,27.490483333333334,27.501816666666667	t,t,t,t	<img class = center src='/static/experiments/beast_fmri_test/images/T.png'></img>	71,89	2750.0	test	<img class = center src='/static/experiments/beast_fmri_test/images/redT.png'></img>	stop	2350.0	2.0	4.0	stop	non-target	T	71,Green Button	89,Yellow Button	400.0	400.0	2400.0	2350.0	0.0	400.0	1.0	0.0	ITI
35865.0	500	n/a	-1	-1	500	0.0	fixation	poldrack-single-stim	587	1651310	0.0-23.5-0.5	beast_fmri_test	306	27.5135	t	<div class = centerbox><div class = fixation>+</div></div>	none	500.0	test	n/a	n/a	n/a	n/a	n/a	n/a	n/a	n/a	n/a	n/a	n/a	n/a	n/a	n/a	n/a	n/a	n/a	n/a	fixation
35672.684922299813	350.0	n/a	425	89	2750	189.3150777	stim	stop-signal	588	1654057	0.0-23.5-1.5	beast_fmri_test	306	27.5245,27.535816666666665,27.54715,27.558416666666666,27.56975	t,t,t,t,t	<img class = center src='/static/experiments/beast_fmri_test/images/V.png'></img>	71,89	2750.0	test	<img class = center src='/static/experiments/beast_fmri_test/images/redV.png'></img>	stop	2400.0	2.0	5.0	stop	non-target	V	71,Green Button	89,Yellow Button	400.0	350.0	2400.0	2400.0	0.0	350.0	1.0	0.0	go_stim
38072.684922299813	2400.0	n/a	425	89	2750	189.3150777	stim	stop-signal	588	1654057	0.0-23.5-1.5	beast_fmri_test	306	27.5245,27.535816666666665,27.54715,27.558416666666666,27.56975	t,t,t,t,t	<img class = center src='/static/experiments/beast_fmri_test/images/V.png'></img>	71,89	2750.0	test	<img class = center src='/static/experiments/beast_fmri_test/images/redV.png'></img>	stop	2400.0	2.0	5.0	stop	non-target	V	71,Green Button	89,Yellow Button	400.0	350.0	2400.0	2400.0	0.0	350.0	1.0	0.0	stop_stim
38422.684922299813	189.31507770017231	n/a	425	89	2750	189.3150777	stim	stop-signal	588	1654057	0.0-23.5-1.5	beast_fmri_test	306	27.5245,27.535816666666665,27.54715,27.558416666666666,27.56975	t,t,t,t,t	<img class = center src='/static/experiments/beast_fmri_test/images/V.png'></img>	71,89	2750.0	test	<img class = center src='/static/experiments/beast_fmri_test/images/redV.png'></img>	stop	2400.0	2.0	5.0	stop	non-target	V	71,Green Button	89,Yellow Button	400.0	350.0	2400.0	2400.0	0.0	350.0	1.0	0.0	ITI
39357.0	500	n/a	-1	-1	500	0.0	fixation	poldrack-single-stim	589	1654802	0.0-23.6-0.6	beast_fmri_test	306	n/a	n/a	<div class = centerbox><div class = fixation>+</div></div>	none	500.0	test	n/a	n/a	n/a	n/a	n/a	n/a	n/a	n/a	n/a	n/a	n/a	n/a	n/a	n/a	n/a	n/a	n/a	n/a	fixation
37872.114631797653	2750	n/a	1005	71	2750	1487.8853682	stim	stop-signal	590	1657555	0.0-23.6-1.6	beast_fmri_test	306	27.581083333333332,27.592416666666665,27.603733333333334,27.615066666666667,27.626383333333333,27.63775,27.649083333333333	t,t,t,t,t,t,t	<img class = center src='/static/experiments/beast_fmri_test/images/T.png'></img>	71,89	2750.0	test	<img class = center src='/static/experiments/beast_fmri_test/images/redT.png'></img>	go	2350.0	2.0	6.0	go	target	T	71,Green Button	89,Yellow Button	400.0	300.0	2350.0	2400.0	1.0	400.0	1.0	n/a	go_stim
40622.114631797653	1487.8853682022454	n/a	1005	71	2750	1487.8853682	stim	stop-signal	590	1657555	0.0-23.6-1.6	beast_fmri_test	306	27.581083333333332,27.592416666666665,27.603733333333334,27.615066666666667,27.626383333333333,27.63775,27.649083333333333	t,t,t,t,t,t,t	<img class = center src='/static/experiments/beast_fmri_test/images/T.png'></img>	71,89	2750.0	test	<img class = center src='/static/experiments/beast_fmri_test/images/redT.png'></img>	go	2350.0	2.0	6.0	go	target	T	71,Green Button	89,Yellow Button	400.0	300.0	2350.0	2400.0	1.0	400.0	1.0	n/a	ITI
44160.0	500	n/a	-1	-1	500	0.0	fixation	poldrack-single-stim	591	1659605	0.0-23.7-0.7	beast_fmri_test	306	n/a	n/a	<div class = centerbox><div class = fixation>+</div></div>	none	500.0	test	n/a	n/a	n/a	n/a	n/a	n/a	n/a	n/a	n/a	n/a	n/a	n/a	n/a	n/a	n/a	n/a	n/a	n/a	fixation
42644.717828961555	400.0	n/a	616	71	2750	1518.28217104	stim	stop-signal	592	1662358	0.0-23.7-1.7	beast_fmri_test	306	27.6604,27.67175,27.683066666666665,27.694383333333334,27.70575,27.71705,27.72835	t,t,t,t,t,t,t	<img class = center src='/static/experiments/beast_fmri_test/images/V.png'></img>	71,89	2750.0	test	<img class = center src='/static/experiments/beast_fmri_test/images/redV.png'></img>	stop	2350.0	2.0	7.0	stop	target	V	71,Green Button	89,Yellow Button	400.0	300.0	2350.0	2400.0	0.0	400.0	1.0	0.0	go_stim
44994.717828961555	2350.0	n/a	616	71	2750	1518.28217104	stim	stop-signal	592	1662358	0.0-23.7-1.7	beast_fmri_test	306	27.6604,27.67175,27.683066666666665,27.694383333333334,27.70575,27.71705,27.72835	t,t,t,t,t,t,t	<img class = center src='/static/experiments/beast_fmri_test/images/V.png'></img>	71,89	2750.0	test	<img class = center src='/static/experiments/beast_fmri_test/images/redV.png'></img>	stop	2350.0	2.0	7.0	stop	target	V	71,Green Button	89,Yellow Button	400.0	300.0	2350.0	2400.0	0.0	400.0	1.0	0.0	stop_stim
45394.717828961555	1518.2821710383914	n/a	616	71	2750	1518.28217104	stim	stop-signal	592	1662358	0.0-23.7-1.7	beast_fmri_test	306	27.6604,27.67175,27.683066666666665,27.694383333333334,27.70575,27.71705,27.72835	t,t,t,t,t,t,t	<img class = center src='/static/experiments/beast_fmri_test/images/V.png'></img>	71,89	2750.0	test	<img class = center src='/static/experiments/beast_fmri_test/images/redV.png'></img>	stop	2350.0	2.0	7.0	stop	target	V	71,Green Button	89,Yellow Button	400.0	300.0	2350.0	2400.0	0.0	400.0	1.0	0.0	ITI
48985.0	500	n/a	-1	-1	500	0.0	fixation	poldrack-single-stim	593	1664430	0.0-23.8-0.8	beast_fmri_test	306	27.73965	t	<div class = centerbox><div class = fixation>+</div></div>	none	500.0	test	n/a	n/a	n/a	n/a	n/a	n/a	n/a	n/a	n/a	n/a	n/a	n/a	n/a	n/a	n/a	n/a	n/a	n/a	fixation
48641.114079810912	2750	n/a	507	89	2750	346.885920189	stim	stop-signal	594	1667183	0.0-23.8-1.8	beast_fmri_test	306	27.750966666666667,27.762316666666667,27.77365,27.785	t,t,t,t	<img class = center src='/static/experiments/beast_fmri_test/images/V.png'></img>	71,89	2750.0	test	<img class = center src='/static/experiments/beast_fmri_test/images/redV.png'></img>	go	2450.0	2.0	8.0	go	non-target	V	71,Green Button	89,Yellow Button	350.0	300.0	2350.0	2450.0	1.0	300.0	1.0	n/a	go_stim
51391.114079810912	346.8859201891359	n/a	507	89	2750	346.885920189	stim	stop-signal	594	1667183	0.0-23.8-1.8	beast_fmri_test	306	27.750966666666667,27.762316666666667,27.77365,27.785	t,t,t,t	<img class = center src='/static/experiments/beast_fmri_test/images/V.png'></img>	71,89	2750.0	test	<img class = center src='/static/experiments/beast_fmri_test/images/redV.png'></img>	go	2450.0	2.0	8.0	go	non-target	V	71,Green Button	89,Yellow Button	350.0	300.0	2350.0	2450.0	1.0	300.0	1.0	n/a	ITI
52644.0	500	n/a	-1	-1	500	0.0	fixation	poldrack-single-stim	595	1668089	0.0-23.9-0.9	beast_fmri_test	306	27.796333333333333	t	<div class = centerbox><div class = fixation>+</div></div>	none	500.0	test	n/a	n/a	n/a	n/a	n/a	n/a	n/a	n/a	n/a	n/a	n/a	n/a	n/a	n/a	n/a	n/a	n/a	n/a	fixation
52109.484411929268	2750	n/a	1002	71	2750	537.515588071	stim	stop-signal	596	1670842	0.0-23.9-1.9	beast_fmri_test	306	27.807666666666666,27.819,27.830333333333332,27.84165,27.852983333333334	t,t,t,t,t	<img class = center src='/static/experiments/beast_fmri_test/images/T.png'></img>	71,89	2750.0	test	<img class = center src='/static/experiments/beast_fmri_test/images/redT.png'></img>	go	2450.0	2.0	9.0	go	non-target	T	71,Green Button	89,Yellow Button	350.0	300.0	2350.0	2450.0	0.0	300.0	0.0	n/a	go_stim
54859.484411929268	537.5155880706933	n/a	1002	71	2750	537.515588071	stim	stop-signal	596	1670842	0.0-23.9-1.9	beast_fmri_test	306	27.807666666666666,27.819,27.830333333333332,27.84165,27.852983333333334	t,t,t,t,t	<img class = center src='/static/experiments/beast_fmri_test/images/T.png'></img>	71,89	2750.0	test	<img class = center src='/static/experiments/beast_fmri_test/images/redT.png'></img>	go	2450.0	2.0	9.0	go	non-target	T	71,Green Button	89,Yellow Button	350.0	300.0	2350.0	2450.0	0.0	300.0	0.0	n/a	ITI
56495.0	500	n/a	-1	-1	500	0.0	fixation	poldrack-single-stim	597	1671940	0.0-23.10-0.10	beast_fmri_test	306	27.864316666666667	t	<div class = centerbox><div class = fixation>+</div></div>	none	500.0	test	n/a	n/a	n/a	n/a	n/a	n/a	n/a	n/a	n/a	n/a	n/a	n/a	n/a	n/a	n/a	n/a	n/a	n/a	fixation
56444.332462417427	2750	n/a	860	89	2750	49.6675375825	stim	stop-signal	598	1674689	0.0-23.10-1.10	beast_fmri_test	306	27.875666666666667,27.886966666666666,27.898233333333334,27.909583333333334	t,t,t,t	<img class = center src='/static/experiments/beast_fmri_test/images/B.png'></img>	71,89	2750.0	test	<img class = center src='/static/experiments/beast_fmri_test/images/redB.png'></img>	go	2450.0	2.0	10.0	go	non-target	B	71,Green Button	89,Yellow Button	350.0	300.0	2350.0	2450.0	1.0	300.0	1.0	n/a	go_stim
59194.332462417427	49.667537582480776	n/a	860	89	2750	49.6675375825	stim	stop-signal	598	1674689	0.0-23.10-1.10	beast_fmri_test	306	27.875666666666667,27.886966666666666,27.898233333333334,27.909583333333334	t,t,t,t	<img class = center src='/static/experiments/beast_fmri_test/images/B.png'></img>	71,89	2750.0	test	<img class = center src='/static/experiments/beast_fmri_test/images/redB.png'></img>	go	2450.0	2.0	10.0	go	non-target	B	71,Green Button	89,Yellow Button	350.0	300.0	2350.0	2450.0	1.0	300.0	1.0	n/a	ITI
59854.0	500	n/a	-1	-1	500	0.0	fixation	poldrack-single-stim	599	1675299	0.0-23.11-0.11	beast_fmri_test	306	27.920916666666667	t	<div class = centerbox><div class = fixation>+</div></div>	none	500.0	test	n/a	n/a	n/a	n/a	n/a	n/a	n/a	n/a	n/a	n/a	n/a	n/a	n/a	n/a	n/a	n/a	n/a	n/a	fixation
59083.113821737934	2750	n/a	1793	89	2750	773.886178262	stim	stop-signal	600	1678052	0.0-23.11-1.11	beast_fmri_test	306	27.93225,27.943566666666666,27.954916666666666,27.96625,27.97758333333333	t,t,t,t,t	<img class = center src='/static/experiments/beast_fmri_test/images/T.png'></img>	71,89	2750.0	test	<img class = center src='/static/experiments/beast_fmri_test/images/redT.png'></img>	go	2400.0	2.0	11.0	go	target	T	71,Green Button	89,Yellow Button	350.0	300.0	2400.0	2450.0	0.0	350.0	0.0	n/a	go_stim
61833.113821737934	773.8861782619955	n/a	1793	89	2750	773.886178262	stim	stop-signal	600	1678052	0.0-23.11-1.11	beast_fmri_test	306	27.93225,27.943566666666666,27.954916666666666,27.96625,27.97758333333333	t,t,t,t,t	<img class = center src='/static/experiments/beast_fmri_test/images/T.png'></img>	71,89	2750.0	test	<img class = center src='/static/experiments/beast_fmri_test/images/redT.png'></img>	go	2400.0	2.0	11.0	go	target	T	71,Green Button	89,Yellow Button	350.0	300.0	2400.0	2450.0	0.0	350.0	0.0	n/a	ITI
63940.0	500	n/a	-1	-1	500	0.0	fixation	poldrack-single-stim	601	1679385	0.0-23.12-0.12	beast_fmri_test	306	27.988916666666668	t	<div class = centerbox><div class = fixation>+</div></div>	none	500.0	test	n/a	n/a	n/a	n/a	n/a	n/a	n/a	n/a	n/a	n/a	n/a	n/a	n/a	n/a	n/a	n/a	n/a	n/a	fixation
63242.864907673327	2750	n/a	2129	89	2750	701.135092327	stim	stop-signal	602	1682139	0.0-23.12-1.12	beast_fmri_test	306	28.00026666666667,28.0116,28.022933333333334,28.034266666666667,28.045583333333333	t,t,t,t,t	<img class = center src='/static/experiments/beast_fmri_test/images/P.png'></img>	71,89	2750.0	test	<img class = center src='/static/experiments/beast_fmri_test/images/redP.png'></img>	go	2450.0	2.0	12.0	go	non-target	P	71,Green Button	89,Yellow Button	350.0	300.0	2400.0	2450.0	1.0	300.0	1.0	n/a	go_stim
65992.864907673327	701.13509232661329	n/a	2129	89	2750	701.135092327	stim	stop-signal	602	1682139	0.0-23.12-1.12	beast_fmri_test	306	28.00026666666667,28.0116,28.022933333333334,28.034266666666667,28.045583333333333	t,t,t,t,t	<img class = center src='/static/experiments/beast_fmri_test/images/P.png'></img>	71,89	2750.0	test	<img class = center src='/static/experiments/beast_fmri_test/images/redP.png'></img>	go	2450.0	2.0	12.0	go	non-target	P	71,Green Button	89,Yellow Button	350.0	300.0	2400.0	2450.0	1.0	300.0	1.0	n/a	ITI
67959.0	500	n/a	-1	-1	500	0.0	fixation	poldrack-single-stim	603	1683404	0.0-23.13-0.13	beast_fmri_test	306	n/a	n/a	<div class = centerbox><div class = fixation>+</div></div>	none	500.0	test	n/a	n/a	n/a	n/a	n/a	n/a	n/a	n/a	n/a	n/a	n/a	n/a	n/a	n/a	n/a	n/a	n/a	n/a	fixation
67154.839136368828	350.0	n/a	-1	-1	2750	805.160863631	stim	stop-signal	604	1686155	0.0-23.13-1.13	beast_fmri_test	306	28.056866666666668,28.068166666666666,28.0795,28.09085,28.102183333333333,28.1135	t,t,t,t,t,t	<img class = center src='/static/experiments/beast_fmri_test/images/T.png'></img>	71,89	2750.0	test	<img class = center src='/static/experiments/beast_fmri_test/images/redT.png'></img>	stop	2400.0	2.0	13.0	stop	target	T	71,Green Button	89,Yellow Button	350.0	300.0	2400.0	2450.0	0.0	350.0	0.0	1.0	go_stim
69554.839136368828	2400.0	n/a	-1	-1	2750	805.160863631	stim	stop-signal	604	1686155	0.0-23.13-1.13	beast_fmri_test	306	28.056866666666668,28.068166666666666,28.0795,28.09085,28.102183333333333,28.1135	t,t,t,t,t,t	<img class = center src='/static/experiments/beast_fmri_test/images/T.png'></img>	71,89	2750.0	test	<img class = center src='/static/experiments/beast_fmri_test/images/redT.png'></img>	stop	2400.0	2.0	13.0	stop	target	T	71,Green Button	89,Yellow Button	350.0	300.0	2400.0	2450.0	0.0	350.0	0.0	1.0	stop_stim
69904.839136368828	805.16086363120746	n/a	-1	-1	2750	805.160863631	stim	stop-signal	604	1686155	0.0-23.13-1.13	beast_fmri_test	306	28.056866666666668,28.068166666666666,28.0795,28.09085,28.102183333333333,28.1135	t,t,t,t,t,t	<img class = center src='/static/experiments/beast_fmri_test/images/T.png'></img>	71,89	2750.0	test	<img class = center src='/static/experiments/beast_fmri_test/images/redT.png'></img>	stop	2400.0	2.0	13.0	stop	target	T	71,Green Button	89,Yellow Button	350.0	300.0	2400.0	2450.0	0.0	350.0	0.0	1.0	ITI
72078.0	500	n/a	-1	-1	500	0.0	fixation	poldrack-single-stim	605	1687523	0.0-23.14-0.14	beast_fmri_test	306	28.124833333333335	t	<div class = centerbox><div class = fixation>+</div></div>	none	500.0	test	n/a	n/a	n/a	n/a	n/a	n/a	n/a	n/a	n/a	n/a	n/a	n/a	n/a	n/a	n/a	n/a	n/a	n/a	fixation
71578.054692015518	2750	n/a	476	89	2750	503.945307984	stim	stop-signal	606	1690277	0.0-23.14-1.14	beast_fmri_test	306	28.136183333333335,28.147516666666668,28.158833333333334,28.170183333333334	t,t,t,t	<img class = center src='/static/experiments/beast_fmri_test/images/D.png'></img>	71,89	2750.0	test	<img class = center src='/static/experiments/beast_fmri_test/images/redD.png'></img>	go	2450.0	2.0	14.0	go	non-target	D	71,Green Button	89,Yellow Button	400.0	300.0	2400.0	2450.0	1.0	300.0	1.0	n/a	go_stim
74328.054692015518	503.94530798442605	n/a	476	89	2750	503.945307984	stim	stop-signal	606	1690277	0.0-23.14-1.14	beast_fmri_test	306	28.136183333333335,28.147516666666668,28.158833333333334,28.170183333333334	t,t,t,t	<img class = center src='/static/experiments/beast_fmri_test/images/D.png'></img>	71,89	2750.0	test	<img class = center src='/static/experiments/beast_fmri_test/images/redD.png'></img>	go	2450.0	2.0	14.0	go	non-target	D	71,Green Button	89,Yellow Button	400.0	300.0	2400.0	2450.0	1.0	300.0	1.0	n/a	ITI
75906.0	500	n/a	-1	-1	500	0.0	fixation	poldrack-single-stim	607	1691351	0.0-23.15-0.15	beast_fmri_test	306	28.181516666666667	t	<div class = centerbox><div class = fixation>+</div></div>	none	500.0	test	n/a	n/a	n/a	n/a	n/a	n/a	n/a	n/a	n/a	n/a	n/a	n/a	n/a	n/a	n/a	n/a	n/a	n/a	fixation
75861.752450937172	300.0	n/a	-1	-1	2750	42.2475490628	stim	stop-signal	608	1694099	0.0-23.15-1.15	beast_fmri_test	306	28.192866666666667,28.204183333333333,28.215483333333335,28.226783333333334	t,t,t,t	<img class = center src='/static/experiments/beast_fmri_test/images/B.png'></img>	71,89	2750.0	test	<img class = center src='/static/experiments/beast_fmri_test/images/redB.png'></img>	stop	2450.0	2.0	15.0	stop	non-target	B	71,Green Button	89,Yellow Button	400.0	300.0	2400.0	2450.0	0.0	300.0	0.0	1.0	go_stim
78311.752450937172	2450.0	n/a	-1	-1	2750	42.2475490628	stim	stop-signal	608	1694099	0.0-23.15-1.15	beast_fmri_test	306	28.192866666666667,28.204183333333333,28.215483333333335,28.226783333333334	t,t,t,t	<img class = center src='/static/experiments/beast_fmri_test/images/B.png'></img>	71,89	2750.0	test	<img class = center src='/static/experiments/beast_fmri_test/images/redB.png'></img>	stop	2450.0	2.0	15.0	stop	non-target	B	71,Green Button	89,Yellow Button	400.0	300.0	2400.0	2450.0	0.0	300.0	0.0	1.0	stop_stim
78611.752450937172	42.247549062808282	n/a	-1	-1	2750	42.2475490628	stim	stop-signal	608	1694099	0.0-23.15-1.15	beast_fmri_test	306	28.192866666666667,28.204183333333333,28.215483333333335,28.226783333333334	t,t,t,t	<img class = center src='/static/experiments/beast_fmri_test/images/B.png'></img>	71,89	2750.0	test	<img class = center src='/static/experiments/beast_fmri_test/images/redB.png'></img>	stop	2450.0	2.0	15.0	stop	non-target	B	71,Green Button	89,Yellow Button	400.0	300.0	2400.0	2450.0	0.0	300.0	0.0	1.0	ITI
79260.0	500	n/a	-1	-1	500	0.0	fixation	poldrack-single-stim	609	1694705	0.0-23.16-0.16	beast_fmri_test	306	28.238083333333332	t	<div class = centerbox><div class = fixation>+</div></div>	none	500.0	test	n/a	n/a	n/a	n/a	n/a	n/a	n/a	n/a	n/a	n/a	n/a	n/a	n/a	n/a	n/a	n/a	n/a	n/a	fixation
77132.860728563042	400.0	n/a	712	71	2750	2131.13927144	stim	stop-signal	610	1697459	0.0-23.16-1.16	beast_fmri_test	306	28.249433333333332,28.260766666666665,28.2721,28.283433333333335,28.294766666666668,28.3061,28.317433333333334	t,t,t,t,t,t,t	<img class = center src='/static/experiments/beast_fmri_test/images/D.png'></img>	71,89	2750.0	test	<img class = center src='/static/experiments/beast_fmri_test/images/redD.png'></img>	stop	2350.0	2.0	16.0	stop	target	D	71,Green Button	89,Yellow Button	400.0	350.0	2350.0	2450.0	0.0	400.0	1.0	0.0	go_stim
79482.860728563042	2350.0	n/a	712	71	2750	2131.13927144	stim	stop-signal	610	1697459	0.0-23.16-1.16	beast_fmri_test	306	28.249433333333332,28.260766666666665,28.2721,28.283433333333335,28.294766666666668,28.3061,28.317433333333334	t,t,t,t,t,t,t	<img class = center src='/static/experiments/beast_fmri_test/images/D.png'></img>	71,89	2750.0	test	<img class = center src='/static/experiments/beast_fmri_test/images/redD.png'></img>	stop	2350.0	2.0	16.0	stop	target	D	71,Green Button	89,Yellow Button	400.0	350.0	2350.0	2450.0	0.0	400.0	1.0	0.0	stop_stim
79882.860728563042	2131.1392714370086	n/a	712	71	2750	2131.13927144	stim	stop-signal	610	1697459	0.0-23.16-1.16	beast_fmri_test	306	28.249433333333332,28.260766666666665,28.2721,28.283433333333335,28.294766666666668,28.3061,28.317433333333334	t,t,t,t,t,t,t	<img class = center src='/static/experiments/beast_fmri_test/images/D.png'></img>	71,89	2750.0	test	<img class = center src='/static/experiments/beast_fmri_test/images/redD.png'></img>	stop	2350.0	2.0	16.0	stop	target	D	71,Green Button	89,Yellow Button	400.0	350.0	2350.0	2450.0	0.0	400.0	1.0	0.0	ITI
84713.0	500	n/a	-1	-1	500	0.0	fixation	poldrack-single-stim	611	1700158	0.0-23.17-0.17	beast_fmri_test	306	28.328783333333334	t	<div class = centerbox><div class = fixation>+</div></div>	none	500.0	test	n/a	n/a	n/a	n/a	n/a	n/a	n/a	n/a	n/a	n/a	n/a	n/a	n/a	n/a	n/a	n/a	n/a	n/a	fixation
84556.047800754197	2750	n/a	875	89	2750	158.952199246	stim	stop-signal	612	1702910	0.0-23.17-1.17	beast_fmri_test	306	28.3401,28.351416666666665,28.362766666666666,28.3741	t,t,t,t	<img class = center src='/static/experiments/beast_fmri_test/images/V.png'></img>	71,89	2750.0	test	<img class = center src='/static/experiments/beast_fmri_test/images/redV.png'></img>	go	2400.0	2.0	17.0	go	non-target	V	71,Green Button	89,Yellow Button	350.0	350.0	2350.0	2400.0	1.0	350.0	1.0	n/a	go_stim
87306.047800754197	158.95219924584939	n/a	875	89	2750	158.952199246	stim	stop-signal	612	1702910	0.0-23.17-1.17	beast_fmri_test	306	28.3401,28.351416666666665,28.362766666666666,28.3741	t,t,t,t	<img class = center src='/static/experiments/beast_fmri_test/images/V.png'></img>	71,89	2750.0	test	<img class = center src='/static/experiments/beast_fmri_test/images/redV.png'></img>	go	2400.0	2.0	17.0	go	non-target	V	71,Green Button	89,Yellow Button	350.0	350.0	2350.0	2400.0	1.0	350.0	1.0	n/a	ITI
88188.0	500	n/a	-1	-1	500	0.0	fixation	poldrack-single-stim	613	1703633	0.0-23.18-0.18	beast_fmri_test	306	28.385566666666666	t	<div class = centerbox><div class = fixation>+</div></div>	none	500.0	test	n/a	n/a	n/a	n/a	n/a	n/a	n/a	n/a	n/a	n/a	n/a	n/a	n/a	n/a	n/a	n/a	n/a	n/a	fixation
86533.062604080187	2750	n/a	1917	89	2750	1657.93739592	stim	stop-signal	614	1706386	0.0-23.18-1.18	beast_fmri_test	306	28.39666666666667,28.408016666666665,28.41935,28.430683333333334,28.442016666666667,28.453366666666668,28.4647	t,t,t,t,t,t,t	<img class = center src='/static/experiments/beast_fmri_test/images/D.png'></img>	71,89	2750.0	test	<img class = center src='/static/experiments/beast_fmri_test/images/redD.png'></img>	go	2400.0	2.0	18.0	go	target	D	71,Green Button	89,Yellow Button	350.0	350.0	2400.0	2400.0	0.0	350.0	0.0	n/a	go_stim
89283.062604080187	1657.9373959197956	n/a	1917	89	2750	1657.93739592	stim	stop-signal	614	1706386	0.0-23.18-1.18	beast_fmri_test	306	28.39666666666667,28.408016666666665,28.41935,28.430683333333334,28.442016666666667,28.453366666666668,28.4647	t,t,t,t,t,t,t	<img class = center src='/static/experiments/beast_fmri_test/images/D.png'></img>	71,89	2750.0	test	<img class = center src='/static/experiments/beast_fmri_test/images/redD.png'></img>	go	2400.0	2.0	18.0	go	target	D	71,Green Button	89,Yellow Button	350.0	350.0	2400.0	2400.0	0.0	350.0	0.0	n/a	ITI
93162.0	500	n/a	-1	-1	500	0.0	fixation	poldrack-single-stim	615	1708607	0.0-23.19-0.19	beast_fmri_test	306	28.476033333333334	t	<div class = centerbox><div class = fixation>+</div></div>	none	500.0	test	n/a	n/a	n/a	n/a	n/a	n/a	n/a	n/a	n/a	n/a	n/a	n/a	n/a	n/a	n/a	n/a	n/a	n/a	fixation
92622.143501505721	350.0	n/a	-1	-1	2750	543.856498494	stim	stop-signal	616	1711361	0.0-23.19-1.19	beast_fmri_test	306	28.487366666666667,28.4987,28.510033333333332,28.521366666666665	t,t,t,t	<img class = center src='/static/experiments/beast_fmri_test/images/D.png'></img>	71,89	2750.0	test	<img class = center src='/static/experiments/beast_fmri_test/images/redD.png'></img>	stop	2400.0	2.0	19.0	stop	non-target	D	71,Green Button	89,Yellow Button	350.0	350.0	2400.0	2400.0	0.0	350.0	0.0	1.0	go_stim
95022.143501505721	2400.0	n/a	-1	-1	2750	543.856498494	stim	stop-signal	616	1711361	0.0-23.19-1.19	beast_fmri_test	306	28.487366666666667,28.4987,28.510033333333332,28.521366666666665	t,t,t,t	<img class = center src='/static/experiments/beast_fmri_test/images/D.png'></img>	71,89	2750.0	test	<img class = center src='/static/experiments/beast_fmri_test/images/redD.png'></img>	stop	2400.0	2.0	19.0	stop	non-target	D	71,Green Button	89,Yellow Button	350.0	350.0	2400.0	2400.0	0.0	350.0	0.0	1.0	stop_stim
95372.143501505721	543.85649849418382	n/a	-1	-1	2750	543.856498494	stim	stop-signal	616	1711361	0.0-23.19-1.19	beast_fmri_test	306	28.487366666666667,28.4987,28.510033333333332,28.521366666666665	t,t,t,t	<img class = center src='/static/experiments/beast_fmri_test/images/D.png'></img>	71,89	2750.0	test	<img class = center src='/static/experiments/beast_fmri_test/images/redD.png'></img>	stop	2400.0	2.0	19.0	stop	non-target	D	71,Green Button	89,Yellow Button	350.0	350.0	2400.0	2400.0	0.0	350.0	0.0	1.0	ITI
97034.0	500	n/a	-1	-1	500	0.0	fixation	poldrack-single-stim	617	1712479	0.0-23.20-0.20	beast_fmri_test	306	28.532966666666667	t	<div class = centerbox><div class = fixation>+</div></div>	none	500.0	test	n/a	n/a	n/a	n/a	n/a	n/a	n/a	n/a	n/a	n/a	n/a	n/a	n/a	n/a	n/a	n/a	n/a	n/a	fixation
95314.157083919039	400.0	n/a	847	89	2750	1718.84291608	stim	stop-signal	618	1715228	0.0-23.20-1.20	beast_fmri_test	306	28.544033333333335,28.555316666666666,28.5666,28.577933333333334,28.589283333333334,28.6006,28.61195	t,t,t,t,t,t,t	<img class = center src='/static/experiments/beast_fmri_test/images/V.png'></img>	71,89	2750.0	test	<img class = center src='/static/experiments/beast_fmri_test/images/redV.png'></img>	stop	2350.0	2.0	20.0	stop	non-target	V	71,Green Button	89,Yellow Button	350.0	400.0	2400.0	2350.0	0.0	400.0	1.0	0.0	go_stim
97664.157083919039	2350.0	n/a	847	89	2750	1718.84291608	stim	stop-signal	618	1715228	0.0-23.20-1.20	beast_fmri_test	306	28.544033333333335,28.555316666666666,28.5666,28.577933333333334,28.589283333333334,28.6006,28.61195	t,t,t,t,t,t,t	<img class = center src='/static/experiments/beast_fmri_test/images/V.png'></img>	71,89	2750.0	test	<img class = center src='/static/experiments/beast_fmri_test/images/redV.png'></img>	stop	2350.0	2.0	20.0	stop	non-target	V	71,Green Button	89,Yellow Button	350.0	400.0	2400.0	2350.0	0.0	400.0	1.0	0.0	stop_stim
98064.157083919039	1718.8429160810456	n/a	847	89	2750	1718.84291608	stim	stop-signal	618	1715228	0.0-23.20-1.20	beast_fmri_test	306	28.544033333333335,28.555316666666666,28.5666,28.577933333333334,28.589283333333334,28.6006,28.61195	t,t,t,t,t,t,t	<img class = center src='/static/experiments/beast_fmri_test/images/V.png'></img>	71,89	2750.0	test	<img class = center src='/static/experiments/beast_fmri_test/images/redV.png'></img>	stop	2350.0	2.0	20.0	stop	non-target	V	71,Green Button	89,Yellow Button	350.0	400.0	2400.0	2350.0	0.0	400.0	1.0	0.0	ITI
102077.0	500	n/a	-1	-1	500	0.0	fixation	poldrack-single-stim	619	1717522	0.0-23.21-0.21	beast_fmri_test	306	28.623266666666666	t	<div class = centerbox><div class = fixation>+</div></div>	none	500.0	test	n/a	n/a	n/a	n/a	n/a	n/a	n/a	n/a	n/a	n/a	n/a	n/a	n/a	n/a	n/a	n/a	n/a	n/a	fixation
101927.81221606862	2750	n/a	832	89	2750	151.187783931	stim	stop-signal	620	1720274	0.0-23.21-1.21	beast_fmri_test	306	28.634616666666666,28.645933333333332,28.657283333333332,28.668616666666665	t,t,t,t	<img class = center src='/static/experiments/beast_fmri_test/images/T.png'></img>	71,89	2750.0	test	<img class = center src='/static/experiments/beast_fmri_test/images/redT.png'></img>	go	2400.0	2.0	21.0	go	non-target	T	71,Green Button	89,Yellow Button	350.0	350.0	2400.0	2400.0	1.0	350.0	1.0	n/a	go_stim
104677.81221606862	151.18778393145911	n/a	832	89	2750	151.187783931	stim	stop-signal	620	1720274	0.0-23.21-1.21	beast_fmri_test	306	28.634616666666666,28.645933333333332,28.657283333333332,28.668616666666665	t,t,t,t	<img class = center src='/static/experiments/beast_fmri_test/images/T.png'></img>	71,89	2750.0	test	<img class = center src='/static/experiments/beast_fmri_test/images/redT.png'></img>	go	2400.0	2.0	21.0	go	non-target	T	71,Green Button	89,Yellow Button	350.0	350.0	2400.0	2400.0	1.0	350.0	1.0	n/a	ITI
105548.0	500	n/a	-1	-1	500	0.0	fixation	poldrack-single-stim	621	1720993	0.0-23.22-0.22	beast_fmri_test	306	28.67995	t	<div class = centerbox><div class = fixation>+</div></div>	none	500.0	test	n/a	n/a	n/a	n/a	n/a	n/a	n/a	n/a	n/a	n/a	n/a	n/a	n/a	n/a	n/a	n/a	n/a	n/a	fixation
105052.99696594151	2750	n/a	1906	89	2750	493.003034059	stim	stop-signal	622	1723741	0.0-23.22-1.22	beast_fmri_test	306	28.691266666666667,28.702616666666668,28.713933333333333,28.725233333333332,28.736533333333334	t,t,t,t,t	<img class = center src='/static/experiments/beast_fmri_test/images/T.png'></img>	71,89	2750.0	test	<img class = center src='/static/experiments/beast_fmri_test/images/redT.png'></img>	go	2400.0	2.0	22.0	go	non-target	T	71,Green Button	89,Yellow Button	350.0	350.0	2400.0	2400.0	1.0	350.0	1.0	n/a	go_stim
107802.99696594151	493.00303405856613	n/a	1906	89	2750	493.003034059	stim	stop-signal	622	1723741	0.0-23.22-1.22	beast_fmri_test	306	28.691266666666667,28.702616666666668,28.713933333333333,28.725233333333332,28.736533333333334	t,t,t,t,t	<img class = center src='/static/experiments/beast_fmri_test/images/T.png'></img>	71,89	2750.0	test	<img class = center src='/static/experiments/beast_fmri_test/images/redT.png'></img>	go	2400.0	2.0	22.0	go	non-target	T	71,Green Button	89,Yellow Button	350.0	350.0	2400.0	2400.0	1.0	350.0	1.0	n/a	ITI
109357.0	500	n/a	-1	-1	500	0.0	fixation	poldrack-single-stim	623	1724802	0.0-23.23-0.23	beast_fmri_test	306	n/a	n/a	<div class = centerbox><div class = fixation>+</div></div>	none	500.0	test	n/a	n/a	n/a	n/a	n/a	n/a	n/a	n/a	n/a	n/a	n/a	n/a	n/a	n/a	n/a	n/a	n/a	n/a	fixation
108966.31402503699	2750	n/a	883	89	2750	393.685974963	stim	stop-signal	624	1727555	0.0-23.23-1.23	beast_fmri_test	306	28.74785,28.7592,28.770533333333333,28.78185,28.79318333333333	t,t,t,t,t	<img class = center src='/static/experiments/beast_fmri_test/images/D.png'></img>	71,89	2750.0	test	<img class = center src='/static/experiments/beast_fmri_test/images/redD.png'></img>	go	2400.0	2.0	23.0	go	non-target	D	71,Green Button	89,Yellow Button	350.0	350.0	2400.0	2400.0	1.0	350.0	1.0	n/a	go_stim
111716.31402503699	393.68597496294768	n/a	883	89	2750	393.685974963	stim	stop-signal	624	1727555	0.0-23.23-1.23	beast_fmri_test	306	28.74785,28.7592,28.770533333333333,28.78185,28.79318333333333	t,t,t,t,t	<img class = center src='/static/experiments/beast_fmri_test/images/D.png'></img>	71,89	2750.0	test	<img class = center src='/static/experiments/beast_fmri_test/images/redD.png'></img>	go	2400.0	2.0	23.0	go	non-target	D	71,Green Button	89,Yellow Button	350.0	350.0	2400.0	2400.0	1.0	350.0	1.0	n/a	ITI
113072.0	500	n/a	-1	-1	500	0.0	fixation	poldrack-single-stim	625	1728517	0.0-23.24-0.24	beast_fmri_test	306	28.80453333333333	t	<div class = centerbox><div class = fixation>+</div></div>	none	500.0	test	n/a	n/a	n/a	n/a	n/a	n/a	n/a	n/a	n/a	n/a	n/a	n/a	n/a	n/a	n/a	n/a	n/a	n/a	fixation
112915.25936865737	350.0	n/a	-1	-1	2750	160.740631343	stim	stop-signal	626	1731271	0.0-23.24-1.24	beast_fmri_test	306	28.8159,28.8272,28.838533333333334,28.849866666666667	t,t,t,t	<img class = center src='/static/experiments/beast_fmri_test/images/D.png'></img>	71,89	2750.0	test	<img class = center src='/static/experiments/beast_fmri_test/images/redD.png'></img>	stop	2400.0	2.0	24.0	stop	non-target	D	71,Green Button	89,Yellow Button	350.0	350.0	2400.0	2400.0	0.0	350.0	0.0	1.0	go_stim
115315.25936865737	2400.0	n/a	-1	-1	2750	160.740631343	stim	stop-signal	626	1731271	0.0-23.24-1.24	beast_fmri_test	306	28.8159,28.8272,28.838533333333334,28.849866666666667	t,t,t,t	<img class = center src='/static/experiments/beast_fmri_test/images/D.png'></img>	71,89	2750.0	test	<img class = center src='/static/experiments/beast_fmri_test/images/redD.png'></img>	stop	2400.0	2.0	24.0	stop	non-target	D	71,Green Button	89,Yellow Button	350.0	350.0	2400.0	2400.0	0.0	350.0	0.0	1.0	stop_stim
115665.25936865737	160.74063134251875	n/a	-1	-1	2750	160.740631343	stim	stop-signal	626	1731271	0.0-23.24-1.24	beast_fmri_test	306	28.8159,28.8272,28.838533333333334,28.849866666666667	t,t,t,t	<img class = center src='/static/experiments/beast_fmri_test/images/D.png'></img>	71,89	2750.0	test	<img class = center src='/static/experiments/beast_fmri_test/images/redD.png'></img>	stop	2400.0	2.0	24.0	stop	non-target	D	71,Green Button	89,Yellow Button	350.0	350.0	2400.0	2400.0	0.0	350.0	0.0	1.0	ITI
116555.0	500	n/a	-1	-1	500	0.0	fixation	poldrack-single-stim	627	1732000	0.0-23.25-0.25	beast_fmri_test	306	28.8612	t	<div class = centerbox><div class = fixation>+</div></div>	none	500.0	test	n/a	n/a	n/a	n/a	n/a	n/a	n/a	n/a	n/a	n/a	n/a	n/a	n/a	n/a	n/a	n/a	n/a	n/a	fixation
116413.04826315283	2750	n/a	777	89	2750	140.951736847	stim	stop-signal	628	1734749	0.0-23.25-1.25	beast_fmri_test	306	28.872533333333333,28.883816666666668,28.895133333333334,28.90645	t,t,t,t	<img class = center src='/static/experiments/beast_fmri_test/images/P.png'></img>	71,89	2750.0	test	<img class = center src='/static/experiments/beast_fmri_test/images/redP.png'></img>	go	2350.0	2.0	25.0	go	non-target	P	71,Green Button	89,Yellow Button	350.0	400.0	2400.0	2350.0	1.0	400.0	1.0	n/a	go_stim
119163.04826315283	140.95173684709502	n/a	777	89	2750	140.951736847	stim	stop-signal	628	1734749	0.0-23.25-1.25	beast_fmri_test	306	28.872533333333333,28.883816666666668,28.895133333333334,28.90645	t,t,t,t	<img class = center src='/static/experiments/beast_fmri_test/images/P.png'></img>	71,89	2750.0	test	<img class = center src='/static/experiments/beast_fmri_test/images/redP.png'></img>	go	2350.0	2.0	25.0	go	non-target	P	71,Green Button	89,Yellow Button	350.0	400.0	2400.0	2350.0	1.0	400.0	1.0	n/a	ITI
120004.0	500	n/a	-1	-1	500	0.0	fixation	poldrack-single-stim	629	1735449	0.0-23.26-0.26	beast_fmri_test	306	28.917783333333333	t	<div class = centerbox><div class = fixation>+</div></div>	none	500.0	test	n/a	n/a	n/a	n/a	n/a	n/a	n/a	n/a	n/a	n/a	n/a	n/a	n/a	n/a	n/a	n/a	n/a	n/a	fixation
119772.66573375324	2750	n/a	789	71	2750	235.334266247	stim	stop-signal	630	1738203	0.0-23.26-1.26	beast_fmri_test	306	28.929133333333333,28.94045,28.9518,28.963116666666668	t,t,t,t	<img class = center src='/static/experiments/beast_fmri_test/images/D.png'></img>	71,89	2750.0	test	<img class = center src='/static/experiments/beast_fmri_test/images/redD.png'></img>	go	2400.0	2.0	26.0	go	target	D	71,Green Button	89,Yellow Button	350.0	400.0	2400.0	2350.0	1.0	350.0	1.0	n/a	go_stim
122522.66573375324	235.33426624683949	n/a	789	71	2750	235.334266247	stim	stop-signal	630	1738203	0.0-23.26-1.26	beast_fmri_test	306	28.929133333333333,28.94045,28.9518,28.963116666666668	t,t,t,t	<img class = center src='/static/experiments/beast_fmri_test/images/D.png'></img>	71,89	2750.0	test	<img class = center src='/static/experiments/beast_fmri_test/images/redD.png'></img>	go	2400.0	2.0	26.0	go	target	D	71,Green Button	89,Yellow Button	350.0	400.0	2400.0	2350.0	1.0	350.0	1.0	n/a	ITI
123555.0	500	n/a	-1	-1	500	0.0	fixation	poldrack-single-stim	631	1739000	0.0-23.27-0.27	beast_fmri_test	306	28.974966666666667	t	<div class = centerbox><div class = fixation>+</div></div>	none	500.0	test	n/a	n/a	n/a	n/a	n/a	n/a	n/a	n/a	n/a	n/a	n/a	n/a	n/a	n/a	n/a	n/a	n/a	n/a	fixation
122419.2117588406	2750	n/a	915	89	2750	1138.78824116	stim	stop-signal	632	1741753	0.0-23.27-1.27	beast_fmri_test	306	28.9858,28.99715,29.008466666666667,29.0198,29.031133333333333,29.042466666666666	t,t,t,t,t,t	<img class = center src='/static/experiments/beast_fmri_test/images/P.png'></img>	71,89	2750.0	test	<img class = center src='/static/experiments/beast_fmri_test/images/redP.png'></img>	go	2400.0	2.0	27.0	go	target	P	71,Green Button	89,Yellow Button	350.0	400.0	2400.0	2350.0	0.0	350.0	0.0	n/a	go_stim
125169.2117588406	1138.7882411594446	n/a	915	89	2750	1138.78824116	stim	stop-signal	632	1741753	0.0-23.27-1.27	beast_fmri_test	306	28.9858,28.99715,29.008466666666667,29.0198,29.031133333333333,29.042466666666666	t,t,t,t,t,t	<img class = center src='/static/experiments/beast_fmri_test/images/P.png'></img>	71,89	2750.0	test	<img class = center src='/static/experiments/beast_fmri_test/images/redP.png'></img>	go	2400.0	2.0	27.0	go	target	P	71,Green Button	89,Yellow Button	350.0	400.0	2400.0	2350.0	0.0	350.0	0.0	n/a	ITI
128023.0	500	n/a	-1	-1	500	0.0	fixation	poldrack-single-stim	633	1743468	0.0-23.28-0.28	beast_fmri_test	306	29.05378333333333	t	<div class = centerbox><div class = fixation>+</div></div>	none	500.0	test	n/a	n/a	n/a	n/a	n/a	n/a	n/a	n/a	n/a	n/a	n/a	n/a	n/a	n/a	n/a	n/a	n/a	n/a	fixation
127382.5445975475	2750	n/a	1313	71	2750	642.455402452	stim	stop-signal	634	1746220	0.0-23.28-1.28	beast_fmri_test	306	29.06505,29.076383333333332,29.087683333333334,29.099033333333335,29.110366666666668	t,t,t,t,t	<img class = center src='/static/experiments/beast_fmri_test/images/D.png'></img>	71,89	2750.0	test	<img class = center src='/static/experiments/beast_fmri_test/images/redD.png'></img>	go	2400.0	2.0	28.0	go	target	D	71,Green Button	89,Yellow Button	350.0	400.0	2400.0	2350.0	1.0	350.0	1.0	n/a	go_stim
130132.5445975475	642.45540245241625	n/a	1313	71	2750	642.455402452	stim	stop-signal	634	1746220	0.0-23.28-1.28	beast_fmri_test	306	29.06505,29.076383333333332,29.087683333333334,29.099033333333335,29.110366666666668	t,t,t,t,t	<img class = center src='/static/experiments/beast_fmri_test/images/D.png'></img>	71,89	2750.0	test	<img class = center src='/static/experiments/beast_fmri_test/images/redD.png'></img>	go	2400.0	2.0	28.0	go	target	D	71,Green Button	89,Yellow Button	350.0	400.0	2400.0	2350.0	1.0	350.0	1.0	n/a	ITI
131976.0	500	n/a	-1	-1	500	0.0	fixation	poldrack-single-stim	635	1747421	0.0-23.29-0.29	beast_fmri_test	306	29.121716666666668	t	<div class = centerbox><div class = fixation>+</div></div>	none	500.0	test	n/a	n/a	n/a	n/a	n/a	n/a	n/a	n/a	n/a	n/a	n/a	n/a	n/a	n/a	n/a	n/a	n/a	n/a	fixation
131486.65907519823	350.0	n/a	-1	-1	2750	493.340924802	stim	stop-signal	636	1750175	0.0-23.29-1.29	beast_fmri_test	306	29.13305,29.144383333333334,29.155716666666667,29.16705	t,t,t,t	<img class = center src='/static/experiments/beast_fmri_test/images/P.png'></img>	71,89	2750.0	test	<img class = center src='/static/experiments/beast_fmri_test/images/redP.png'></img>	stop	2400.0	2.0	29.0	stop	target	P	71,Green Button	89,Yellow Button	350.0	400.0	2400.0	2350.0	0.0	350.0	0.0	1.0	go_stim
133886.65907519823	2400.0	n/a	-1	-1	2750	493.340924802	stim	stop-signal	636	1750175	0.0-23.29-1.29	beast_fmri_test	306	29.13305,29.144383333333334,29.155716666666667,29.16705	t,t,t,t	<img class = center src='/static/experiments/beast_fmri_test/images/P.png'></img>	71,89	2750.0	test	<img class = center src='/static/experiments/beast_fmri_test/images/redP.png'></img>	stop	2400.0	2.0	29.0	stop	target	P	71,Green Button	89,Yellow Button	350.0	400.0	2400.0	2350.0	0.0	350.0	0.0	1.0	stop_stim
134236.65907519823	493.34092480172569	n/a	-1	-1	2750	493.340924802	stim	stop-signal	636	1750175	0.0-23.29-1.29	beast_fmri_test	306	29.13305,29.144383333333334,29.155716666666667,29.16705	t,t,t,t	<img class = center src='/static/experiments/beast_fmri_test/images/P.png'></img>	71,89	2750.0	test	<img class = center src='/static/experiments/beast_fmri_test/images/redP.png'></img>	stop	2400.0	2.0	29.0	stop	target	P	71,Green Button	89,Yellow Button	350.0	400.0	2400.0	2350.0	0.0	350.0	0.0	1.0	ITI
135782.0	500	n/a	-1	-1	500	0.0	fixation	poldrack-single-stim	637	1751227	0.0-23.30-0.30	beast_fmri_test	306	29.178766666666668	t	<div class = centerbox><div class = fixation>+</div></div>	none	500.0	test	n/a	n/a	n/a	n/a	n/a	n/a	n/a	n/a	n/a	n/a	n/a	n/a	n/a	n/a	n/a	n/a	n/a	n/a	fixation
135685.82034510095	400.0	n/a	-1	-1	2750	94.1796548991	stim	stop-signal	638	1753975	0.0-23.30-1.30	beast_fmri_test	306	29.189716666666666,29.20105,29.21238333333333,29.223666666666666	t,t,t,t	<img class = center src='/static/experiments/beast_fmri_test/images/D.png'></img>	71,89	2750.0	test	<img class = center src='/static/experiments/beast_fmri_test/images/redD.png'></img>	stop	2350.0	2.0	30.0	stop	target	D	71,Green Button	89,Yellow Button	400.0	400.0	2350.0	2350.0	0.0	400.0	0.0	1.0	go_stim
138035.82034510095	2350.0	n/a	-1	-1	2750	94.1796548991	stim	stop-signal	638	1753975	0.0-23.30-1.30	beast_fmri_test	306	29.189716666666666,29.20105,29.21238333333333,29.223666666666666	t,t,t,t	<img class = center src='/static/experiments/beast_fmri_test/images/D.png'></img>	71,89	2750.0	test	<img class = center src='/static/experiments/beast_fmri_test/images/redD.png'></img>	stop	2350.0	2.0	30.0	stop	target	D	71,Green Button	89,Yellow Button	400.0	400.0	2350.0	2350.0	0.0	400.0	0.0	1.0	stop_stim
138435.82034510095	94.179654899063678	n/a	-1	-1	2750	94.1796548991	stim	stop-signal	638	1753975	0.0-23.30-1.30	beast_fmri_test	306	29.189716666666666,29.20105,29.21238333333333,29.223666666666666	t,t,t,t	<img class = center src='/static/experiments/beast_fmri_test/images/D.png'></img>	71,89	2750.0	test	<img class = center src='/static/experiments/beast_fmri_test/images/redD.png'></img>	stop	2350.0	2.0	30.0	stop	target	D	71,Green Button	89,Yellow Button	400.0	400.0	2350.0	2350.0	0.0	400.0	0.0	1.0	ITI
139186.0	500	n/a	-1	-1	500	0.0	fixation	poldrack-single-stim	639	1754631	0.0-23.31-0.31	beast_fmri_test	306	29.2355	t	<div class = centerbox><div class = fixation>+</div></div>	none	500.0	test	n/a	n/a	n/a	n/a	n/a	n/a	n/a	n/a	n/a	n/a	n/a	n/a	n/a	n/a	n/a	n/a	n/a	n/a	fixation
138669.68847281486	2750	n/a	549	89	2750	519.311527185	stim	stop-signal	640	1757384	0.0-23.31-1.31	beast_fmri_test	306	29.2463,29.257633333333334,29.268966666666667,29.2803,29.291633333333333	t,t,t,t,t	<img class = center src='/static/experiments/beast_fmri_test/images/V.png'></img>	71,89	2750.0	test	<img class = center src='/static/experiments/beast_fmri_test/images/redV.png'></img>	go	2350.0	2.0	31.0	go	non-target	V	71,Green Button	89,Yellow Button	450.0	400.0	2350.0	2350.0	1.0	400.0	1.0	n/a	go_stim
141419.68847281486	519.31152718510589	n/a	549	89	2750	519.311527185	stim	stop-signal	640	1757384	0.0-23.31-1.31	beast_fmri_test	306	29.2463,29.257633333333334,29.268966666666667,29.2803,29.291633333333333	t,t,t,t,t	<img class = center src='/static/experiments/beast_fmri_test/images/V.png'></img>	71,89	2750.0	test	<img class = center src='/static/experiments/beast_fmri_test/images/redV.png'></img>	go	2350.0	2.0	31.0	go	non-target	V	71,Green Button	89,Yellow Button	450.0	400.0	2350.0	2350.0	1.0	400.0	1.0	n/a	ITI
143022.0	500	n/a	-1	-1	500	0.0	fixation	poldrack-single-stim	641	1758467	0.0-23.32-0.32	beast_fmri_test	306	29.302966666666666	t	<div class = centerbox><div class = fixation>+</div></div>	none	500.0	test	n/a	n/a	n/a	n/a	n/a	n/a	n/a	n/a	n/a	n/a	n/a	n/a	n/a	n/a	n/a	n/a	n/a	n/a	fixation
142326.65933525469	2750	n/a	563	89	2750	697.340664745	stim	stop-signal	642	1761219	0.0-23.32-1.32	beast_fmri_test	306	29.3143,29.325633333333332,29.336966666666665,29.3483,29.35965	t,t,t,t,t	<img class = center src='/static/experiments/beast_fmri_test/images/P.png'></img>	71,89	2750.0	test	<img class = center src='/static/experiments/beast_fmri_test/images/redP.png'></img>	go	2350.0	2.0	32.0	go	non-target	P	71,Green Button	89,Yellow Button	450.0	400.0	2350.0	2350.0	1.0	400.0	1.0	n/a	go_stim
145076.65933525469	697.34066474528424	n/a	563	89	2750	697.340664745	stim	stop-signal	642	1761219	0.0-23.32-1.32	beast_fmri_test	306	29.3143,29.325633333333332,29.336966666666665,29.3483,29.35965	t,t,t,t,t	<img class = center src='/static/experiments/beast_fmri_test/images/P.png'></img>	71,89	2750.0	test	<img class = center src='/static/experiments/beast_fmri_test/images/redP.png'></img>	go	2350.0	2.0	32.0	go	non-target	P	71,Green Button	89,Yellow Button	450.0	400.0	2350.0	2350.0	1.0	400.0	1.0	n/a	ITI
147034.0	500	n/a	-1	-1	500	0.0	fixation	poldrack-single-stim	643	1762479	0.0-23.33-0.33	beast_fmri_test	306	29.370983333333335	t	<div class = centerbox><div class = fixation>+</div></div>	none	500.0	test	n/a	n/a	n/a	n/a	n/a	n/a	n/a	n/a	n/a	n/a	n/a	n/a	n/a	n/a	n/a	n/a	n/a	n/a	fixation
146950.63051741989	400.0	n/a	-1	-1	2750	80.3694825802	stim	stop-signal	644	1765226	0.0-23.33-1.33	beast_fmri_test	306	29.382283333333334,29.393583333333332,29.4049,29.416233333333334	t,t,t,t	<img class = center src='/static/experiments/beast_fmri_test/images/T.png'></img>	71,89	2750.0	test	<img class = center src='/static/experiments/beast_fmri_test/images/redT.png'></img>	stop	2350.0	2.0	33.0	stop	non-target	T	71,Green Button	89,Yellow Button	450.0	400.0	2350.0	2350.0	0.0	400.0	0.0	1.0	go_stim
149300.63051741989	2350.0	n/a	-1	-1	2750	80.3694825802	stim	stop-signal	644	1765226	0.0-23.33-1.33	beast_fmri_test	306	29.382283333333334,29.393583333333332,29.4049,29.416233333333334	t,t,t,t	<img class = center src='/static/experiments/beast_fmri_test/images/T.png'></img>	71,89	2750.0	test	<img class = center src='/static/experiments/beast_fmri_test/images/redT.png'></img>	stop	2350.0	2.0	33.0	stop	non-target	T	71,Green Button	89,Yellow Button	450.0	400.0	2350.0	2350.0	0.0	400.0	0.0	1.0	stop_stim
149700.63051741989	80.369482580201208	n/a	-1	-1	2750	80.3694825802	stim	stop-signal	644	1765226	0.0-23.33-1.33	beast_fmri_test	306	29.382283333333334,29.393583333333332,29.4049,29.416233333333334	t,t,t,t	<img class = center src='/static/experiments/beast_fmri_test/images/T.png'></img>	71,89	2750.0	test	<img class = center src='/static/experiments/beast_fmri_test/images/redT.png'></img>	stop	2350.0	2.0	33.0	stop	non-target	T	71,Green Button	89,Yellow Button	450.0	400.0	2350.0	2350.0	0.0	400.0	0.0	1.0	ITI
150427.0	500	n/a	-1	-1	500	0.0	fixation	poldrack-single-stim	645	1765872	0.0-23.34-0.34	beast_fmri_test	306	29.427583333333335	t	<div class = centerbox><div class = fixation>+</div></div>	none	500.0	test	n/a	n/a	n/a	n/a	n/a	n/a	n/a	n/a	n/a	n/a	n/a	n/a	n/a	n/a	n/a	n/a	n/a	n/a	fixation
149801.16454970534	2750	n/a	1214	89	2750	629.835450295	stim	stop-signal	646	1768626	0.0-23.34-1.34	beast_fmri_test	306	29.4389,29.450233333333333,29.461566666666666,29.4729,29.484216666666665	t,t,t,t,t	<img class = center src='/static/experiments/beast_fmri_test/images/D.png'></img>	71,89	2750.0	test	<img class = center src='/static/experiments/beast_fmri_test/images/redD.png'></img>	go	2300.0	2.0	34.0	go	non-target	D	71,Green Button	89,Yellow Button	450.0	450.0	2350.0	2300.0	1.0	450.0	1.0	n/a	go_stim
152551.16454970534	629.83545029469735	n/a	1214	89	2750	629.835450295	stim	stop-signal	646	1768626	0.0-23.34-1.34	beast_fmri_test	306	29.4389,29.450233333333333,29.461566666666666,29.4729,29.484216666666665	t,t,t,t,t	<img class = center src='/static/experiments/beast_fmri_test/images/D.png'></img>	71,89	2750.0	test	<img class = center src='/static/experiments/beast_fmri_test/images/redD.png'></img>	go	2300.0	2.0	34.0	go	non-target	D	71,Green Button	89,Yellow Button	450.0	450.0	2350.0	2300.0	1.0	450.0	1.0	n/a	ITI
154378.0	500	n/a	-1	-1	500	0.0	fixation	poldrack-single-stim	647	1769823	0.0-23.35-0.35	beast_fmri_test	306	29.495566666666665	t	<div class = centerbox><div class = fixation>+</div></div>	none	500.0	test	n/a	n/a	n/a	n/a	n/a	n/a	n/a	n/a	n/a	n/a	n/a	n/a	n/a	n/a	n/a	n/a	n/a	n/a	fixation
152997.80458758911	450.0	n/a	-1	-1	2750	1383.19541241	stim	stop-signal	648	1772576	0.0-23.35-1.35	beast_fmri_test	306	29.506916666666665,29.518233333333335,29.529566666666668,29.5409,29.5522,29.563483333333334	t,t,t,t,t,t	<img class = center src='/static/experiments/beast_fmri_test/images/V.png'></img>	71,89	2750.0	test	<img class = center src='/static/experiments/beast_fmri_test/images/redV.png'></img>	stop	2300.0	2.0	35.0	stop	non-target	V	71,Green Button	89,Yellow Button	450.0	450.0	2350.0	2300.0	0.0	450.0	0.0	1.0	go_stim
155297.80458758911	2300.0	n/a	-1	-1	2750	1383.19541241	stim	stop-signal	648	1772576	0.0-23.35-1.35	beast_fmri_test	306	29.506916666666665,29.518233333333335,29.529566666666668,29.5409,29.5522,29.563483333333334	t,t,t,t,t,t	<img class = center src='/static/experiments/beast_fmri_test/images/V.png'></img>	71,89	2750.0	test	<img class = center src='/static/experiments/beast_fmri_test/images/redV.png'></img>	stop	2300.0	2.0	35.0	stop	non-target	V	71,Green Button	89,Yellow Button	450.0	450.0	2350.0	2300.0	0.0	450.0	0.0	1.0	stop_stim
155747.80458758911	1383.1954124109175	n/a	-1	-1	2750	1383.19541241	stim	stop-signal	648	1772576	0.0-23.35-1.35	beast_fmri_test	306	29.506916666666665,29.518233333333335,29.529566666666668,29.5409,29.5522,29.563483333333334	t,t,t,t,t,t	<img class = center src='/static/experiments/beast_fmri_test/images/V.png'></img>	71,89	2750.0	test	<img class = center src='/static/experiments/beast_fmri_test/images/redV.png'></img>	stop	2300.0	2.0	35.0	stop	non-target	V	71,Green Button	89,Yellow Button	450.0	450.0	2350.0	2300.0	0.0	450.0	0.0	1.0	ITI
159075.0	500	n/a	-1	-1	500	0.0	fixation	poldrack-single-stim	649	1774520	0.0-23.36-0.36	beast_fmri_test	306	29.574816666666667	t	<div class = centerbox><div class = fixation>+</div></div>	none	500.0	test	n/a	n/a	n/a	n/a	n/a	n/a	n/a	n/a	n/a	n/a	n/a	n/a	n/a	n/a	n/a	n/a	n/a	n/a	fixation
158247.50257288059	2750	n/a	1042	89	2750	829.497427119	stim	stop-signal	650	1777272	0.0-23.36-1.36	beast_fmri_test	306	29.58615,29.5975,29.608816666666666,29.62015,29.631483333333332	t,t,t,t,t	<img class = center src='/static/experiments/beast_fmri_test/images/V.png'></img>	71,89	2750.0	test	<img class = center src='/static/experiments/beast_fmri_test/images/redV.png'></img>	go	2250.0	2.0	36.0	go	non-target	V	71,Green Button	89,Yellow Button	450.0	500.0	2350.0	2250.0	1.0	500.0	1.0	n/a	go_stim
160997.50257288059	829.49742711946578	n/a	1042	89	2750	829.497427119	stim	stop-signal	650	1777272	0.0-23.36-1.36	beast_fmri_test	306	29.58615,29.5975,29.608816666666666,29.62015,29.631483333333332	t,t,t,t,t	<img class = center src='/static/experiments/beast_fmri_test/images/V.png'></img>	71,89	2750.0	test	<img class = center src='/static/experiments/beast_fmri_test/images/redV.png'></img>	go	2250.0	2.0	36.0	go	non-target	V	71,Green Button	89,Yellow Button	450.0	500.0	2350.0	2250.0	1.0	500.0	1.0	n/a	ITI
163219.0	500	n/a	-1	-1	500	0.0	fixation	poldrack-single-stim	651	1778664	0.0-23.37-0.37	beast_fmri_test	306	29.6428	t	<div class = centerbox><div class = fixation>+</div></div>	none	500.0	test	n/a	n/a	n/a	n/a	n/a	n/a	n/a	n/a	n/a	n/a	n/a	n/a	n/a	n/a	n/a	n/a	n/a	n/a	fixation
163146.41976803914	2750	n/a	763	89	2750	75.5802319609	stim	stop-signal	652	1781417	0.0-23.37-1.37	beast_fmri_test	306	29.65415,29.665466666666667,29.676816666666667,29.68815	t,t,t,t	<img class = center src='/static/experiments/beast_fmri_test/images/V.png'></img>	71,89	2750.0	test	<img class = center src='/static/experiments/beast_fmri_test/images/redV.png'></img>	go	2300.0	2.0	37.0	go	target	V	71,Green Button	89,Yellow Button	450.0	500.0	2300.0	2250.0	0.0	450.0	0.0	n/a	go_stim
165896.41976803914	75.580231960928558	n/a	763	89	2750	75.5802319609	stim	stop-signal	652	1781417	0.0-23.37-1.37	beast_fmri_test	306	29.65415,29.665466666666667,29.676816666666667,29.68815	t,t,t,t	<img class = center src='/static/experiments/beast_fmri_test/images/V.png'></img>	71,89	2750.0	test	<img class = center src='/static/experiments/beast_fmri_test/images/redV.png'></img>	go	2300.0	2.0	37.0	go	target	V	71,Green Button	89,Yellow Button	450.0	500.0	2300.0	2250.0	0.0	450.0	0.0	n/a	ITI
166616.0	500	n/a	-1	-1	500	0.0	fixation	poldrack-single-stim	653	1782061	0.0-23.38-0.38	beast_fmri_test	306	29.6995	t	<div class = centerbox><div class = fixation>+</div></div>	none	500.0	test	n/a	n/a	n/a	n/a	n/a	n/a	n/a	n/a	n/a	n/a	n/a	n/a	n/a	n/a	n/a	n/a	n/a	n/a	fixation
166253.39592154324	2750	n/a	826	89	2750	360.604078457	stim	stop-signal	654	1784809	0.0-23.38-1.38	beast_fmri_test	306	29.710816666666666,29.7221,29.7334,29.744733333333333	t,t,t,t	<img class = center src='/static/experiments/beast_fmri_test/images/P.png'></img>	71,89	2750.0	test	<img class = center src='/static/experiments/beast_fmri_test/images/redP.png'></img>	go	2250.0	2.0	38.0	go	non-target	P	71,Green Button	89,Yellow Button	450.0	500.0	2300.0	2250.0	1.0	500.0	1.0	n/a	go_stim
169003.39592154324	360.60407845669619	n/a	826	89	2750	360.604078457	stim	stop-signal	654	1784809	0.0-23.38-1.38	beast_fmri_test	306	29.710816666666666,29.7221,29.7334,29.744733333333333	t,t,t,t	<img class = center src='/static/experiments/beast_fmri_test/images/P.png'></img>	71,89	2750.0	test	<img class = center src='/static/experiments/beast_fmri_test/images/redP.png'></img>	go	2250.0	2.0	38.0	go	non-target	P	71,Green Button	89,Yellow Button	450.0	500.0	2300.0	2250.0	1.0	500.0	1.0	n/a	ITI
170290.0	500	n/a	-1	-1	500	0.0	fixation	poldrack-single-stim	655	1785735	0.0-23.39-0.39	beast_fmri_test	306	29.756066666666666	t	<div class = centerbox><div class = fixation>+</div></div>	none	500.0	test	n/a	n/a	n/a	n/a	n/a	n/a	n/a	n/a	n/a	n/a	n/a	n/a	n/a	n/a	n/a	n/a	n/a	n/a	fixation
170097.78801935515	2750	n/a	1625	89	2750	195.211980645	stim	stop-signal	656	1788488	0.0-23.39-1.39	beast_fmri_test	306	29.767416666666666,29.778733333333335,29.790066666666668,29.801383333333334	t,t,t,t	<img class = center src='/static/experiments/beast_fmri_test/images/P.png'></img>	71,89	2750.0	test	<img class = center src='/static/experiments/beast_fmri_test/images/redP.png'></img>	go	2250.0	2.0	39.0	go	non-target	P	71,Green Button	89,Yellow Button	450.0	500.0	2300.0	2250.0	1.0	500.0	1.0	n/a	go_stim
172847.78801935515	195.21198064495047	n/a	1625	89	2750	195.211980645	stim	stop-signal	656	1788488	0.0-23.39-1.39	beast_fmri_test	306	29.767416666666666,29.778733333333335,29.790066666666668,29.801383333333334	t,t,t,t	<img class = center src='/static/experiments/beast_fmri_test/images/P.png'></img>	71,89	2750.0	test	<img class = center src='/static/experiments/beast_fmri_test/images/redP.png'></img>	go	2250.0	2.0	39.0	go	non-target	P	71,Green Button	89,Yellow Button	450.0	500.0	2300.0	2250.0	1.0	500.0	1.0	n/a	ITI
173801.0	500	n/a	-1	-1	500	0.0	fixation	poldrack-single-stim	657	1789246	0.0-23.40-0.40	beast_fmri_test	306	29.812816666666667	t	<div class = centerbox><div class = fixation>+</div></div>	none	500.0	test	n/a	n/a	n/a	n/a	n/a	n/a	n/a	n/a	n/a	n/a	n/a	n/a	n/a	n/a	n/a	n/a	n/a	n/a	fixation
173078.96430705814	2750	n/a	555	71	2750	724.035692942	stim	stop-signal	658	1791998	0.0-23.40-1.40	beast_fmri_test	306	29.824066666666667,29.8354,29.846733333333333,29.858066666666666,29.869416666666666	t,t,t,t,t	<img class = center src='/static/experiments/beast_fmri_test/images/P.png'></img>	71,89	2750.0	test	<img class = center src='/static/experiments/beast_fmri_test/images/redP.png'></img>	go	2300.0	2.0	40.0	go	target	P	71,Green Button	89,Yellow Button	450.0	500.0	2300.0	2250.0	1.0	450.0	1.0	n/a	go_stim
175828.96430705814	724.03569294180522	n/a	555	71	2750	724.035692942	stim	stop-signal	658	1791998	0.0-23.40-1.40	beast_fmri_test	306	29.824066666666667,29.8354,29.846733333333333,29.858066666666666,29.869416666666666	t,t,t,t,t	<img class = center src='/static/experiments/beast_fmri_test/images/P.png'></img>	71,89	2750.0	test	<img class = center src='/static/experiments/beast_fmri_test/images/redP.png'></img>	go	2300.0	2.0	40.0	go	target	P	71,Green Button	89,Yellow Button	450.0	500.0	2300.0	2250.0	1.0	450.0	1.0	n/a	ITI
177851.0	500	n/a	-1	-1	500	0.0	fixation	poldrack-single-stim	659	1793296	0.0-23.41-0.41	beast_fmri_test	306	29.880733333333332	t	<div class = centerbox><div class = fixation>+</div></div>	none	500.0	test	n/a	n/a	n/a	n/a	n/a	n/a	n/a	n/a	n/a	n/a	n/a	n/a	n/a	n/a	n/a	n/a	n/a	n/a	fixation
177785.55145768542	2750	n/a	623	71	2750	66.4485423146	stim	stop-signal	660	1796047	0.0-23.41-1.41	beast_fmri_test	306	29.892,29.90335,29.914666666666665,29.926	t,t,t,t	<img class = center src='/static/experiments/beast_fmri_test/images/P.png'></img>	71,89	2750.0	test	<img class = center src='/static/experiments/beast_fmri_test/images/redP.png'></img>	go	2300.0	2.0	41.0	go	target	P	71,Green Button	89,Yellow Button	450.0	500.0	2300.0	2250.0	1.0	450.0	1.0	n/a	go_stim
180535.55145768542	66.448542314576585	n/a	623	71	2750	66.4485423146	stim	stop-signal	660	1796047	0.0-23.41-1.41	beast_fmri_test	306	29.892,29.90335,29.914666666666665,29.926	t,t,t,t	<img class = center src='/static/experiments/beast_fmri_test/images/P.png'></img>	71,89	2750.0	test	<img class = center src='/static/experiments/beast_fmri_test/images/redP.png'></img>	go	2300.0	2.0	41.0	go	target	P	71,Green Button	89,Yellow Button	450.0	500.0	2300.0	2250.0	1.0	450.0	1.0	n/a	ITI
181228.0	500	n/a	-1	-1	500	0.0	fixation	poldrack-single-stim	661	1796673	0.0-23.42-0.42	beast_fmri_test	306	29.937333333333335	t	<div class = centerbox><div class = fixation>+</div></div>	none	500.0	test	n/a	n/a	n/a	n/a	n/a	n/a	n/a	n/a	n/a	n/a	n/a	n/a	n/a	n/a	n/a	n/a	n/a	n/a	fixation
180016.91433702759	2750	n/a	636	89	2750	1214.08566297	stim	stop-signal	662	1799426	0.0-23.42-1.42	beast_fmri_test	306	29.94865,29.96,29.971333333333334,29.982666666666667,29.994,30.005333333333333	t,t,t,t,t,t	<img class = center src='/static/experiments/beast_fmri_test/images/B.png'></img>	71,89	2750.0	test	<img class = center src='/static/experiments/beast_fmri_test/images/redB.png'></img>	go	2250.0	2.0	42.0	go	non-target	B	71,Green Button	89,Yellow Button	450.0	500.0	2300.0	2250.0	1.0	500.0	1.0	n/a	go_stim
182766.91433702759	1214.0856629723426	n/a	636	89	2750	1214.08566297	stim	stop-signal	662	1799426	0.0-23.42-1.42	beast_fmri_test	306	29.94865,29.96,29.971333333333334,29.982666666666667,29.994,30.005333333333333	t,t,t,t,t,t	<img class = center src='/static/experiments/beast_fmri_test/images/B.png'></img>	71,89	2750.0	test	<img class = center src='/static/experiments/beast_fmri_test/images/redB.png'></img>	go	2250.0	2.0	42.0	go	non-target	B	71,Green Button	89,Yellow Button	450.0	500.0	2300.0	2250.0	1.0	500.0	1.0	n/a	ITI
185756.0	500	n/a	-1	-1	500	0.0	fixation	poldrack-single-stim	663	1801201	0.0-23.43-0.43	beast_fmri_test	306	30.016666666666666	t	<div class = centerbox><div class = fixation>+</div></div>	none	500.0	test	n/a	n/a	n/a	n/a	n/a	n/a	n/a	n/a	n/a	n/a	n/a	n/a	n/a	n/a	n/a	n/a	n/a	n/a	fixation
184017.12685246812	500.0	n/a	693	89	2750	1736.87314753	stim	stop-signal	664	1803949	0.0-23.43-1.43	beast_fmri_test	306	30.028,30.039316666666668,30.050633333333334,30.061933333333332,30.073233333333334,30.084583333333335	t,t,t,t,t,t	<img class = center src='/static/experiments/beast_fmri_test/images/D.png'></img>	71,89	2750.0	test	<img class = center src='/static/experiments/beast_fmri_test/images/redD.png'></img>	stop	2250.0	2.0	43.0	stop	non-target	D	71,Green Button	89,Yellow Button	450.0	500.0	2300.0	2250.0	0.0	500.0	1.0	0.0	go_stim
186267.12685246812	2250.0	n/a	693	89	2750	1736.87314753	stim	stop-signal	664	1803949	0.0-23.43-1.43	beast_fmri_test	306	30.028,30.039316666666668,30.050633333333334,30.061933333333332,30.073233333333334,30.084583333333335	t,t,t,t,t,t	<img class = center src='/static/experiments/beast_fmri_test/images/D.png'></img>	71,89	2750.0	test	<img class = center src='/static/experiments/beast_fmri_test/images/redD.png'></img>	stop	2250.0	2.0	43.0	stop	non-target	D	71,Green Button	89,Yellow Button	450.0	500.0	2300.0	2250.0	0.0	500.0	1.0	0.0	stop_stim
186767.12685246812	1736.8731475317772	n/a	693	89	2750	1736.87314753	stim	stop-signal	664	1803949	0.0-23.43-1.43	beast_fmri_test	306	30.028,30.039316666666668,30.050633333333334,30.061933333333332,30.073233333333334,30.084583333333335	t,t,t,t,t,t	<img class = center src='/static/experiments/beast_fmri_test/images/D.png'></img>	71,89	2750.0	test	<img class = center src='/static/experiments/beast_fmri_test/images/redD.png'></img>	stop	2250.0	2.0	43.0	stop	non-target	D	71,Green Button	89,Yellow Button	450.0	500.0	2300.0	2250.0	0.0	500.0	1.0	0.0	ITI
190808.0	500	n/a	-1	-1	500	0.0	fixation	poldrack-single-stim	665	1806253	0.0-23.44-0.44	beast_fmri_test	306	30.0959	t	<div class = centerbox><div class = fixation>+</div></div>	none	500.0	test	n/a	n/a	n/a	n/a	n/a	n/a	n/a	n/a	n/a	n/a	n/a	n/a	n/a	n/a	n/a	n/a	n/a	n/a	fixation
188818.36060003191	450.0	n/a	641	89	2750	1992.63939997	stim	stop-signal	666	1809006	0.0-23.44-1.44	beast_fmri_test	306	30.10725,30.118583333333333,30.129933333333334,30.14125,30.152583333333332,30.163916666666665,30.17525	t,t,t,t,t,t,t	<img class = center src='/static/experiments/beast_fmri_test/images/V.png'></img>	71,89	2750.0	test	<img class = center src='/static/experiments/beast_fmri_test/images/redV.png'></img>	stop	2300.0	2.0	44.0	stop	non-target	V	71,Green Button	89,Yellow Button	450.0	450.0	2300.0	2300.0	0.0	450.0	1.0	0.0	go_stim
191118.36060003191	2300.0	n/a	641	89	2750	1992.63939997	stim	stop-signal	666	1809006	0.0-23.44-1.44	beast_fmri_test	306	30.10725,30.118583333333333,30.129933333333334,30.14125,30.152583333333332,30.163916666666665,30.17525	t,t,t,t,t,t,t	<img class = center src='/static/experiments/beast_fmri_test/images/V.png'></img>	71,89	2750.0	test	<img class = center src='/static/experiments/beast_fmri_test/images/redV.png'></img>	stop	2300.0	2.0	44.0	stop	non-target	V	71,Green Button	89,Yellow Button	450.0	450.0	2300.0	2300.0	0.0	450.0	1.0	0.0	stop_stim
191568.36060003191	1992.6393999680849	n/a	641	89	2750	1992.63939997	stim	stop-signal	666	1809006	0.0-23.44-1.44	beast_fmri_test	306	30.10725,30.118583333333333,30.129933333333334,30.14125,30.152583333333332,30.163916666666665,30.17525	t,t,t,t,t,t,t	<img class = center src='/static/experiments/beast_fmri_test/images/V.png'></img>	71,89	2750.0	test	<img class = center src='/static/experiments/beast_fmri_test/images/redV.png'></img>	stop	2300.0	2.0	44.0	stop	non-target	V	71,Green Button	89,Yellow Button	450.0	450.0	2300.0	2300.0	0.0	450.0	1.0	0.0	ITI
196117.0	500	n/a	-1	-1	500	0.0	fixation	poldrack-single-stim	667	1811562	0.0-23.45-0.45	beast_fmri_test	306	30.186583333333335	t	<div class = centerbox><div class = fixation>+</div></div>	none	500.0	test	n/a	n/a	n/a	n/a	n/a	n/a	n/a	n/a	n/a	n/a	n/a	n/a	n/a	n/a	n/a	n/a	n/a	n/a	fixation
195137.86629527342	2750	n/a	642	89	2750	978.133704727	stim	stop-signal	668	1814311	0.0-23.45-1.45	beast_fmri_test	306	30.197916666666668,30.20925,30.22055,30.231816666666667,30.243166666666667,30.2545	t,t,t,t,t,t	<img class = center src='/static/experiments/beast_fmri_test/images/T.png'></img>	71,89	2750.0	test	<img class = center src='/static/experiments/beast_fmri_test/images/redT.png'></img>	go	2350.0	2.0	45.0	go	non-target	T	71,Green Button	89,Yellow Button	450.0	400.0	2300.0	2350.0	1.0	400.0	1.0	n/a	go_stim
197887.86629527342	978.13370472660517	n/a	642	89	2750	978.133704727	stim	stop-signal	668	1814311	0.0-23.45-1.45	beast_fmri_test	306	30.197916666666668,30.20925,30.22055,30.231816666666667,30.243166666666667,30.2545	t,t,t,t,t,t	<img class = center src='/static/experiments/beast_fmri_test/images/T.png'></img>	71,89	2750.0	test	<img class = center src='/static/experiments/beast_fmri_test/images/redT.png'></img>	go	2350.0	2.0	45.0	go	non-target	T	71,Green Button	89,Yellow Button	450.0	400.0	2300.0	2350.0	1.0	400.0	1.0	n/a	ITI
200408.0	500	n/a	-1	-1	500	0.0	fixation	poldrack-single-stim	669	1815853	0.0-23.46-0.46	beast_fmri_test	306	n/a	n/a	<div class = centerbox><div class = fixation>+</div></div>	none	500.0	test	n/a	n/a	n/a	n/a	n/a	n/a	n/a	n/a	n/a	n/a	n/a	n/a	n/a	n/a	n/a	n/a	n/a	n/a	fixation
199518.09898849623	2750	n/a	979	89	2750	893.901011504	stim	stop-signal	670	1818607	0.0-23.46-1.46	beast_fmri_test	306	30.265833333333333,30.277166666666666,30.288483333333332,30.29981666666667,30.311166666666665,30.3225	t,t,t,t,t,t	<img class = center src='/static/experiments/beast_fmri_test/images/V.png'></img>	71,89	2750.0	test	<img class = center src='/static/experiments/beast_fmri_test/images/redV.png'></img>	go	2300.0	2.0	46.0	go	target	V	71,Green Button	89,Yellow Button	450.0	400.0	2300.0	2350.0	0.0	450.0	0.0	n/a	go_stim
202268.09898849623	893.90101150385101	n/a	979	89	2750	893.901011504	stim	stop-signal	670	1818607	0.0-23.46-1.46	beast_fmri_test	306	30.265833333333333,30.277166666666666,30.288483333333332,30.29981666666667,30.311166666666665,30.3225	t,t,t,t,t,t	<img class = center src='/static/experiments/beast_fmri_test/images/V.png'></img>	71,89	2750.0	test	<img class = center src='/static/experiments/beast_fmri_test/images/redV.png'></img>	go	2300.0	2.0	46.0	go	target	V	71,Green Button	89,Yellow Button	450.0	400.0	2300.0	2350.0	0.0	450.0	0.0	n/a	ITI
219111.0	15000	n/a	-1	-1	15000	0.0	practice-no-stop-feedback	poldrack-single-stim	671	1834556	0.0-24.0	beast_fmri_test	306	30.333833333333335,30.345166666666668,30.356516666666668,30.36785,30.379166666666666,30.390466666666665,30.401783333333334,30.4131,30.424433333333333,30.43575,30.447116666666666,30.45845,30.46976666666667,30.4811,30.492433333333334,30.50375,30.515083333333333,30.526416666666666,30.537766666666666,30.549083333333332,30.56035,30.571683333333333	t,t,t,t,t,t,t,t,t,t,t,t,t,t,t,t,t,t,t,t,t,t	"<div class = ""centerbox""><p class = ""center-block-text"">Your delay is 1 trials.</p><p class = center-block-text>Please wait for the scanner to start the block</p></div>"	77	15000.0	n/a	n/a	n/a	n/a	n/a	n/a	n/a	n/a	n/a	n/a	n/a	n/a	n/a	n/a	n/a	n/a	n/a	n/a	n/a	practice-no-stop-feedback
219614.0	500	n/a	-1	-1	500	0.0	fixation	poldrack-single-stim	672	1835059	0.0-25.0-0.0	beast_fmri_test	306	30.583016666666666	t	<div class = centerbox><div class = fixation>+</div></div>	none	500.0	test	n/a	n/a	n/a	n/a	n/a	n/a	n/a	n/a	n/a	n/a	n/a	n/a	n/a	n/a	n/a	n/a	n/a	n/a	fixation
218239.82997618103	2750	n/a	738	89	2750	1378.17002382	stim	stop-signal	673	1837813	0.0-25.0-1.0	beast_fmri_test	306	30.59435,30.60568333333333,30.617016666666668,30.62835,30.639683333333334,30.651033333333334	t,t,t,t,t,t	<img class = center src='/static/experiments/beast_fmri_test/images/D.png'></img>	71,89	2750.0	test	<img class = center src='/static/experiments/beast_fmri_test/images/redD.png'></img>	go	-1.0	1.0	0.0	go	temp-non-target	D	71,Green Button	89,Yellow Button	450.0	400.0	2300.0	2350.0	0.0	n/a	n/a	n/a	go_stim
220989.82997618103	1378.1700238189417	n/a	738	89	2750	1378.17002382	stim	stop-signal	673	1837813	0.0-25.0-1.0	beast_fmri_test	306	30.59435,30.60568333333333,30.617016666666668,30.62835,30.639683333333334,30.651033333333334	t,t,t,t,t,t	<img class = center src='/static/experiments/beast_fmri_test/images/D.png'></img>	71,89	2750.0	test	<img class = center src='/static/experiments/beast_fmri_test/images/redD.png'></img>	go	-1.0	1.0	0.0	go	temp-non-target	D	71,Green Button	89,Yellow Button	450.0	400.0	2300.0	2350.0	0.0	n/a	n/a	n/a	ITI
224319.0	500	n/a	-1	-1	500	0.0	fixation	poldrack-single-stim	674	1839764	0.0-25.1-0.1	beast_fmri_test	306	30.66235	t	<div class = centerbox><div class = fixation>+</div></div>	none	500.0	test	n/a	n/a	n/a	n/a	n/a	n/a	n/a	n/a	n/a	n/a	n/a	n/a	n/a	n/a	n/a	n/a	n/a	n/a	fixation
222741.05932298	2750	n/a	630	71	2750	1580.94067702	stim	stop-signal	675	1842517	0.0-25.1-1.1	beast_fmri_test	306	30.673666666666666,30.685016666666666,30.69635,30.7077,30.718983333333334,30.730266666666665	t,t,t,t,t,t	<img class = center src='/static/experiments/beast_fmri_test/images/D.png'></img>	71,89	2750.0	test	<img class = center src='/static/experiments/beast_fmri_test/images/redD.png'></img>	go	2300.0	1.0	1.0	go	target	D	71,Green Button	89,Yellow Button	450.0	400.0	2300.0	2350.0	1.0	450.0	1.0	n/a	go_stim
225491.05932298	1580.9406770200646	n/a	630	71	2750	1580.94067702	stim	stop-signal	675	1842517	0.0-25.1-1.1	beast_fmri_test	306	30.673666666666666,30.685016666666666,30.69635,30.7077,30.718983333333334,30.730266666666665	t,t,t,t,t,t	<img class = center src='/static/experiments/beast_fmri_test/images/D.png'></img>	71,89	2750.0	test	<img class = center src='/static/experiments/beast_fmri_test/images/redD.png'></img>	go	2300.0	1.0	1.0	go	target	D	71,Green Button	89,Yellow Button	450.0	400.0	2300.0	2350.0	1.0	450.0	1.0	n/a	ITI
229216.0	500	n/a	-1	-1	500	0.0	fixation	poldrack-single-stim	676	1844661	0.0-25.2-0.2	beast_fmri_test	306	30.7416	t	<div class = centerbox><div class = fixation>+</div></div>	none	500.0	test	n/a	n/a	n/a	n/a	n/a	n/a	n/a	n/a	n/a	n/a	n/a	n/a	n/a	n/a	n/a	n/a	n/a	n/a	fixation
228045.94847699511	2750	n/a	549	89	2750	1173.051523	stim	stop-signal	677	1847414	0.0-25.2-1.2	beast_fmri_test	306	30.752916666666668,30.764266666666668,30.7756,30.786933333333334,30.798266666666667,30.8096	t,t,t,t,t,t	<img class = center src='/static/experiments/beast_fmri_test/images/V.png'></img>	71,89	2750.0	test	<img class = center src='/static/experiments/beast_fmri_test/images/redV.png'></img>	go	2350.0	1.0	2.0	go	non-target	V	71,Green Button	89,Yellow Button	450.0	400.0	2300.0	2350.0	1.0	400.0	1.0	n/a	go_stim
230795.94847699511	1173.0515230049041	n/a	549	89	2750	1173.051523	stim	stop-signal	677	1847414	0.0-25.2-1.2	beast_fmri_test	306	30.752916666666668,30.764266666666668,30.7756,30.786933333333334,30.798266666666667,30.8096	t,t,t,t,t,t	<img class = center src='/static/experiments/beast_fmri_test/images/V.png'></img>	71,89	2750.0	test	<img class = center src='/static/experiments/beast_fmri_test/images/redV.png'></img>	go	2350.0	1.0	2.0	go	non-target	V	71,Green Button	89,Yellow Button	450.0	400.0	2300.0	2350.0	1.0	400.0	1.0	n/a	ITI
233714.0	500	n/a	-1	-1	500	0.0	fixation	poldrack-single-stim	678	1849159	0.0-25.3-0.3	beast_fmri_test	306	n/a	n/a	<div class = centerbox><div class = fixation>+</div></div>	none	500.0	test	n/a	n/a	n/a	n/a	n/a	n/a	n/a	n/a	n/a	n/a	n/a	n/a	n/a	n/a	n/a	n/a	n/a	n/a	fixation
233012.44421698805	2750	n/a	744	89	2750	704.555783012	stim	stop-signal	679	1851912	0.0-25.3-1.3	beast_fmri_test	306	30.820933333333333,30.832283333333333,30.843616666666666,30.854966666666666,30.86628333333333	t,t,t,t,t	<img class = center src='/static/experiments/beast_fmri_test/images/B.png'></img>	71,89	2750.0	test	<img class = center src='/static/experiments/beast_fmri_test/images/redB.png'></img>	go	2350.0	1.0	3.0	go	non-target	B	71,Green Button	89,Yellow Button	450.0	400.0	2300.0	2350.0	1.0	400.0	1.0	n/a	go_stim
235762.44421698805	704.55578301186279	n/a	744	89	2750	704.555783012	stim	stop-signal	679	1851912	0.0-25.3-1.3	beast_fmri_test	306	30.820933333333333,30.832283333333333,30.843616666666666,30.854966666666666,30.86628333333333	t,t,t,t,t	<img class = center src='/static/experiments/beast_fmri_test/images/B.png'></img>	71,89	2750.0	test	<img class = center src='/static/experiments/beast_fmri_test/images/redB.png'></img>	go	2350.0	1.0	3.0	go	non-target	B	71,Green Button	89,Yellow Button	450.0	400.0	2300.0	2350.0	1.0	400.0	1.0	n/a	ITI
237742.0	500	n/a	-1	-1	500	0.0	fixation	poldrack-single-stim	680	1853187	0.0-25.4-0.4	beast_fmri_test	306	30.8781	t	<div class = centerbox><div class = fixation>+</div></div>	none	500.0	test	n/a	n/a	n/a	n/a	n/a	n/a	n/a	n/a	n/a	n/a	n/a	n/a	n/a	n/a	n/a	n/a	n/a	n/a	fixation
237636.32653354318	2750	n/a	447	71	2750	106.673466457	stim	stop-signal	681	1855938	0.0-25.4-1.4	beast_fmri_test	306	30.8889,30.9002,30.911533333333335,30.922883333333335	t,t,t,t	<img class = center src='/static/experiments/beast_fmri_test/images/B.png'></img>	71,89	2750.0	test	<img class = center src='/static/experiments/beast_fmri_test/images/redB.png'></img>	go	2300.0	1.0	4.0	go	target	B	71,Green Button	89,Yellow Button	450.0	400.0	2300.0	2350.0	1.0	450.0	1.0	n/a	go_stim
240386.32653354318	106.67346645674525	n/a	447	71	2750	106.673466457	stim	stop-signal	681	1855938	0.0-25.4-1.4	beast_fmri_test	306	30.8889,30.9002,30.911533333333335,30.922883333333335	t,t,t,t	<img class = center src='/static/experiments/beast_fmri_test/images/B.png'></img>	71,89	2750.0	test	<img class = center src='/static/experiments/beast_fmri_test/images/redB.png'></img>	go	2300.0	1.0	4.0	go	target	B	71,Green Button	89,Yellow Button	450.0	400.0	2300.0	2350.0	1.0	450.0	1.0	n/a	ITI
241168.0	500	n/a	-1	-1	500	0.0	fixation	poldrack-single-stim	682	1856613	0.0-25.5-0.5	beast_fmri_test	306	30.935183333333335	t	<div class = centerbox><div class = fixation>+</div></div>	none	500.0	test	n/a	n/a	n/a	n/a	n/a	n/a	n/a	n/a	n/a	n/a	n/a	n/a	n/a	n/a	n/a	n/a	n/a	n/a	fixation
241000.04524703347	2750	n/a	817	71	2750	171.954752966	stim	stop-signal	683	1859367	0.0-25.5-1.5	beast_fmri_test	306	30.945533333333334,30.956866666666667,30.9682,30.979516666666665,30.990866666666665	t,t,t,t,t	<img class = center src='/static/experiments/beast_fmri_test/images/B.png'></img>	71,89	2750.0	test	<img class = center src='/static/experiments/beast_fmri_test/images/redB.png'></img>	go	2300.0	1.0	5.0	go	target	B	71,Green Button	89,Yellow Button	450.0	400.0	2300.0	2350.0	1.0	450.0	1.0	n/a	go_stim
243750.04524703347	171.95475296645031	n/a	817	71	2750	171.954752966	stim	stop-signal	683	1859367	0.0-25.5-1.5	beast_fmri_test	306	30.945533333333334,30.956866666666667,30.9682,30.979516666666665,30.990866666666665	t,t,t,t,t	<img class = center src='/static/experiments/beast_fmri_test/images/B.png'></img>	71,89	2750.0	test	<img class = center src='/static/experiments/beast_fmri_test/images/redB.png'></img>	go	2300.0	1.0	5.0	go	target	B	71,Green Button	89,Yellow Button	450.0	400.0	2300.0	2350.0	1.0	450.0	1.0	n/a	ITI
244672.0	500	n/a	-1	-1	500	0.0	fixation	poldrack-single-stim	684	1860117	0.0-25.6-0.6	beast_fmri_test	306	n/a	n/a	<div class = centerbox><div class = fixation>+</div></div>	none	500.0	test	n/a	n/a	n/a	n/a	n/a	n/a	n/a	n/a	n/a	n/a	n/a	n/a	n/a	n/a	n/a	n/a	n/a	n/a	fixation
239674.0	2750	n/a	1778	89	2750	5000.0	stim	stop-signal	685	1862869	0.0-25.6-1.6	beast_fmri_test	306	31.0022,31.013533333333335,31.02488333333333,31.0362,31.047516666666667,31.0588,31.070133333333334,31.081433333333333,31.0928,31.104116666666666,31.11545,31.126783333333332	t,t,t,t,t,t,t,t,t,t,t,t	<img class = center src='/static/experiments/beast_fmri_test/images/D.png'></img>	71,89	2750.0	test	<img class = center src='/static/experiments/beast_fmri_test/images/redD.png'></img>	go	2350.0	1.0	6.0	go	non-target	D	71,Green Button	89,Yellow Button	450.0	400.0	2300.0	2350.0	1.0	400.0	1.0	n/a	go_stim
242424.0	5000.0	n/a	1778	89	2750	5000.0	stim	stop-signal	685	1862869	0.0-25.6-1.6	beast_fmri_test	306	31.0022,31.013533333333335,31.02488333333333,31.0362,31.047516666666667,31.0588,31.070133333333334,31.081433333333333,31.0928,31.104116666666666,31.11545,31.126783333333332	t,t,t,t,t,t,t,t,t,t,t,t	<img class = center src='/static/experiments/beast_fmri_test/images/D.png'></img>	71,89	2750.0	test	<img class = center src='/static/experiments/beast_fmri_test/images/redD.png'></img>	go	2350.0	1.0	6.0	go	non-target	D	71,Green Button	89,Yellow Button	450.0	400.0	2300.0	2350.0	1.0	400.0	1.0	n/a	ITI
252984.0	500	n/a	-1	-1	500	0.0	fixation	poldrack-single-stim	686	1868429	0.0-25.7-0.7	beast_fmri_test	306	31.138116666666665	t	<div class = centerbox><div class = fixation>+</div></div>	none	500.0	test	n/a	n/a	n/a	n/a	n/a	n/a	n/a	n/a	n/a	n/a	n/a	n/a	n/a	n/a	n/a	n/a	n/a	n/a	fixation
252034.36314276326	2750	n/a	698	89	2750	953.636857237	stim	stop-signal	687	1871183	0.0-25.7-1.7	beast_fmri_test	306	31.14945,31.160783333333335,31.172133333333335,31.183466666666668,31.1948	t,t,t,t,t	<img class = center src='/static/experiments/beast_fmri_test/images/P.png'></img>	71,89	2750.0	test	<img class = center src='/static/experiments/beast_fmri_test/images/redP.png'></img>	go	2350.0	1.0	7.0	go	non-target	P	71,Green Button	89,Yellow Button	450.0	400.0	2300.0	2350.0	1.0	400.0	1.0	n/a	go_stim
254784.36314276326	953.63685723679362	n/a	698	89	2750	953.636857237	stim	stop-signal	687	1871183	0.0-25.7-1.7	beast_fmri_test	306	31.14945,31.160783333333335,31.172133333333335,31.183466666666668,31.1948	t,t,t,t,t	<img class = center src='/static/experiments/beast_fmri_test/images/P.png'></img>	71,89	2750.0	test	<img class = center src='/static/experiments/beast_fmri_test/images/redP.png'></img>	go	2350.0	1.0	7.0	go	non-target	P	71,Green Button	89,Yellow Button	450.0	400.0	2300.0	2350.0	1.0	400.0	1.0	n/a	ITI
257258.0	500	n/a	-1	-1	500	0.0	fixation	poldrack-single-stim	688	1872703	0.0-25.8-0.8	beast_fmri_test	306	31.206116666666667	t	<div class = centerbox><div class = fixation>+</div></div>	none	500.0	test	n/a	n/a	n/a	n/a	n/a	n/a	n/a	n/a	n/a	n/a	n/a	n/a	n/a	n/a	n/a	n/a	n/a	n/a	fixation
256618.26682425989	2750	n/a	1229	89	2750	637.73317574	stim	stop-signal	689	1875451	0.0-25.8-1.8	beast_fmri_test	306	31.2174,31.2287,31.240033333333333,31.251366666666666,31.262716666666666	t,t,t,t,t	<img class = center src='/static/experiments/beast_fmri_test/images/D.png'></img>	71,89	2750.0	test	<img class = center src='/static/experiments/beast_fmri_test/images/redD.png'></img>	go	2350.0	1.0	8.0	go	non-target	D	71,Green Button	89,Yellow Button	450.0	400.0	2300.0	2350.0	1.0	400.0	1.0	n/a	go_stim
259368.26682425989	637.7331757401987	n/a	1229	89	2750	637.73317574	stim	stop-signal	689	1875451	0.0-25.8-1.8	beast_fmri_test	306	31.2174,31.2287,31.240033333333333,31.251366666666666,31.262716666666666	t,t,t,t,t	<img class = center src='/static/experiments/beast_fmri_test/images/D.png'></img>	71,89	2750.0	test	<img class = center src='/static/experiments/beast_fmri_test/images/redD.png'></img>	go	2350.0	1.0	8.0	go	non-target	D	71,Green Button	89,Yellow Button	450.0	400.0	2300.0	2350.0	1.0	400.0	1.0	n/a	ITI
261215.0	500	n/a	-1	-1	500	0.0	fixation	poldrack-single-stim	690	1876660	0.0-25.9-0.9	beast_fmri_test	306	31.274033333333332	t	<div class = centerbox><div class = fixation>+</div></div>	none	500.0	test	n/a	n/a	n/a	n/a	n/a	n/a	n/a	n/a	n/a	n/a	n/a	n/a	n/a	n/a	n/a	n/a	n/a	n/a	fixation
260969.67235568934	2750	n/a	572	89	2750	248.327644311	stim	stop-signal	691	1879413	0.0-25.9-1.9	beast_fmri_test	306	31.285383333333332,31.296716666666665,31.308033333333334,31.319383333333334	t,t,t,t	<img class = center src='/static/experiments/beast_fmri_test/images/B.png'></img>	71,89	2750.0	test	<img class = center src='/static/experiments/beast_fmri_test/images/redB.png'></img>	go	2350.0	1.0	9.0	go	non-target	B	71,Green Button	89,Yellow Button	450.0	400.0	2300.0	2350.0	1.0	400.0	1.0	n/a	go_stim
263719.67235568934	248.327644310751	n/a	572	89	2750	248.327644311	stim	stop-signal	691	1879413	0.0-25.9-1.9	beast_fmri_test	306	31.285383333333332,31.296716666666665,31.308033333333334,31.319383333333334	t,t,t,t	<img class = center src='/static/experiments/beast_fmri_test/images/B.png'></img>	71,89	2750.0	test	<img class = center src='/static/experiments/beast_fmri_test/images/redB.png'></img>	go	2350.0	1.0	9.0	go	non-target	B	71,Green Button	89,Yellow Button	450.0	400.0	2300.0	2350.0	1.0	400.0	1.0	n/a	ITI
264785.0	500	n/a	-1	-1	500	0.0	fixation	poldrack-single-stim	692	1880230	0.0-25.10-0.10	beast_fmri_test	306	31.330716666666667	t	<div class = centerbox><div class = fixation>+</div></div>	none	500.0	test	n/a	n/a	n/a	n/a	n/a	n/a	n/a	n/a	n/a	n/a	n/a	n/a	n/a	n/a	n/a	n/a	n/a	n/a	fixation
262795.22556298855	2750	n/a	544	89	2750	1990.77443701	stim	stop-signal	693	1882981	0.0-25.10-1.10	beast_fmri_test	306	31.34205,31.353366666666666,31.3647,31.376033333333332,31.38735,31.398633333333333,31.409966666666666	t,t,t,t,t,t,t	<img class = center src='/static/experiments/beast_fmri_test/images/V.png'></img>	71,89	2750.0	test	<img class = center src='/static/experiments/beast_fmri_test/images/redV.png'></img>	go	2350.0	1.0	10.0	go	non-target	V	71,Green Button	89,Yellow Button	450.0	400.0	2300.0	2350.0	1.0	400.0	1.0	n/a	go_stim
265545.22556298855	1990.774437011499	n/a	544	89	2750	1990.77443701	stim	stop-signal	693	1882981	0.0-25.10-1.10	beast_fmri_test	306	31.34205,31.353366666666666,31.3647,31.376033333333332,31.38735,31.398633333333333,31.409966666666666	t,t,t,t,t,t,t	<img class = center src='/static/experiments/beast_fmri_test/images/V.png'></img>	71,89	2750.0	test	<img class = center src='/static/experiments/beast_fmri_test/images/redV.png'></img>	go	2350.0	1.0	10.0	go	non-target	V	71,Green Button	89,Yellow Button	450.0	400.0	2300.0	2350.0	1.0	400.0	1.0	n/a	ITI
270093.0	500	n/a	-1	-1	500	0.0	fixation	poldrack-single-stim	694	1885538	0.0-25.11-0.11	beast_fmri_test	306	31.421316666666666	t	<div class = centerbox><div class = fixation>+</div></div>	none	500.0	test	n/a	n/a	n/a	n/a	n/a	n/a	n/a	n/a	n/a	n/a	n/a	n/a	n/a	n/a	n/a	n/a	n/a	n/a	fixation
266490.41134675127	2750	n/a	491	89	2750	3605.58865325	stim	stop-signal	695	1888291	0.0-25.11-1.11	beast_fmri_test	306	31.432616666666668,31.443966666666668,31.455283333333334,31.466633333333334,31.477983333333334,31.4893,31.500633333333333,31.511966666666666,31.5233	t,t,t,t,t,t,t,t,t	<img class = center src='/static/experiments/beast_fmri_test/images/P.png'></img>	71,89	2750.0	test	<img class = center src='/static/experiments/beast_fmri_test/images/redP.png'></img>	go	2350.0	1.0	11.0	go	non-target	P	71,Green Button	89,Yellow Button	450.0	400.0	2300.0	2350.0	1.0	400.0	1.0	n/a	go_stim
269240.41134675127	3605.5886532488389	n/a	491	89	2750	3605.58865325	stim	stop-signal	695	1888291	0.0-25.11-1.11	beast_fmri_test	306	31.432616666666668,31.443966666666668,31.455283333333334,31.466633333333334,31.477983333333334,31.4893,31.500633333333333,31.511966666666666,31.5233	t,t,t,t,t,t,t,t,t	<img class = center src='/static/experiments/beast_fmri_test/images/P.png'></img>	71,89	2750.0	test	<img class = center src='/static/experiments/beast_fmri_test/images/redP.png'></img>	go	2350.0	1.0	11.0	go	non-target	P	71,Green Button	89,Yellow Button	450.0	400.0	2300.0	2350.0	1.0	400.0	1.0	n/a	ITI
277023.0	500	n/a	-1	-1	500	0.0	fixation	poldrack-single-stim	696	1892468	0.0-25.12-0.12	beast_fmri_test	306	31.534633333333332	t	<div class = centerbox><div class = fixation>+</div></div>	none	500.0	test	n/a	n/a	n/a	n/a	n/a	n/a	n/a	n/a	n/a	n/a	n/a	n/a	n/a	n/a	n/a	n/a	n/a	n/a	fixation
276893.98347940925	450.0	n/a	417	71	2750	127.016520591	stim	stop-signal	697	1895216	0.0-25.12-1.12	beast_fmri_test	306	31.545933333333334,31.55725,31.56855,31.579883333333335	t,t,t,t	<img class = center src='/static/experiments/beast_fmri_test/images/P.png'></img>	71,89	2750.0	test	<img class = center src='/static/experiments/beast_fmri_test/images/redP.png'></img>	stop	2300.0	1.0	12.0	stop	target	P	71,Green Button	89,Yellow Button	450.0	400.0	2300.0	2350.0	0.0	450.0	1.0	0.0	go_stim
279193.98347940925	2300.0	n/a	417	71	2750	127.016520591	stim	stop-signal	697	1895216	0.0-25.12-1.12	beast_fmri_test	306	31.545933333333334,31.55725,31.56855,31.579883333333335	t,t,t,t	<img class = center src='/static/experiments/beast_fmri_test/images/P.png'></img>	71,89	2750.0	test	<img class = center src='/static/experiments/beast_fmri_test/images/redP.png'></img>	stop	2300.0	1.0	12.0	stop	target	P	71,Green Button	89,Yellow Button	450.0	400.0	2300.0	2350.0	0.0	450.0	1.0	0.0	stop_stim
279643.98347940925	127.0165205906422	n/a	417	71	2750	127.016520591	stim	stop-signal	697	1895216	0.0-25.12-1.12	beast_fmri_test	306	31.545933333333334,31.55725,31.56855,31.579883333333335	t,t,t,t	<img class = center src='/static/experiments/beast_fmri_test/images/P.png'></img>	71,89	2750.0	test	<img class = center src='/static/experiments/beast_fmri_test/images/redP.png'></img>	stop	2300.0	1.0	12.0	stop	target	P	71,Green Button	89,Yellow Button	450.0	400.0	2300.0	2350.0	0.0	450.0	1.0	0.0	ITI
280465.0	500	n/a	-1	-1	500	0.0	fixation	poldrack-single-stim	698	1895910	0.0-25.13-0.13	beast_fmri_test	306	31.5912	t	<div class = centerbox><div class = fixation>+</div></div>	none	500.0	test	n/a	n/a	n/a	n/a	n/a	n/a	n/a	n/a	n/a	n/a	n/a	n/a	n/a	n/a	n/a	n/a	n/a	n/a	fixation
280199.32516951673	2750	n/a	1175	89	2750	269.674830483	stim	stop-signal	699	1898664	0.0-25.13-1.13	beast_fmri_test	306	31.60255,31.613883333333334,31.625216666666667,31.63655,31.647866666666665	t,t,t,t,t	<img class = center src='/static/experiments/beast_fmri_test/images/T.png'></img>	71,89	2750.0	test	<img class = center src='/static/experiments/beast_fmri_test/images/redT.png'></img>	go	2350.0	1.0	13.0	go	non-target	T	71,Green Button	89,Yellow Button	400.0	400.0	2300.0	2350.0	1.0	400.0	1.0	n/a	go_stim
282949.32516951673	269.67483048318923	n/a	1175	89	2750	269.674830483	stim	stop-signal	699	1898664	0.0-25.13-1.13	beast_fmri_test	306	31.60255,31.613883333333334,31.625216666666667,31.63655,31.647866666666665	t,t,t,t,t	<img class = center src='/static/experiments/beast_fmri_test/images/T.png'></img>	71,89	2750.0	test	<img class = center src='/static/experiments/beast_fmri_test/images/redT.png'></img>	go	2350.0	1.0	13.0	go	non-target	T	71,Green Button	89,Yellow Button	400.0	400.0	2300.0	2350.0	1.0	400.0	1.0	n/a	ITI
284059.0	500	n/a	-1	-1	500	0.0	fixation	poldrack-single-stim	700	1899504	0.0-25.14-0.14	beast_fmri_test	306	n/a	n/a	<div class = centerbox><div class = fixation>+</div></div>	none	500.0	test	n/a	n/a	n/a	n/a	n/a	n/a	n/a	n/a	n/a	n/a	n/a	n/a	n/a	n/a	n/a	n/a	n/a	n/a	fixation
283643.61459078547	2750	n/a	701	89	2750	419.385409214	stim	stop-signal	701	1902258	0.0-25.14-1.14	beast_fmri_test	306	31.659216666666666,31.67055,31.68188333333333,31.693216666666668,31.704533333333334	t,t,t,t,t	<img class = center src='/static/experiments/beast_fmri_test/images/V.png'></img>	71,89	2750.0	test	<img class = center src='/static/experiments/beast_fmri_test/images/redV.png'></img>	go	2350.0	1.0	14.0	go	non-target	V	71,Green Button	89,Yellow Button	400.0	400.0	2300.0	2350.0	1.0	400.0	1.0	n/a	go_stim
286393.61459078547	419.38540921447401	n/a	701	89	2750	419.385409214	stim	stop-signal	701	1902258	0.0-25.14-1.14	beast_fmri_test	306	31.659216666666666,31.67055,31.68188333333333,31.693216666666668,31.704533333333334	t,t,t,t,t	<img class = center src='/static/experiments/beast_fmri_test/images/V.png'></img>	71,89	2750.0	test	<img class = center src='/static/experiments/beast_fmri_test/images/redV.png'></img>	go	2350.0	1.0	14.0	go	non-target	V	71,Green Button	89,Yellow Button	400.0	400.0	2300.0	2350.0	1.0	400.0	1.0	n/a	ITI
287805.0	500	n/a	-1	-1	500	0.0	fixation	poldrack-single-stim	702	1903250	0.0-25.15-0.15	beast_fmri_test	306	31.715866666666667	t	<div class = centerbox><div class = fixation>+</div></div>	none	500.0	test	n/a	n/a	n/a	n/a	n/a	n/a	n/a	n/a	n/a	n/a	n/a	n/a	n/a	n/a	n/a	n/a	n/a	n/a	fixation
287558.09357160307	2750	n/a	1181	89	2750	248.906428397	stim	stop-signal	703	1906002	0.0-25.15-1.15	beast_fmri_test	306	31.72715,31.738483333333335,31.7498,31.76115	t,t,t,t	<img class = center src='/static/experiments/beast_fmri_test/images/P.png'></img>	71,89	2750.0	test	<img class = center src='/static/experiments/beast_fmri_test/images/redP.png'></img>	go	2350.0	1.0	15.0	go	non-target	P	71,Green Button	89,Yellow Button	400.0	400.0	2300.0	2350.0	1.0	400.0	1.0	n/a	go_stim
290308.09357160307	248.90642839684611	n/a	1181	89	2750	248.906428397	stim	stop-signal	703	1906002	0.0-25.15-1.15	beast_fmri_test	306	31.72715,31.738483333333335,31.7498,31.76115	t,t,t,t	<img class = center src='/static/experiments/beast_fmri_test/images/P.png'></img>	71,89	2750.0	test	<img class = center src='/static/experiments/beast_fmri_test/images/redP.png'></img>	go	2350.0	1.0	15.0	go	non-target	P	71,Green Button	89,Yellow Button	400.0	400.0	2300.0	2350.0	1.0	400.0	1.0	n/a	ITI
291374.0	500	n/a	-1	-1	500	0.0	fixation	poldrack-single-stim	704	1906819	0.0-25.16-0.16	beast_fmri_test	306	31.772516666666668	t	<div class = centerbox><div class = fixation>+</div></div>	none	500.0	test	n/a	n/a	n/a	n/a	n/a	n/a	n/a	n/a	n/a	n/a	n/a	n/a	n/a	n/a	n/a	n/a	n/a	n/a	fixation
291056.8370876105	400.0	n/a	-1	-1	2750	321.162912389	stim	stop-signal	705	1909573	0.0-25.16-1.16	beast_fmri_test	306	31.783783333333332,31.795133333333332,31.8065,31.817833333333333,31.82915	t,t,t,t,t	<img class = center src='/static/experiments/beast_fmri_test/images/T.png'></img>	71,89	2750.0	test	<img class = center src='/static/experiments/beast_fmri_test/images/redT.png'></img>	stop	2350.0	1.0	16.0	stop	non-target	T	71,Green Button	89,Yellow Button	400.0	400.0	2300.0	2350.0	0.0	400.0	0.0	1.0	go_stim
293406.8370876105	2350.0	n/a	-1	-1	2750	321.162912389	stim	stop-signal	705	1909573	0.0-25.16-1.16	beast_fmri_test	306	31.783783333333332,31.795133333333332,31.8065,31.817833333333333,31.82915	t,t,t,t,t	<img class = center src='/static/experiments/beast_fmri_test/images/T.png'></img>	71,89	2750.0	test	<img class = center src='/static/experiments/beast_fmri_test/images/redT.png'></img>	stop	2350.0	1.0	16.0	stop	non-target	T	71,Green Button	89,Yellow Button	400.0	400.0	2300.0	2350.0	0.0	400.0	0.0	1.0	stop_stim
293806.8370876105	321.16291238941955	n/a	-1	-1	2750	321.162912389	stim	stop-signal	705	1909573	0.0-25.16-1.16	beast_fmri_test	306	31.783783333333332,31.795133333333332,31.8065,31.817833333333333,31.82915	t,t,t,t,t	<img class = center src='/static/experiments/beast_fmri_test/images/T.png'></img>	71,89	2750.0	test	<img class = center src='/static/experiments/beast_fmri_test/images/redT.png'></img>	stop	2350.0	1.0	16.0	stop	non-target	T	71,Green Button	89,Yellow Button	400.0	400.0	2300.0	2350.0	0.0	400.0	0.0	1.0	ITI
295022.0	500	n/a	-1	-1	500	0.0	fixation	poldrack-single-stim	706	1910467	0.0-25.17-0.17	beast_fmri_test	306	31.840483333333335	t	<div class = centerbox><div class = fixation>+</div></div>	none	500.0	test	n/a	n/a	n/a	n/a	n/a	n/a	n/a	n/a	n/a	n/a	n/a	n/a	n/a	n/a	n/a	n/a	n/a	n/a	fixation
294629.23839567415	2750	n/a	764	89	2750	393.761604326	stim	stop-signal	707	1913218	0.0-25.17-1.17	beast_fmri_test	306	31.85183333333333,31.863133333333334,31.874483333333334,31.885766666666665	t,t,t,t	<img class = center src='/static/experiments/beast_fmri_test/images/V.png'></img>	71,89	2750.0	test	<img class = center src='/static/experiments/beast_fmri_test/images/redV.png'></img>	go	2300.0	1.0	17.0	go	non-target	V	71,Green Button	89,Yellow Button	400.0	450.0	2300.0	2300.0	1.0	450.0	1.0	n/a	go_stim
297379.23839567415	393.76160432595742	n/a	764	89	2750	393.761604326	stim	stop-signal	707	1913218	0.0-25.17-1.17	beast_fmri_test	306	31.85183333333333,31.863133333333334,31.874483333333334,31.885766666666665	t,t,t,t	<img class = center src='/static/experiments/beast_fmri_test/images/V.png'></img>	71,89	2750.0	test	<img class = center src='/static/experiments/beast_fmri_test/images/redV.png'></img>	go	2300.0	1.0	17.0	go	non-target	V	71,Green Button	89,Yellow Button	400.0	450.0	2300.0	2300.0	1.0	450.0	1.0	n/a	ITI
298732.0	500	n/a	-1	-1	500	0.0	fixation	poldrack-single-stim	708	1914177	0.0-25.18-0.18	beast_fmri_test	306	31.897066666666667	t	<div class = centerbox><div class = fixation>+</div></div>	none	500.0	test	n/a	n/a	n/a	n/a	n/a	n/a	n/a	n/a	n/a	n/a	n/a	n/a	n/a	n/a	n/a	n/a	n/a	n/a	fixation
298125.90318731265	2750	n/a	636	71	2750	609.096812687	stim	stop-signal	709	1916930	0.0-25.18-1.18	beast_fmri_test	306	31.9084,31.919733333333333,31.931066666666666,31.9424,31.953733333333332	t,t,t,t,t	<img class = center src='/static/experiments/beast_fmri_test/images/V.png'></img>	71,89	2750.0	test	<img class = center src='/static/experiments/beast_fmri_test/images/redV.png'></img>	go	2350.0	1.0	18.0	go	target	V	71,Green Button	89,Yellow Button	400.0	450.0	2350.0	2300.0	1.0	400.0	1.0	n/a	go_stim
300875.90318731265	609.09681268735142	n/a	636	71	2750	609.096812687	stim	stop-signal	709	1916930	0.0-25.18-1.18	beast_fmri_test	306	31.9084,31.919733333333333,31.931066666666666,31.9424,31.953733333333332	t,t,t,t,t	<img class = center src='/static/experiments/beast_fmri_test/images/V.png'></img>	71,89	2750.0	test	<img class = center src='/static/experiments/beast_fmri_test/images/redV.png'></img>	go	2350.0	1.0	18.0	go	target	V	71,Green Button	89,Yellow Button	400.0	450.0	2350.0	2300.0	1.0	400.0	1.0	n/a	ITI
302665.0	500	n/a	-1	-1	500	0.0	fixation	poldrack-single-stim	710	1918110	0.0-25.19-0.19	beast_fmri_test	306	31.965066666666665	t	<div class = centerbox><div class = fixation>+</div></div>	none	500.0	test	n/a	n/a	n/a	n/a	n/a	n/a	n/a	n/a	n/a	n/a	n/a	n/a	n/a	n/a	n/a	n/a	n/a	n/a	fixation
302146.69904324156	2750	n/a	941	71	2750	521.300956758	stim	stop-signal	711	1920863	0.0-25.19-1.19	beast_fmri_test	306	31.976416666666665,31.987716666666667,31.999066666666668,32.010416666666664,32.02173333333333	t,t,t,t,t	<img class = center src='/static/experiments/beast_fmri_test/images/V.png'></img>	71,89	2750.0	test	<img class = center src='/static/experiments/beast_fmri_test/images/redV.png'></img>	go	2350.0	1.0	19.0	go	target	V	71,Green Button	89,Yellow Button	400.0	450.0	2350.0	2300.0	1.0	400.0	1.0	n/a	go_stim
304896.69904324156	521.30095675833707	n/a	941	71	2750	521.300956758	stim	stop-signal	711	1920863	0.0-25.19-1.19	beast_fmri_test	306	31.976416666666665,31.987716666666667,31.999066666666668,32.010416666666664,32.02173333333333	t,t,t,t,t	<img class = center src='/static/experiments/beast_fmri_test/images/V.png'></img>	71,89	2750.0	test	<img class = center src='/static/experiments/beast_fmri_test/images/redV.png'></img>	go	2350.0	1.0	19.0	go	target	V	71,Green Button	89,Yellow Button	400.0	450.0	2350.0	2300.0	1.0	400.0	1.0	n/a	ITI
306510.0	500	n/a	-1	-1	500	0.0	fixation	poldrack-single-stim	712	1921955	0.0-25.20-0.20	beast_fmri_test	306	n/a	n/a	<div class = centerbox><div class = fixation>+</div></div>	none	500.0	test	n/a	n/a	n/a	n/a	n/a	n/a	n/a	n/a	n/a	n/a	n/a	n/a	n/a	n/a	n/a	n/a	n/a	n/a	fixation
