onset	duration	text	rt	key_press	block_duration	timing_post_trial	trial_id	trial_type	trial_index	time_elapsed	internal_node_id	exp_id	subject_id	trigger_times	triggers	stimulus	possible_responses	stim_duration	exp_stage	SS_stimulus	SS_trial_type	SS_duration	load	trial_num	stop_trial_type	adaptive_trial_type	stim	yes_response_key	no_response_key	SSD_target	SSD_non_target	SSTarget	SSNonTarget	go_acc	SS_delay	adaptive_acc	stop_acc	new_trial_type
test	10880	n/a	-1	-1	10880	0.0	practice-no-stop-feedback	poldrack-single-stim	4	80676	0.0-4.0	beast_fmri_test	306	1.1633,1.1745833333333333,1.1859166666666667,1.1972666666666667,1.2085833333333333,1.2199166666666668,1.2312333333333334,1.2425166666666667,1.25385,1.2651666666666668,1.2765166666666667,1.2878333333333334,1.2991666666666666,1.3104833333333332,1.3218333333333334,1.3331833333333334,1.3445166666666666	t,t,t,t,t,t,t,t,t,t,t,t,t,t,t,t,t	"<div class = ""centerbox""><p class = ""center-block-text"">Your delay is 2 trials.</p><p class = center-block-text>Please wait for the scanner to start the block</p></div>"	77	10880.0	n/a	n/a	n/a	n/a	n/a	n/a	n/a	n/a	n/a	n/a	n/a	n/a	n/a	n/a	n/a	n/a	n/a	n/a	n/a	start_functional_block
11382.0	500	n/a	-1	-1	500	0.0	fixation	poldrack-single-stim	5	81180	0.0-5.0-0.0	beast_fmri_test	306	n/a	n/a	<div class = centerbox><div class = fixation>+</div></div>	none	500.0	test	n/a	n/a	n/a	n/a	n/a	n/a	n/a	n/a	n/a	n/a	n/a	n/a	n/a	n/a	n/a	n/a	n/a	n/a	fixation
10033.476057739477	2750	n/a	658	89	2750	1353.52394226	stim	stop-signal	6	83935	0.0-5.0-1.0	beast_fmri_test	306	1.3558166666666667,1.3671666666666666,1.3785,1.3898333333333333,1.4011,1.4124333333333334	t,t,t,t,t,t	<img class = center src='/static/experiments/beast_fmri_test/images/D.png'></img>	71,89	2750.0	test	<img class = center src='/static/experiments/beast_fmri_test/images/redD.png'></img>	go	-1.0	2.0	0.0	go	temp-non-target	D	71,Green Button	89,Yellow Button	500.0	500.0	0.0	0.0	0.0	n/a	n/a	n/a	go_stim
12783.476057739477	1353.5239422605282	n/a	658	89	2750	1353.52394226	stim	stop-signal	6	83935	0.0-5.0-1.0	beast_fmri_test	306	1.3558166666666667,1.3671666666666666,1.3785,1.3898333333333333,1.4011,1.4124333333333334	t,t,t,t,t,t	<img class = center src='/static/experiments/beast_fmri_test/images/D.png'></img>	71,89	2750.0	test	<img class = center src='/static/experiments/beast_fmri_test/images/redD.png'></img>	go	-1.0	2.0	0.0	go	temp-non-target	D	71,Green Button	89,Yellow Button	500.0	500.0	0.0	0.0	0.0	n/a	n/a	n/a	ITI
15998.0	500	n/a	-1	-1	500	0.0	fixation	poldrack-single-stim	7	85796	0.0-5.1-0.1	beast_fmri_test	306	1.4237666666666666	t	<div class = centerbox><div class = fixation>+</div></div>	none	500.0	test	n/a	n/a	n/a	n/a	n/a	n/a	n/a	n/a	n/a	n/a	n/a	n/a	n/a	n/a	n/a	n/a	n/a	n/a	fixation
15772.092274441238	2750	n/a	722	89	2750	229.907725559	stim	stop-signal	8	88550	0.0-5.1-1.1	beast_fmri_test	306	1.4350833333333333,1.4464333333333332,1.4577833333333334,1.4691	t,t,t,t	<img class = center src='/static/experiments/beast_fmri_test/images/D.png'></img>	71,89	2750.0	test	<img class = center src='/static/experiments/beast_fmri_test/images/redD.png'></img>	go	-1.0	2.0	1.0	go	temp-non-target	D	71,Green Button	89,Yellow Button	500.0	500.0	0.0	0.0	0.0	n/a	n/a	n/a	go_stim
18522.092274441238	229.90772555876495	n/a	722	89	2750	229.907725559	stim	stop-signal	8	88550	0.0-5.1-1.1	beast_fmri_test	306	1.4350833333333333,1.4464333333333332,1.4577833333333334,1.4691	t,t,t,t	<img class = center src='/static/experiments/beast_fmri_test/images/D.png'></img>	71,89	2750.0	test	<img class = center src='/static/experiments/beast_fmri_test/images/redD.png'></img>	go	-1.0	2.0	1.0	go	temp-non-target	D	71,Green Button	89,Yellow Button	500.0	500.0	0.0	0.0	0.0	n/a	n/a	n/a	ITI
19487.0	500	n/a	-1	-1	500	0.0	fixation	poldrack-single-stim	9	89285	0.0-5.2-0.2	beast_fmri_test	306	1.4804333333333333	t	<div class = centerbox><div class = fixation>+</div></div>	none	500.0	test	n/a	n/a	n/a	n/a	n/a	n/a	n/a	n/a	n/a	n/a	n/a	n/a	n/a	n/a	n/a	n/a	n/a	n/a	fixation
19463.913002036672	2750	n/a	1023	89	2750	28.0869979633	stim	stop-signal	10	92040	0.0-5.2-1.2	beast_fmri_test	306	1.4917666666666667,1.5031,1.5144333333333333,1.5257666666666667	t,t,t,t	<img class = center src='/static/experiments/beast_fmri_test/images/B.png'></img>	71,89	2750.0	test	<img class = center src='/static/experiments/beast_fmri_test/images/redB.png'></img>	go	2250.0	2.0	2.0	go	non-target	B	71,Green Button	89,Yellow Button	500.0	500.0	0.0	2250.0	1.0	500.0	1.0	n/a	go_stim
22213.913002036672	28.086997963332518	n/a	1023	89	2750	28.0869979633	stim	stop-signal	10	92040	0.0-5.2-1.2	beast_fmri_test	306	1.4917666666666667,1.5031,1.5144333333333333,1.5257666666666667	t,t,t,t	<img class = center src='/static/experiments/beast_fmri_test/images/B.png'></img>	71,89	2750.0	test	<img class = center src='/static/experiments/beast_fmri_test/images/redB.png'></img>	go	2250.0	2.0	2.0	go	non-target	B	71,Green Button	89,Yellow Button	500.0	500.0	0.0	2250.0	1.0	500.0	1.0	n/a	ITI
22778.0	500	n/a	-1	-1	500	0.0	fixation	poldrack-single-stim	11	92576	0.0-5.3-0.3	beast_fmri_test	306	1.5371166666666667	t	<div class = centerbox><div class = fixation>+</div></div>	none	500.0	test	n/a	n/a	n/a	n/a	n/a	n/a	n/a	n/a	n/a	n/a	n/a	n/a	n/a	n/a	n/a	n/a	n/a	n/a	fixation
21698.638474312014	2750	n/a	764	89	2750	1077.36152569	stim	stop-signal	12	95324	0.0-5.3-1.3	beast_fmri_test	306	1.5484333333333333,1.5597666666666667,1.57105,1.58235,1.5936833333333333,1.6050166666666668	t,t,t,t,t,t	<img class = center src='/static/experiments/beast_fmri_test/images/P.png'></img>	71,89	2750.0	test	<img class = center src='/static/experiments/beast_fmri_test/images/redP.png'></img>	go	2250.0	2.0	3.0	go	non-target	P	71,Green Button	89,Yellow Button	500.0	500.0	0.0	2250.0	1.0	500.0	1.0	n/a	go_stim
24448.638474312014	1077.3615256879827	n/a	764	89	2750	1077.36152569	stim	stop-signal	12	95324	0.0-5.3-1.3	beast_fmri_test	306	1.5484333333333333,1.5597666666666667,1.57105,1.58235,1.5936833333333333,1.6050166666666668	t,t,t,t,t,t	<img class = center src='/static/experiments/beast_fmri_test/images/P.png'></img>	71,89	2750.0	test	<img class = center src='/static/experiments/beast_fmri_test/images/redP.png'></img>	go	2250.0	2.0	3.0	go	non-target	P	71,Green Button	89,Yellow Button	500.0	500.0	0.0	2250.0	1.0	500.0	1.0	n/a	ITI
27110.0	500	n/a	-1	-1	500	0.0	fixation	poldrack-single-stim	13	96908	0.0-5.4-0.4	beast_fmri_test	306	n/a	n/a	<div class = centerbox><div class = fixation>+</div></div>	none	500.0	test	n/a	n/a	n/a	n/a	n/a	n/a	n/a	n/a	n/a	n/a	n/a	n/a	n/a	n/a	n/a	n/a	n/a	n/a	fixation
26327.032714226021	2750	n/a	703	89	2750	785.967285774	stim	stop-signal	14	99661	0.0-5.4-1.4	beast_fmri_test	306	1.6163666666666667,1.6276833333333334,1.6390333333333333,1.65035,1.6616833333333334,1.673	t,t,t,t,t,t	<img class = center src='/static/experiments/beast_fmri_test/images/T.png'></img>	71,89	2750.0	test	<img class = center src='/static/experiments/beast_fmri_test/images/redT.png'></img>	go	2250.0	2.0	4.0	go	non-target	T	71,Green Button	89,Yellow Button	500.0	500.0	0.0	2250.0	1.0	500.0	1.0	n/a	go_stim
29077.032714226021	785.9672857739763	n/a	703	89	2750	785.967285774	stim	stop-signal	14	99661	0.0-5.4-1.4	beast_fmri_test	306	1.6163666666666667,1.6276833333333334,1.6390333333333333,1.65035,1.6616833333333334,1.673	t,t,t,t,t,t	<img class = center src='/static/experiments/beast_fmri_test/images/T.png'></img>	71,89	2750.0	test	<img class = center src='/static/experiments/beast_fmri_test/images/redT.png'></img>	go	2250.0	2.0	4.0	go	non-target	T	71,Green Button	89,Yellow Button	500.0	500.0	0.0	2250.0	1.0	500.0	1.0	n/a	ITI
31156.0	500	n/a	-1	-1	500	0.0	fixation	poldrack-single-stim	15	100954	0.0-5.5-0.5	beast_fmri_test	306	n/a	n/a	<div class = centerbox><div class = fixation>+</div></div>	none	500.0	test	n/a	n/a	n/a	n/a	n/a	n/a	n/a	n/a	n/a	n/a	n/a	n/a	n/a	n/a	n/a	n/a	n/a	n/a	fixation
30956.518086217242	2750	n/a	808	71	2750	201.481913783	stim	stop-signal	16	103706	0.0-5.5-1.5	beast_fmri_test	306	1.68435,1.6957,1.7070166666666666,1.7183333333333333,1.7296666666666667	t,t,t,t,t	<img class = center src='/static/experiments/beast_fmri_test/images/P.png'></img>	71,89	2750.0	test	<img class = center src='/static/experiments/beast_fmri_test/images/redP.png'></img>	go	2250.0	2.0	5.0	go	target	P	71,Green Button	89,Yellow Button	500.0	500.0	2250.0	2250.0	1.0	500.0	1.0	n/a	go_stim
33706.518086217242	201.48191378275848	n/a	808	71	2750	201.481913783	stim	stop-signal	16	103706	0.0-5.5-1.5	beast_fmri_test	306	1.68435,1.6957,1.7070166666666666,1.7183333333333333,1.7296666666666667	t,t,t,t,t	<img class = center src='/static/experiments/beast_fmri_test/images/P.png'></img>	71,89	2750.0	test	<img class = center src='/static/experiments/beast_fmri_test/images/redP.png'></img>	go	2250.0	2.0	5.0	go	target	P	71,Green Button	89,Yellow Button	500.0	500.0	2250.0	2250.0	1.0	500.0	1.0	n/a	ITI
34619.0	500	n/a	-1	-1	500	0.0	fixation	poldrack-single-stim	17	104417	0.0-5.6-0.6	beast_fmri_test	306	n/a	n/a	<div class = centerbox><div class = fixation>+</div></div>	none	500.0	test	n/a	n/a	n/a	n/a	n/a	n/a	n/a	n/a	n/a	n/a	n/a	n/a	n/a	n/a	n/a	n/a	n/a	n/a	fixation
34318.726446845089	2750	n/a	643	71	2750	303.273553155	stim	stop-signal	18	107170	0.0-5.6-1.6	beast_fmri_test	306	1.7409333333333334,1.7522666666666666,1.7635833333333333,1.77495,1.7862666666666667	t,t,t,t,t	<img class = center src='/static/experiments/beast_fmri_test/images/T.png'></img>	71,89	2750.0	test	<img class = center src='/static/experiments/beast_fmri_test/images/redT.png'></img>	go	2250.0	2.0	6.0	go	target	T	71,Green Button	89,Yellow Button	500.0	500.0	2250.0	2250.0	1.0	500.0	1.0	n/a	go_stim
37068.726446845089	303.27355315490985	n/a	643	71	2750	303.273553155	stim	stop-signal	18	107170	0.0-5.6-1.6	beast_fmri_test	306	1.7409333333333334,1.7522666666666666,1.7635833333333333,1.77495,1.7862666666666667	t,t,t,t,t	<img class = center src='/static/experiments/beast_fmri_test/images/T.png'></img>	71,89	2750.0	test	<img class = center src='/static/experiments/beast_fmri_test/images/redT.png'></img>	go	2250.0	2.0	6.0	go	target	T	71,Green Button	89,Yellow Button	500.0	500.0	2250.0	2250.0	1.0	500.0	1.0	n/a	ITI
38184.0	500	n/a	-1	-1	500	0.0	fixation	poldrack-single-stim	19	107982	0.0-5.7-0.7	beast_fmri_test	306	1.7976166666666666	t	<div class = centerbox><div class = fixation>+</div></div>	none	500.0	test	n/a	n/a	n/a	n/a	n/a	n/a	n/a	n/a	n/a	n/a	n/a	n/a	n/a	n/a	n/a	n/a	n/a	n/a	fixation
37169.932609345298	500.0	n/a	926	71	2750	1017.06739065	stim	stop-signal	20	110735	0.0-5.7-1.7	beast_fmri_test	306	1.8089333333333333,1.8202833333333333,1.8316,1.8429333333333333,1.8542833333333333	t,t,t,t,t	<img class = center src='/static/experiments/beast_fmri_test/images/P.png'></img>	71,89	2750.0	test	<img class = center src='/static/experiments/beast_fmri_test/images/redP.png'></img>	stop	2250.0	2.0	7.0	stop	target	P	71,Green Button	89,Yellow Button	500.0	500.0	2250.0	2250.0	0.0	500.0	1.0	0.0	go_stim
39419.932609345298	2250.0	n/a	926	71	2750	1017.06739065	stim	stop-signal	20	110735	0.0-5.7-1.7	beast_fmri_test	306	1.8089333333333333,1.8202833333333333,1.8316,1.8429333333333333,1.8542833333333333	t,t,t,t,t	<img class = center src='/static/experiments/beast_fmri_test/images/P.png'></img>	71,89	2750.0	test	<img class = center src='/static/experiments/beast_fmri_test/images/redP.png'></img>	stop	2250.0	2.0	7.0	stop	target	P	71,Green Button	89,Yellow Button	500.0	500.0	2250.0	2250.0	0.0	500.0	1.0	0.0	stop_stim
39919.932609345298	1017.0673906546975	n/a	926	71	2750	1017.06739065	stim	stop-signal	20	110735	0.0-5.7-1.7	beast_fmri_test	306	1.8089333333333333,1.8202833333333333,1.8316,1.8429333333333333,1.8542833333333333	t,t,t,t,t	<img class = center src='/static/experiments/beast_fmri_test/images/P.png'></img>	71,89	2750.0	test	<img class = center src='/static/experiments/beast_fmri_test/images/redP.png'></img>	stop	2250.0	2.0	7.0	stop	target	P	71,Green Button	89,Yellow Button	500.0	500.0	2250.0	2250.0	0.0	500.0	1.0	0.0	ITI
42461.0	500	n/a	-1	-1	500	0.0	fixation	poldrack-single-stim	21	112259	0.0-5.8-0.8	beast_fmri_test	306	1.8656	t	<div class = centerbox><div class = fixation>+</div></div>	none	500.0	test	n/a	n/a	n/a	n/a	n/a	n/a	n/a	n/a	n/a	n/a	n/a	n/a	n/a	n/a	n/a	n/a	n/a	n/a	fixation
42403.743159490521	2750	n/a	1271	71	2750	54.2568405095	stim	stop-signal	22	115006	0.0-5.8-1.8	beast_fmri_test	306	1.87695,1.8882833333333333,1.8995833333333334,1.91085	t,t,t,t	<img class = center src='/static/experiments/beast_fmri_test/images/P.png'></img>	71,89	2750.0	test	<img class = center src='/static/experiments/beast_fmri_test/images/redP.png'></img>	go	2250.0	2.0	8.0	go	non-target	P	71,Green Button	89,Yellow Button	450.0	500.0	2250.0	2250.0	0.0	500.0	0.0	n/a	go_stim
45153.743159490521	54.256840509484903	n/a	1271	71	2750	54.2568405095	stim	stop-signal	22	115006	0.0-5.8-1.8	beast_fmri_test	306	1.87695,1.8882833333333333,1.8995833333333334,1.91085	t,t,t,t	<img class = center src='/static/experiments/beast_fmri_test/images/P.png'></img>	71,89	2750.0	test	<img class = center src='/static/experiments/beast_fmri_test/images/redP.png'></img>	go	2250.0	2.0	8.0	go	non-target	P	71,Green Button	89,Yellow Button	450.0	500.0	2250.0	2250.0	0.0	500.0	0.0	n/a	ITI
45768.0	500	n/a	-1	-1	500	0.0	fixation	poldrack-single-stim	23	115566	0.0-5.9-0.9	beast_fmri_test	306	1.9221833333333334	t	<div class = centerbox><div class = fixation>+</div></div>	none	500.0	test	n/a	n/a	n/a	n/a	n/a	n/a	n/a	n/a	n/a	n/a	n/a	n/a	n/a	n/a	n/a	n/a	n/a	n/a	fixation
45482.231575641476	2750	n/a	1005	71	2750	289.768424359	stim	stop-signal	24	118320	0.0-5.9-1.9	beast_fmri_test	306	1.93355,1.9448833333333333,1.9562166666666667,1.96755	t,t,t,t	<img class = center src='/static/experiments/beast_fmri_test/images/P.png'></img>	71,89	2750.0	test	<img class = center src='/static/experiments/beast_fmri_test/images/redP.png'></img>	go	2300.0	2.0	9.0	go	target	P	71,Green Button	89,Yellow Button	450.0	500.0	2300.0	2250.0	1.0	450.0	1.0	n/a	go_stim
48232.231575641476	289.76842435851785	n/a	1005	71	2750	289.768424359	stim	stop-signal	24	118320	0.0-5.9-1.9	beast_fmri_test	306	1.93355,1.9448833333333333,1.9562166666666667,1.96755	t,t,t,t	<img class = center src='/static/experiments/beast_fmri_test/images/P.png'></img>	71,89	2750.0	test	<img class = center src='/static/experiments/beast_fmri_test/images/redP.png'></img>	go	2300.0	2.0	9.0	go	target	P	71,Green Button	89,Yellow Button	450.0	500.0	2300.0	2250.0	1.0	450.0	1.0	n/a	ITI
49317.0	500	n/a	-1	-1	500	0.0	fixation	poldrack-single-stim	25	119115	0.0-5.10-0.10	beast_fmri_test	306	1.97885	t	<div class = centerbox><div class = fixation>+</div></div>	none	500.0	test	n/a	n/a	n/a	n/a	n/a	n/a	n/a	n/a	n/a	n/a	n/a	n/a	n/a	n/a	n/a	n/a	n/a	n/a	fixation
48459.138459154638	2750	n/a	1047	71	2750	858.861540845	stim	stop-signal	26	121866	0.0-5.10-1.10	beast_fmri_test	306	1.9901333333333333,2.0014666666666665,2.0128,2.0241,2.0354666666666668	t,t,t,t,t	<img class = center src='/static/experiments/beast_fmri_test/images/P.png'></img>	71,89	2750.0	test	<img class = center src='/static/experiments/beast_fmri_test/images/redP.png'></img>	go	2300.0	2.0	10.0	go	target	P	71,Green Button	89,Yellow Button	450.0	500.0	2300.0	2250.0	1.0	450.0	1.0	n/a	go_stim
51209.138459154638	858.86154084536884	n/a	1047	71	2750	858.861540845	stim	stop-signal	26	121866	0.0-5.10-1.10	beast_fmri_test	306	1.9901333333333333,2.0014666666666665,2.0128,2.0241,2.0354666666666668	t,t,t,t,t	<img class = center src='/static/experiments/beast_fmri_test/images/P.png'></img>	71,89	2750.0	test	<img class = center src='/static/experiments/beast_fmri_test/images/redP.png'></img>	go	2300.0	2.0	10.0	go	target	P	71,Green Button	89,Yellow Button	450.0	500.0	2300.0	2250.0	1.0	450.0	1.0	n/a	ITI
53436.0	500	n/a	-1	-1	500	0.0	fixation	poldrack-single-stim	27	123234	0.0-5.11-0.11	beast_fmri_test	306	2.0467833333333334	t	<div class = centerbox><div class = fixation>+</div></div>	none	500.0	test	n/a	n/a	n/a	n/a	n/a	n/a	n/a	n/a	n/a	n/a	n/a	n/a	n/a	n/a	n/a	n/a	n/a	n/a	fixation
52571.144572306846	500.0	n/a	747	89	2750	866.855427693	stim	stop-signal	28	125986	0.0-5.11-1.11	beast_fmri_test	306	2.058116666666667,2.0694666666666666,2.080783333333333,2.0921,2.10345	t,t,t,t,t	<img class = center src='/static/experiments/beast_fmri_test/images/V.png'></img>	71,89	2750.0	test	<img class = center src='/static/experiments/beast_fmri_test/images/redV.png'></img>	stop	2250.0	2.0	11.0	stop	non-target	V	71,Green Button	89,Yellow Button	450.0	500.0	2300.0	2250.0	0.0	500.0	1.0	0.0	go_stim
54821.144572306846	2250.0	n/a	747	89	2750	866.855427693	stim	stop-signal	28	125986	0.0-5.11-1.11	beast_fmri_test	306	2.058116666666667,2.0694666666666666,2.080783333333333,2.0921,2.10345	t,t,t,t,t	<img class = center src='/static/experiments/beast_fmri_test/images/V.png'></img>	71,89	2750.0	test	<img class = center src='/static/experiments/beast_fmri_test/images/redV.png'></img>	stop	2250.0	2.0	11.0	stop	non-target	V	71,Green Button	89,Yellow Button	450.0	500.0	2300.0	2250.0	0.0	500.0	1.0	0.0	stop_stim
55321.144572306846	866.85542769314657	n/a	747	89	2750	866.855427693	stim	stop-signal	28	125986	0.0-5.11-1.11	beast_fmri_test	306	2.058116666666667,2.0694666666666666,2.080783333333333,2.0921,2.10345	t,t,t,t,t	<img class = center src='/static/experiments/beast_fmri_test/images/V.png'></img>	71,89	2750.0	test	<img class = center src='/static/experiments/beast_fmri_test/images/redV.png'></img>	stop	2250.0	2.0	11.0	stop	non-target	V	71,Green Button	89,Yellow Button	450.0	500.0	2300.0	2250.0	0.0	500.0	1.0	0.0	ITI
57564.0	500	n/a	-1	-1	500	0.0	fixation	poldrack-single-stim	29	127362	0.0-5.12-0.12	beast_fmri_test	306	2.1147666666666667	t	<div class = centerbox><div class = fixation>+</div></div>	none	500.0	test	n/a	n/a	n/a	n/a	n/a	n/a	n/a	n/a	n/a	n/a	n/a	n/a	n/a	n/a	n/a	n/a	n/a	n/a	fixation
55196.214317105652	2750	n/a	795	89	2750	2370.78568289	stim	stop-signal	30	130115	0.0-5.12-1.12	beast_fmri_test	306	2.126116666666667,2.13745,2.1487666666666665,2.1601333333333335,2.171466666666667,2.1828,2.1941166666666665,2.20545	t,t,t,t,t,t,t,t	<img class = center src='/static/experiments/beast_fmri_test/images/V.png'></img>	71,89	2750.0	test	<img class = center src='/static/experiments/beast_fmri_test/images/redV.png'></img>	go	2300.0	2.0	12.0	go	non-target	V	71,Green Button	89,Yellow Button	450.0	450.0	2300.0	2300.0	1.0	450.0	1.0	n/a	go_stim
57946.214317105652	2370.78568289435	n/a	795	89	2750	2370.78568289	stim	stop-signal	30	130115	0.0-5.12-1.12	beast_fmri_test	306	2.126116666666667,2.13745,2.1487666666666665,2.1601333333333335,2.171466666666667,2.1828,2.1941166666666665,2.20545	t,t,t,t,t,t,t,t	<img class = center src='/static/experiments/beast_fmri_test/images/V.png'></img>	71,89	2750.0	test	<img class = center src='/static/experiments/beast_fmri_test/images/redV.png'></img>	go	2300.0	2.0	12.0	go	non-target	V	71,Green Button	89,Yellow Button	450.0	450.0	2300.0	2300.0	1.0	450.0	1.0	n/a	ITI
63196.0	500	n/a	-1	-1	500	0.0	fixation	poldrack-single-stim	31	132994	0.0-5.13-0.13	beast_fmri_test	306	n/a	n/a	<div class = centerbox><div class = fixation>+</div></div>	none	500.0	test	n/a	n/a	n/a	n/a	n/a	n/a	n/a	n/a	n/a	n/a	n/a	n/a	n/a	n/a	n/a	n/a	n/a	n/a	fixation
62478.824840811227	2750	n/a	1078	89	2750	714.175159189	stim	stop-signal	32	135741	0.0-5.13-1.13	beast_fmri_test	306	2.2167833333333333,2.2281,2.2394,2.2507166666666665,2.262016666666667,2.2733833333333333	t,t,t,t,t,t	<img class = center src='/static/experiments/beast_fmri_test/images/T.png'></img>	71,89	2750.0	test	<img class = center src='/static/experiments/beast_fmri_test/images/redT.png'></img>	go	2300.0	2.0	13.0	go	non-target	T	71,Green Button	89,Yellow Button	450.0	450.0	2300.0	2300.0	1.0	450.0	1.0	n/a	go_stim
65228.824840811227	714.17515918876131	n/a	1078	89	2750	714.175159189	stim	stop-signal	32	135741	0.0-5.13-1.13	beast_fmri_test	306	2.2167833333333333,2.2281,2.2394,2.2507166666666665,2.262016666666667,2.2733833333333333	t,t,t,t,t,t	<img class = center src='/static/experiments/beast_fmri_test/images/T.png'></img>	71,89	2750.0	test	<img class = center src='/static/experiments/beast_fmri_test/images/redT.png'></img>	go	2300.0	2.0	13.0	go	non-target	T	71,Green Button	89,Yellow Button	450.0	450.0	2300.0	2300.0	1.0	450.0	1.0	n/a	ITI
67167.0	500	n/a	-1	-1	500	0.0	fixation	poldrack-single-stim	33	136965	0.0-5.14-0.14	beast_fmri_test	306	n/a	n/a	<div class = centerbox><div class = fixation>+</div></div>	none	500.0	test	n/a	n/a	n/a	n/a	n/a	n/a	n/a	n/a	n/a	n/a	n/a	n/a	n/a	n/a	n/a	n/a	n/a	n/a	fixation
66228.454531265888	2750	n/a	669	71	2750	940.545468734	stim	stop-signal	34	139717	0.0-5.14-1.14	beast_fmri_test	306	2.2847166666666667,2.2960166666666666,2.30735,2.3186833333333334,2.330016666666667,2.3413666666666666	t,t,t,t,t,t	<img class = center src='/static/experiments/beast_fmri_test/images/V.png'></img>	71,89	2750.0	test	<img class = center src='/static/experiments/beast_fmri_test/images/redV.png'></img>	go	2300.0	2.0	14.0	go	target	V	71,Green Button	89,Yellow Button	450.0	450.0	2300.0	2300.0	1.0	450.0	1.0	n/a	go_stim
68978.454531265888	940.54546873412562	n/a	669	71	2750	940.545468734	stim	stop-signal	34	139717	0.0-5.14-1.14	beast_fmri_test	306	2.2847166666666667,2.2960166666666666,2.30735,2.3186833333333334,2.330016666666667,2.3413666666666666	t,t,t,t,t,t	<img class = center src='/static/experiments/beast_fmri_test/images/V.png'></img>	71,89	2750.0	test	<img class = center src='/static/experiments/beast_fmri_test/images/redV.png'></img>	go	2300.0	2.0	14.0	go	target	V	71,Green Button	89,Yellow Button	450.0	450.0	2300.0	2300.0	1.0	450.0	1.0	n/a	ITI
71368.0	500	n/a	-1	-1	500	0.0	fixation	poldrack-single-stim	35	141166	0.0-5.15-0.15	beast_fmri_test	306	2.352716666666667	t	<div class = centerbox><div class = fixation>+</div></div>	none	500.0	test	n/a	n/a	n/a	n/a	n/a	n/a	n/a	n/a	n/a	n/a	n/a	n/a	n/a	n/a	n/a	n/a	n/a	n/a	fixation
69989.973737826425	2750	n/a	926	89	2750	1379.02626217	stim	stop-signal	36	143917	0.0-5.15-1.15	beast_fmri_test	306	2.3641,2.375383333333333,2.3867166666666666,2.3980333333333332,2.4093166666666668,2.4206333333333334	t,t,t,t,t,t	<img class = center src='/static/experiments/beast_fmri_test/images/T.png'></img>	71,89	2750.0	test	<img class = center src='/static/experiments/beast_fmri_test/images/redT.png'></img>	go	2300.0	2.0	15.0	go	target	T	71,Green Button	89,Yellow Button	450.0	450.0	2300.0	2300.0	0.0	450.0	0.0	n/a	go_stim
72739.973737826425	1379.0262621735776	n/a	926	89	2750	1379.02626217	stim	stop-signal	36	143917	0.0-5.15-1.15	beast_fmri_test	306	2.3641,2.375383333333333,2.3867166666666666,2.3980333333333332,2.4093166666666668,2.4206333333333334	t,t,t,t,t,t	<img class = center src='/static/experiments/beast_fmri_test/images/T.png'></img>	71,89	2750.0	test	<img class = center src='/static/experiments/beast_fmri_test/images/redT.png'></img>	go	2300.0	2.0	15.0	go	target	T	71,Green Button	89,Yellow Button	450.0	450.0	2300.0	2300.0	0.0	450.0	0.0	n/a	ITI
76004.0	500	n/a	-1	-1	500	0.0	fixation	poldrack-single-stim	37	145802	0.0-5.16-0.16	beast_fmri_test	306	n/a	n/a	<div class = centerbox><div class = fixation>+</div></div>	none	500.0	test	n/a	n/a	n/a	n/a	n/a	n/a	n/a	n/a	n/a	n/a	n/a	n/a	n/a	n/a	n/a	n/a	n/a	n/a	fixation
74265.577948247286	2750	n/a	852	89	2750	1740.42205175	stim	stop-signal	38	148554	0.0-5.16-1.16	beast_fmri_test	306	2.431966666666667,2.4432833333333335,2.4546333333333332,2.46595,2.4772666666666665,2.488583333333333,2.4999	t,t,t,t,t,t,t	<img class = center src='/static/experiments/beast_fmri_test/images/D.png'></img>	71,89	2750.0	test	<img class = center src='/static/experiments/beast_fmri_test/images/redD.png'></img>	go	2300.0	2.0	16.0	go	non-target	D	71,Green Button	89,Yellow Button	450.0	450.0	2300.0	2300.0	1.0	450.0	1.0	n/a	go_stim
77015.577948247286	1740.4220517527006	n/a	852	89	2750	1740.42205175	stim	stop-signal	38	148554	0.0-5.16-1.16	beast_fmri_test	306	2.431966666666667,2.4432833333333335,2.4546333333333332,2.46595,2.4772666666666665,2.488583333333333,2.4999	t,t,t,t,t,t,t	<img class = center src='/static/experiments/beast_fmri_test/images/D.png'></img>	71,89	2750.0	test	<img class = center src='/static/experiments/beast_fmri_test/images/redD.png'></img>	go	2300.0	2.0	16.0	go	non-target	D	71,Green Button	89,Yellow Button	450.0	450.0	2300.0	2300.0	1.0	450.0	1.0	n/a	ITI
81002.0	500	n/a	-1	-1	500	0.0	fixation	poldrack-single-stim	39	150800	0.0-5.17-0.17	beast_fmri_test	306	2.511216666666667	t	<div class = centerbox><div class = fixation>+</div></div>	none	500.0	test	n/a	n/a	n/a	n/a	n/a	n/a	n/a	n/a	n/a	n/a	n/a	n/a	n/a	n/a	n/a	n/a	n/a	n/a	fixation
80752.228546963655	2750	n/a	1248	89	2750	253.771453036	stim	stop-signal	40	153554	0.0-5.17-1.17	beast_fmri_test	306	2.5225666666666666,2.5338833333333333,2.5452166666666667,2.556566666666667	t,t,t,t	<img class = center src='/static/experiments/beast_fmri_test/images/D.png'></img>	71,89	2750.0	test	<img class = center src='/static/experiments/beast_fmri_test/images/redD.png'></img>	go	2300.0	2.0	17.0	go	non-target	D	71,Green Button	89,Yellow Button	450.0	450.0	2300.0	2300.0	1.0	450.0	1.0	n/a	go_stim
83502.228546963655	253.77145303635601	n/a	1248	89	2750	253.771453036	stim	stop-signal	40	153554	0.0-5.17-1.17	beast_fmri_test	306	2.5225666666666666,2.5338833333333333,2.5452166666666667,2.556566666666667	t,t,t,t	<img class = center src='/static/experiments/beast_fmri_test/images/D.png'></img>	71,89	2750.0	test	<img class = center src='/static/experiments/beast_fmri_test/images/redD.png'></img>	go	2300.0	2.0	17.0	go	non-target	D	71,Green Button	89,Yellow Button	450.0	450.0	2300.0	2300.0	1.0	450.0	1.0	n/a	ITI
84518.0	500	n/a	-1	-1	500	0.0	fixation	poldrack-single-stim	41	154316	0.0-5.18-0.18	beast_fmri_test	306	2.5678833333333335	t	<div class = centerbox><div class = fixation>+</div></div>	none	500.0	test	n/a	n/a	n/a	n/a	n/a	n/a	n/a	n/a	n/a	n/a	n/a	n/a	n/a	n/a	n/a	n/a	n/a	n/a	fixation
84469.572300902917	2750	n/a	886	89	2750	52.4276990971	stim	stop-signal	42	157070	0.0-5.18-1.18	beast_fmri_test	306	2.5792333333333333,2.59055,2.6018833333333333,2.6132166666666667	t,t,t,t	<img class = center src='/static/experiments/beast_fmri_test/images/B.png'></img>	71,89	2750.0	test	<img class = center src='/static/experiments/beast_fmri_test/images/redB.png'></img>	go	2300.0	2.0	18.0	go	non-target	B	71,Green Button	89,Yellow Button	450.0	450.0	2300.0	2300.0	1.0	450.0	1.0	n/a	go_stim
87219.572300902917	52.427699097078886	n/a	886	89	2750	52.4276990971	stim	stop-signal	42	157070	0.0-5.18-1.18	beast_fmri_test	306	2.5792333333333333,2.59055,2.6018833333333333,2.6132166666666667	t,t,t,t	<img class = center src='/static/experiments/beast_fmri_test/images/B.png'></img>	71,89	2750.0	test	<img class = center src='/static/experiments/beast_fmri_test/images/redB.png'></img>	go	2300.0	2.0	18.0	go	non-target	B	71,Green Button	89,Yellow Button	450.0	450.0	2300.0	2300.0	1.0	450.0	1.0	n/a	ITI
87833.0	500	n/a	-1	-1	500	0.0	fixation	poldrack-single-stim	43	157631	0.0-5.19-0.19	beast_fmri_test	306	2.62455	t	<div class = centerbox><div class = fixation>+</div></div>	none	500.0	test	n/a	n/a	n/a	n/a	n/a	n/a	n/a	n/a	n/a	n/a	n/a	n/a	n/a	n/a	n/a	n/a	n/a	n/a	fixation
87444.144883492379	450.0	n/a	-1	-1	2750	391.855116508	stim	stop-signal	44	160384	0.0-5.19-1.19	beast_fmri_test	306	2.635883333333333,2.6472333333333333,2.6585666666666667,2.6699	t,t,t,t	<img class = center src='/static/experiments/beast_fmri_test/images/T.png'></img>	71,89	2750.0	test	<img class = center src='/static/experiments/beast_fmri_test/images/redT.png'></img>	stop	2300.0	2.0	19.0	stop	non-target	T	71,Green Button	89,Yellow Button	450.0	450.0	2300.0	2300.0	0.0	450.0	0.0	1.0	go_stim
89744.144883492379	2300.0	n/a	-1	-1	2750	391.855116508	stim	stop-signal	44	160384	0.0-5.19-1.19	beast_fmri_test	306	2.635883333333333,2.6472333333333333,2.6585666666666667,2.6699	t,t,t,t	<img class = center src='/static/experiments/beast_fmri_test/images/T.png'></img>	71,89	2750.0	test	<img class = center src='/static/experiments/beast_fmri_test/images/redT.png'></img>	stop	2300.0	2.0	19.0	stop	non-target	T	71,Green Button	89,Yellow Button	450.0	450.0	2300.0	2300.0	0.0	450.0	0.0	1.0	stop_stim
90194.144883492379	391.85511650763067	n/a	-1	-1	2750	391.855116508	stim	stop-signal	44	160384	0.0-5.19-1.19	beast_fmri_test	306	2.635883333333333,2.6472333333333333,2.6585666666666667,2.6699	t,t,t,t	<img class = center src='/static/experiments/beast_fmri_test/images/T.png'></img>	71,89	2750.0	test	<img class = center src='/static/experiments/beast_fmri_test/images/redT.png'></img>	stop	2300.0	2.0	19.0	stop	non-target	T	71,Green Button	89,Yellow Button	450.0	450.0	2300.0	2300.0	0.0	450.0	0.0	1.0	ITI
91488.0	500	n/a	-1	-1	500	0.0	fixation	poldrack-single-stim	45	161286	0.0-5.20-0.20	beast_fmri_test	306	2.681216666666667	t	<div class = centerbox><div class = fixation>+</div></div>	none	500.0	test	n/a	n/a	n/a	n/a	n/a	n/a	n/a	n/a	n/a	n/a	n/a	n/a	n/a	n/a	n/a	n/a	n/a	n/a	fixation
91300.052796072763	500.0	n/a	-1	-1	2750	188.947203927	stim	stop-signal	46	164037	0.0-5.20-1.20	beast_fmri_test	306	2.69255,2.703883333333333,2.7152333333333334,2.72655	t,t,t,t	<img class = center src='/static/experiments/beast_fmri_test/images/D.png'></img>	71,89	2750.0	test	<img class = center src='/static/experiments/beast_fmri_test/images/redD.png'></img>	stop	2250.0	2.0	20.0	stop	non-target	D	71,Green Button	89,Yellow Button	450.0	500.0	2300.0	2250.0	0.0	500.0	0.0	1.0	go_stim
93550.052796072763	2250.0	n/a	-1	-1	2750	188.947203927	stim	stop-signal	46	164037	0.0-5.20-1.20	beast_fmri_test	306	2.69255,2.703883333333333,2.7152333333333334,2.72655	t,t,t,t	<img class = center src='/static/experiments/beast_fmri_test/images/D.png'></img>	71,89	2750.0	test	<img class = center src='/static/experiments/beast_fmri_test/images/redD.png'></img>	stop	2250.0	2.0	20.0	stop	non-target	D	71,Green Button	89,Yellow Button	450.0	500.0	2300.0	2250.0	0.0	500.0	0.0	1.0	stop_stim
94050.052796072763	188.94720392724204	n/a	-1	-1	2750	188.947203927	stim	stop-signal	46	164037	0.0-5.20-1.20	beast_fmri_test	306	2.69255,2.703883333333333,2.7152333333333334,2.72655	t,t,t,t	<img class = center src='/static/experiments/beast_fmri_test/images/D.png'></img>	71,89	2750.0	test	<img class = center src='/static/experiments/beast_fmri_test/images/redD.png'></img>	stop	2250.0	2.0	20.0	stop	non-target	D	71,Green Button	89,Yellow Button	450.0	500.0	2300.0	2250.0	0.0	500.0	0.0	1.0	ITI
94934.0	500	n/a	-1	-1	500	0.0	fixation	poldrack-single-stim	47	164732	0.0-5.21-0.21	beast_fmri_test	306	2.737816666666667	t	<div class = centerbox><div class = fixation>+</div></div>	none	500.0	test	n/a	n/a	n/a	n/a	n/a	n/a	n/a	n/a	n/a	n/a	n/a	n/a	n/a	n/a	n/a	n/a	n/a	n/a	fixation
94500.883662850189	550.0	n/a	-1	-1	2750	437.11633715	stim	stop-signal	48	167486	0.0-5.21-1.21	beast_fmri_test	306	2.74915,2.760483333333333,2.7718,2.7831333333333332,2.7944666666666667	t,t,t,t,t	<img class = center src='/static/experiments/beast_fmri_test/images/B.png'></img>	71,89	2750.0	test	<img class = center src='/static/experiments/beast_fmri_test/images/redB.png'></img>	stop	2200.0	2.0	21.0	stop	non-target	B	71,Green Button	89,Yellow Button	450.0	550.0	2300.0	2200.0	0.0	550.0	0.0	1.0	go_stim
96700.883662850189	2200.0	n/a	-1	-1	2750	437.11633715	stim	stop-signal	48	167486	0.0-5.21-1.21	beast_fmri_test	306	2.74915,2.760483333333333,2.7718,2.7831333333333332,2.7944666666666667	t,t,t,t,t	<img class = center src='/static/experiments/beast_fmri_test/images/B.png'></img>	71,89	2750.0	test	<img class = center src='/static/experiments/beast_fmri_test/images/redB.png'></img>	stop	2200.0	2.0	21.0	stop	non-target	B	71,Green Button	89,Yellow Button	450.0	550.0	2300.0	2200.0	0.0	550.0	0.0	1.0	stop_stim
97250.883662850189	437.11633714980951	n/a	-1	-1	2750	437.11633715	stim	stop-signal	48	167486	0.0-5.21-1.21	beast_fmri_test	306	2.74915,2.760483333333333,2.7718,2.7831333333333332,2.7944666666666667	t,t,t,t,t	<img class = center src='/static/experiments/beast_fmri_test/images/B.png'></img>	71,89	2750.0	test	<img class = center src='/static/experiments/beast_fmri_test/images/redB.png'></img>	stop	2200.0	2.0	21.0	stop	non-target	B	71,Green Button	89,Yellow Button	450.0	550.0	2300.0	2200.0	0.0	550.0	0.0	1.0	ITI
98638.0	500	n/a	-1	-1	500	0.0	fixation	poldrack-single-stim	49	168436	0.0-5.22-0.22	beast_fmri_test	306	2.8057833333333333	t	<div class = centerbox><div class = fixation>+</div></div>	none	500.0	test	n/a	n/a	n/a	n/a	n/a	n/a	n/a	n/a	n/a	n/a	n/a	n/a	n/a	n/a	n/a	n/a	n/a	n/a	fixation
97187.980267728213	600.0	n/a	-1	-1	2750	1454.01973227	stim	stop-signal	50	171190	0.0-5.22-1.22	beast_fmri_test	306	2.81715,2.8284833333333332,2.8398166666666667,2.8511333333333333,2.8624666666666667,2.8738	t,t,t,t,t,t	<img class = center src='/static/experiments/beast_fmri_test/images/P.png'></img>	71,89	2750.0	test	<img class = center src='/static/experiments/beast_fmri_test/images/redP.png'></img>	stop	2150.0	2.0	22.0	stop	non-target	P	71,Green Button	89,Yellow Button	450.0	600.0	2300.0	2150.0	0.0	600.0	0.0	1.0	go_stim
99337.980267728213	2150.0	n/a	-1	-1	2750	1454.01973227	stim	stop-signal	50	171190	0.0-5.22-1.22	beast_fmri_test	306	2.81715,2.8284833333333332,2.8398166666666667,2.8511333333333333,2.8624666666666667,2.8738	t,t,t,t,t,t	<img class = center src='/static/experiments/beast_fmri_test/images/P.png'></img>	71,89	2750.0	test	<img class = center src='/static/experiments/beast_fmri_test/images/redP.png'></img>	stop	2150.0	2.0	22.0	stop	non-target	P	71,Green Button	89,Yellow Button	450.0	600.0	2300.0	2150.0	0.0	600.0	0.0	1.0	stop_stim
99937.980267728213	1454.0197322717734	n/a	-1	-1	2750	1454.01973227	stim	stop-signal	50	171190	0.0-5.22-1.22	beast_fmri_test	306	2.81715,2.8284833333333332,2.8398166666666667,2.8511333333333333,2.8624666666666667,2.8738	t,t,t,t,t,t	<img class = center src='/static/experiments/beast_fmri_test/images/P.png'></img>	71,89	2750.0	test	<img class = center src='/static/experiments/beast_fmri_test/images/redP.png'></img>	stop	2150.0	2.0	22.0	stop	non-target	P	71,Green Button	89,Yellow Button	450.0	600.0	2300.0	2150.0	0.0	600.0	0.0	1.0	ITI
103357.0	500	n/a	-1	-1	500	0.0	fixation	poldrack-single-stim	51	173155	0.0-5.23-0.23	beast_fmri_test	306	2.8851666666666667	t	<div class = centerbox><div class = fixation>+</div></div>	none	500.0	test	n/a	n/a	n/a	n/a	n/a	n/a	n/a	n/a	n/a	n/a	n/a	n/a	n/a	n/a	n/a	n/a	n/a	n/a	fixation
102701.29950550286	2750	n/a	978	89	2750	653.700494497	stim	stop-signal	52	175903	0.0-5.23-1.23	beast_fmri_test	306	2.8964666666666665,2.907766666666667,2.9190666666666667,2.9304,2.9417333333333335	t,t,t,t,t	<img class = center src='/static/experiments/beast_fmri_test/images/V.png'></img>	71,89	2750.0	test	<img class = center src='/static/experiments/beast_fmri_test/images/redV.png'></img>	go	2100.0	2.0	23.0	go	non-target	V	71,Green Button	89,Yellow Button	450.0	650.0	2300.0	2100.0	1.0	650.0	1.0	n/a	go_stim
105451.29950550286	653.70049449712872	n/a	978	89	2750	653.700494497	stim	stop-signal	52	175903	0.0-5.23-1.23	beast_fmri_test	306	2.8964666666666665,2.907766666666667,2.9190666666666667,2.9304,2.9417333333333335	t,t,t,t,t	<img class = center src='/static/experiments/beast_fmri_test/images/V.png'></img>	71,89	2750.0	test	<img class = center src='/static/experiments/beast_fmri_test/images/redV.png'></img>	go	2100.0	2.0	23.0	go	non-target	V	71,Green Button	89,Yellow Button	450.0	650.0	2300.0	2100.0	1.0	650.0	1.0	n/a	ITI
107269.0	500	n/a	-1	-1	500	0.0	fixation	poldrack-single-stim	53	177067	0.0-5.24-0.24	beast_fmri_test	306	n/a	n/a	<div class = centerbox><div class = fixation>+</div></div>	none	500.0	test	n/a	n/a	n/a	n/a	n/a	n/a	n/a	n/a	n/a	n/a	n/a	n/a	n/a	n/a	n/a	n/a	n/a	n/a	fixation
107043.90203631073	2750	n/a	1224	89	2750	228.097963689	stim	stop-signal	54	179820	0.0-5.24-1.24	beast_fmri_test	306	2.9530833333333333,2.9644166666666667,2.97575,2.9870833333333335,2.9984	t,t,t,t,t	<img class = center src='/static/experiments/beast_fmri_test/images/D.png'></img>	71,89	2750.0	test	<img class = center src='/static/experiments/beast_fmri_test/images/redD.png'></img>	go	2100.0	2.0	24.0	go	non-target	D	71,Green Button	89,Yellow Button	450.0	650.0	2300.0	2100.0	1.0	650.0	1.0	n/a	go_stim
109793.90203631073	228.09796368928124	n/a	1224	89	2750	228.097963689	stim	stop-signal	54	179820	0.0-5.24-1.24	beast_fmri_test	306	2.9530833333333333,2.9644166666666667,2.97575,2.9870833333333335,2.9984	t,t,t,t,t	<img class = center src='/static/experiments/beast_fmri_test/images/D.png'></img>	71,89	2750.0	test	<img class = center src='/static/experiments/beast_fmri_test/images/redD.png'></img>	go	2100.0	2.0	24.0	go	non-target	D	71,Green Button	89,Yellow Button	450.0	650.0	2300.0	2100.0	1.0	650.0	1.0	n/a	ITI
110762.0	500	n/a	-1	-1	500	0.0	fixation	poldrack-single-stim	55	180560	0.0-5.25-0.25	beast_fmri_test	306	n/a	n/a	<div class = centerbox><div class = fixation>+</div></div>	none	500.0	test	n/a	n/a	n/a	n/a	n/a	n/a	n/a	n/a	n/a	n/a	n/a	n/a	n/a	n/a	n/a	n/a	n/a	n/a	fixation
110490.43251089091	650.0	n/a	-1	-1	2750	273.567489109	stim	stop-signal	56	183312	0.0-5.25-1.25	beast_fmri_test	306	3.0097666666666667,3.0210666666666666,3.0324166666666668,3.0437333333333334,3.055083333333333	t,t,t,t,t	<img class = center src='/static/experiments/beast_fmri_test/images/P.png'></img>	71,89	2750.0	test	<img class = center src='/static/experiments/beast_fmri_test/images/redP.png'></img>	stop	2100.0	2.0	25.0	stop	non-target	P	71,Green Button	89,Yellow Button	450.0	650.0	2300.0	2100.0	0.0	650.0	0.0	1.0	go_stim
112590.43251089091	2100.0	n/a	-1	-1	2750	273.567489109	stim	stop-signal	56	183312	0.0-5.25-1.25	beast_fmri_test	306	3.0097666666666667,3.0210666666666666,3.0324166666666668,3.0437333333333334,3.055083333333333	t,t,t,t,t	<img class = center src='/static/experiments/beast_fmri_test/images/P.png'></img>	71,89	2750.0	test	<img class = center src='/static/experiments/beast_fmri_test/images/redP.png'></img>	stop	2100.0	2.0	25.0	stop	non-target	P	71,Green Button	89,Yellow Button	450.0	650.0	2300.0	2100.0	0.0	650.0	0.0	1.0	stop_stim
113240.43251089091	273.56748910909619	n/a	-1	-1	2750	273.567489109	stim	stop-signal	56	183312	0.0-5.25-1.25	beast_fmri_test	306	3.0097666666666667,3.0210666666666666,3.0324166666666668,3.0437333333333334,3.055083333333333	t,t,t,t,t	<img class = center src='/static/experiments/beast_fmri_test/images/P.png'></img>	71,89	2750.0	test	<img class = center src='/static/experiments/beast_fmri_test/images/redP.png'></img>	stop	2100.0	2.0	25.0	stop	non-target	P	71,Green Button	89,Yellow Button	450.0	650.0	2300.0	2100.0	0.0	650.0	0.0	1.0	ITI
114296.0	500	n/a	-1	-1	500	0.0	fixation	poldrack-single-stim	57	184094	0.0-5.26-0.26	beast_fmri_test	306	3.06635	t	<div class = centerbox><div class = fixation>+</div></div>	none	500.0	test	n/a	n/a	n/a	n/a	n/a	n/a	n/a	n/a	n/a	n/a	n/a	n/a	n/a	n/a	n/a	n/a	n/a	n/a	fixation
113765.4422701009	2750	n/a	873	89	2750	532.557729899	stim	stop-signal	58	186846	0.0-5.26-1.26	beast_fmri_test	306	3.07765,3.088983333333333,3.1003166666666666,3.111666666666667,3.123	t,t,t,t,t	<img class = center src='/static/experiments/beast_fmri_test/images/P.png'></img>	71,89	2750.0	test	<img class = center src='/static/experiments/beast_fmri_test/images/redP.png'></img>	go	2050.0	2.0	26.0	go	non-target	P	71,Green Button	89,Yellow Button	450.0	700.0	2300.0	2050.0	1.0	700.0	1.0	n/a	go_stim
116515.4422701009	532.55772989908519	n/a	873	89	2750	532.557729899	stim	stop-signal	58	186846	0.0-5.26-1.26	beast_fmri_test	306	3.07765,3.088983333333333,3.1003166666666666,3.111666666666667,3.123	t,t,t,t,t	<img class = center src='/static/experiments/beast_fmri_test/images/P.png'></img>	71,89	2750.0	test	<img class = center src='/static/experiments/beast_fmri_test/images/redP.png'></img>	go	2050.0	2.0	26.0	go	non-target	P	71,Green Button	89,Yellow Button	450.0	700.0	2300.0	2050.0	1.0	700.0	1.0	n/a	ITI
118091.0	500	n/a	-1	-1	500	0.0	fixation	poldrack-single-stim	59	187889	0.0-5.27-0.27	beast_fmri_test	306	n/a	n/a	<div class = centerbox><div class = fixation>+</div></div>	none	500.0	test	n/a	n/a	n/a	n/a	n/a	n/a	n/a	n/a	n/a	n/a	n/a	n/a	n/a	n/a	n/a	n/a	n/a	n/a	fixation
113886.57307483343	2750	n/a	1910	89	2750	4207.42692517	stim	stop-signal	60	190642	0.0-5.27-1.27	beast_fmri_test	306	3.134333333333333,3.14565,3.157,3.1683166666666667,3.17965,3.191,3.2023333333333333,3.2136666666666667,3.2249833333333333,3.236266666666667	t,t,t,t,t,t,t,t,t,t	<img class = center src='/static/experiments/beast_fmri_test/images/D.png'></img>	71,89	2750.0	test	<img class = center src='/static/experiments/beast_fmri_test/images/redD.png'></img>	go	2050.0	2.0	27.0	go	non-target	D	71,Green Button	89,Yellow Button	450.0	700.0	2300.0	2050.0	1.0	700.0	1.0	n/a	go_stim
116636.57307483343	4207.4269251665692	n/a	1910	89	2750	4207.42692517	stim	stop-signal	60	190642	0.0-5.27-1.27	beast_fmri_test	306	3.134333333333333,3.14565,3.157,3.1683166666666667,3.17965,3.191,3.2023333333333333,3.2136666666666667,3.2249833333333333,3.236266666666667	t,t,t,t,t,t,t,t,t,t	<img class = center src='/static/experiments/beast_fmri_test/images/D.png'></img>	71,89	2750.0	test	<img class = center src='/static/experiments/beast_fmri_test/images/redD.png'></img>	go	2050.0	2.0	27.0	go	non-target	D	71,Green Button	89,Yellow Button	450.0	700.0	2300.0	2050.0	1.0	700.0	1.0	n/a	ITI
125558.0	500	n/a	-1	-1	500	0.0	fixation	poldrack-single-stim	61	195356	0.0-5.28-0.28	beast_fmri_test	306	3.2475666666666667	t	<div class = centerbox><div class = fixation>+</div></div>	none	500.0	test	n/a	n/a	n/a	n/a	n/a	n/a	n/a	n/a	n/a	n/a	n/a	n/a	n/a	n/a	n/a	n/a	n/a	n/a	fixation
124626.92399295091	450.0	n/a	-1	-1	2750	934.076007049	stim	stop-signal	62	198109	0.0-5.28-1.28	beast_fmri_test	306	3.2589166666666665,3.27025,3.2815666666666665,3.2929166666666667,3.3042333333333334,3.3155833333333335	t,t,t,t,t,t	<img class = center src='/static/experiments/beast_fmri_test/images/P.png'></img>	71,89	2750.0	test	<img class = center src='/static/experiments/beast_fmri_test/images/redP.png'></img>	stop	2300.0	2.0	28.0	stop	target	P	71,Green Button	89,Yellow Button	450.0	700.0	2300.0	2050.0	0.0	450.0	0.0	1.0	go_stim
126926.92399295091	2300.0	n/a	-1	-1	2750	934.076007049	stim	stop-signal	62	198109	0.0-5.28-1.28	beast_fmri_test	306	3.2589166666666665,3.27025,3.2815666666666665,3.2929166666666667,3.3042333333333334,3.3155833333333335	t,t,t,t,t,t	<img class = center src='/static/experiments/beast_fmri_test/images/P.png'></img>	71,89	2750.0	test	<img class = center src='/static/experiments/beast_fmri_test/images/redP.png'></img>	stop	2300.0	2.0	28.0	stop	target	P	71,Green Button	89,Yellow Button	450.0	700.0	2300.0	2050.0	0.0	450.0	0.0	1.0	stop_stim
127376.92399295091	934.07600704908521	n/a	-1	-1	2750	934.076007049	stim	stop-signal	62	198109	0.0-5.28-1.28	beast_fmri_test	306	3.2589166666666665,3.27025,3.2815666666666665,3.2929166666666667,3.3042333333333334,3.3155833333333335	t,t,t,t,t,t	<img class = center src='/static/experiments/beast_fmri_test/images/P.png'></img>	71,89	2750.0	test	<img class = center src='/static/experiments/beast_fmri_test/images/redP.png'></img>	stop	2300.0	2.0	28.0	stop	target	P	71,Green Button	89,Yellow Button	450.0	700.0	2300.0	2050.0	0.0	450.0	0.0	1.0	ITI
129758.0	500	n/a	-1	-1	500	0.0	fixation	poldrack-single-stim	63	199556	0.0-5.29-0.29	beast_fmri_test	306	n/a	n/a	<div class = centerbox><div class = fixation>+</div></div>	none	500.0	test	n/a	n/a	n/a	n/a	n/a	n/a	n/a	n/a	n/a	n/a	n/a	n/a	n/a	n/a	n/a	n/a	n/a	n/a	fixation
128225.86331661671	2750	n/a	1083	89	2750	1534.13668338	stim	stop-signal	64	202308	0.0-5.29-1.29	beast_fmri_test	306	3.3269166666666665,3.338233333333333,3.3495833333333334,3.3609333333333336,3.3722333333333334,3.3836,3.3949	t,t,t,t,t,t,t	<img class = center src='/static/experiments/beast_fmri_test/images/B.png'></img>	71,89	2750.0	test	<img class = center src='/static/experiments/beast_fmri_test/images/redB.png'></img>	go	2050.0	2.0	29.0	go	non-target	B	71,Green Button	89,Yellow Button	500.0	700.0	2300.0	2050.0	1.0	700.0	1.0	n/a	go_stim
130975.86331661671	1534.136683383289	n/a	1083	89	2750	1534.13668338	stim	stop-signal	64	202308	0.0-5.29-1.29	beast_fmri_test	306	3.3269166666666665,3.338233333333333,3.3495833333333334,3.3609333333333336,3.3722333333333334,3.3836,3.3949	t,t,t,t,t,t,t	<img class = center src='/static/experiments/beast_fmri_test/images/B.png'></img>	71,89	2750.0	test	<img class = center src='/static/experiments/beast_fmri_test/images/redB.png'></img>	go	2050.0	2.0	29.0	go	non-target	B	71,Green Button	89,Yellow Button	500.0	700.0	2300.0	2050.0	1.0	700.0	1.0	n/a	ITI
134556.0	500	n/a	-1	-1	500	0.0	fixation	poldrack-single-stim	65	204354	0.0-5.30-0.30	beast_fmri_test	306	n/a	n/a	<div class = centerbox><div class = fixation>+</div></div>	none	500.0	test	n/a	n/a	n/a	n/a	n/a	n/a	n/a	n/a	n/a	n/a	n/a	n/a	n/a	n/a	n/a	n/a	n/a	n/a	fixation
132703.17672244186	500.0	n/a	-1	-1	2750	1855.82327756	stim	stop-signal	66	207107	0.0-5.30-1.30	beast_fmri_test	306	3.4062,3.4175166666666668,3.42885,3.440183333333333,3.4515166666666666,3.462833333333333,3.4741666666666666	t,t,t,t,t,t,t	<img class = center src='/static/experiments/beast_fmri_test/images/P.png'></img>	71,89	2750.0	test	<img class = center src='/static/experiments/beast_fmri_test/images/redP.png'></img>	stop	2250.0	2.0	30.0	stop	target	P	71,Green Button	89,Yellow Button	500.0	700.0	2250.0	2050.0	0.0	500.0	0.0	1.0	go_stim
134953.17672244186	2250.0	n/a	-1	-1	2750	1855.82327756	stim	stop-signal	66	207107	0.0-5.30-1.30	beast_fmri_test	306	3.4062,3.4175166666666668,3.42885,3.440183333333333,3.4515166666666666,3.462833333333333,3.4741666666666666	t,t,t,t,t,t,t	<img class = center src='/static/experiments/beast_fmri_test/images/P.png'></img>	71,89	2750.0	test	<img class = center src='/static/experiments/beast_fmri_test/images/redP.png'></img>	stop	2250.0	2.0	30.0	stop	target	P	71,Green Button	89,Yellow Button	500.0	700.0	2250.0	2050.0	0.0	500.0	0.0	1.0	stop_stim
135453.17672244186	1855.8232775581409	n/a	-1	-1	2750	1855.82327756	stim	stop-signal	66	207107	0.0-5.30-1.30	beast_fmri_test	306	3.4062,3.4175166666666668,3.42885,3.440183333333333,3.4515166666666666,3.462833333333333,3.4741666666666666	t,t,t,t,t,t,t	<img class = center src='/static/experiments/beast_fmri_test/images/P.png'></img>	71,89	2750.0	test	<img class = center src='/static/experiments/beast_fmri_test/images/redP.png'></img>	stop	2250.0	2.0	30.0	stop	target	P	71,Green Button	89,Yellow Button	500.0	700.0	2250.0	2050.0	0.0	500.0	0.0	1.0	ITI
139681.0	500	n/a	-1	-1	500	0.0	fixation	poldrack-single-stim	67	209479	0.0-5.31-0.31	beast_fmri_test	306	3.485516666666667	t	<div class = centerbox><div class = fixation>+</div></div>	none	500.0	test	n/a	n/a	n/a	n/a	n/a	n/a	n/a	n/a	n/a	n/a	n/a	n/a	n/a	n/a	n/a	n/a	n/a	n/a	fixation
138627.41933814937	550.0	n/a	679	71	2750	1057.58066185	stim	stop-signal	68	212233	0.0-5.31-1.31	beast_fmri_test	306	3.49685,3.508183333333333,3.5195166666666666,3.5308333333333333,3.5421833333333335,3.5535	t,t,t,t,t,t	<img class = center src='/static/experiments/beast_fmri_test/images/B.png'></img>	71,89	2750.0	test	<img class = center src='/static/experiments/beast_fmri_test/images/redB.png'></img>	stop	2200.0	2.0	31.0	stop	target	B	71,Green Button	89,Yellow Button	550.0	700.0	2200.0	2050.0	0.0	550.0	1.0	0.0	go_stim
140827.41933814937	2200.0	n/a	679	71	2750	1057.58066185	stim	stop-signal	68	212233	0.0-5.31-1.31	beast_fmri_test	306	3.49685,3.508183333333333,3.5195166666666666,3.5308333333333333,3.5421833333333335,3.5535	t,t,t,t,t,t	<img class = center src='/static/experiments/beast_fmri_test/images/B.png'></img>	71,89	2750.0	test	<img class = center src='/static/experiments/beast_fmri_test/images/redB.png'></img>	stop	2200.0	2.0	31.0	stop	target	B	71,Green Button	89,Yellow Button	550.0	700.0	2200.0	2050.0	0.0	550.0	1.0	0.0	stop_stim
141377.41933814937	1057.5806618506374	n/a	679	71	2750	1057.58066185	stim	stop-signal	68	212233	0.0-5.31-1.31	beast_fmri_test	306	3.49685,3.508183333333333,3.5195166666666666,3.5308333333333333,3.5421833333333335,3.5535	t,t,t,t,t,t	<img class = center src='/static/experiments/beast_fmri_test/images/B.png'></img>	71,89	2750.0	test	<img class = center src='/static/experiments/beast_fmri_test/images/redB.png'></img>	stop	2200.0	2.0	31.0	stop	target	B	71,Green Button	89,Yellow Button	550.0	700.0	2200.0	2050.0	0.0	550.0	1.0	0.0	ITI
144005.0	500	n/a	-1	-1	500	0.0	fixation	poldrack-single-stim	69	213803	0.0-5.32-0.32	beast_fmri_test	306	n/a	n/a	<div class = centerbox><div class = fixation>+</div></div>	none	500.0	test	n/a	n/a	n/a	n/a	n/a	n/a	n/a	n/a	n/a	n/a	n/a	n/a	n/a	n/a	n/a	n/a	n/a	n/a	fixation
143819.84885029297	2750	n/a	718	89	2750	184.151149707	stim	stop-signal	70	216552	0.0-5.32-1.32	beast_fmri_test	306	3.5648,3.5761,3.5874333333333333,3.5987666666666667,3.6101	t,t,t,t,t	<img class = center src='/static/experiments/beast_fmri_test/images/D.png'></img>	71,89	2750.0	test	<img class = center src='/static/experiments/beast_fmri_test/images/redD.png'></img>	go	2050.0	2.0	32.0	go	non-target	D	71,Green Button	89,Yellow Button	500.0	700.0	2200.0	2050.0	1.0	700.0	1.0	n/a	go_stim
146569.84885029297	184.15114970704502	n/a	718	89	2750	184.151149707	stim	stop-signal	70	216552	0.0-5.32-1.32	beast_fmri_test	306	3.5648,3.5761,3.5874333333333333,3.5987666666666667,3.6101	t,t,t,t,t	<img class = center src='/static/experiments/beast_fmri_test/images/D.png'></img>	71,89	2750.0	test	<img class = center src='/static/experiments/beast_fmri_test/images/redD.png'></img>	go	2050.0	2.0	32.0	go	non-target	D	71,Green Button	89,Yellow Button	500.0	700.0	2200.0	2050.0	1.0	700.0	1.0	n/a	ITI
147453.0	500	n/a	-1	-1	500	0.0	fixation	poldrack-single-stim	71	217251	0.0-5.33-0.33	beast_fmri_test	306	n/a	n/a	<div class = centerbox><div class = fixation>+</div></div>	none	500.0	test	n/a	n/a	n/a	n/a	n/a	n/a	n/a	n/a	n/a	n/a	n/a	n/a	n/a	n/a	n/a	n/a	n/a	n/a	fixation
146647.41835095666	2750	n/a	915	89	2750	808.581649043	stim	stop-signal	72	220004	0.0-5.33-1.33	beast_fmri_test	306	3.6214166666666667,3.63275,3.644083333333333,3.6554333333333333,3.6667666666666667,3.6781	t,t,t,t,t,t	<img class = center src='/static/experiments/beast_fmri_test/images/D.png'></img>	71,89	2750.0	test	<img class = center src='/static/experiments/beast_fmri_test/images/redD.png'></img>	go	2050.0	2.0	33.0	go	non-target	D	71,Green Button	89,Yellow Button	500.0	700.0	2200.0	2050.0	1.0	700.0	1.0	n/a	go_stim
149397.41835095666	808.58164904332125	n/a	915	89	2750	808.581649043	stim	stop-signal	72	220004	0.0-5.33-1.33	beast_fmri_test	306	3.6214166666666667,3.63275,3.644083333333333,3.6554333333333333,3.6667666666666667,3.6781	t,t,t,t,t,t	<img class = center src='/static/experiments/beast_fmri_test/images/D.png'></img>	71,89	2750.0	test	<img class = center src='/static/experiments/beast_fmri_test/images/redD.png'></img>	go	2050.0	2.0	33.0	go	non-target	D	71,Green Button	89,Yellow Button	500.0	700.0	2200.0	2050.0	1.0	700.0	1.0	n/a	ITI
151528.0	500	n/a	-1	-1	500	0.0	fixation	poldrack-single-stim	73	221326	0.0-5.34-0.34	beast_fmri_test	306	n/a	n/a	<div class = centerbox><div class = fixation>+</div></div>	none	500.0	test	n/a	n/a	n/a	n/a	n/a	n/a	n/a	n/a	n/a	n/a	n/a	n/a	n/a	n/a	n/a	n/a	n/a	n/a	fixation
149765.49154402027	500.0	n/a	733	71	2750	1763.50845598	stim	stop-signal	74	224077	0.0-5.34-1.34	beast_fmri_test	306	3.689416666666667,3.7007666666666665,3.712083333333333,3.7234166666666666,3.7347,3.7460166666666668,3.7573333333333334	t,t,t,t,t,t,t	<img class = center src='/static/experiments/beast_fmri_test/images/D.png'></img>	71,89	2750.0	test	<img class = center src='/static/experiments/beast_fmri_test/images/redD.png'></img>	stop	2250.0	2.0	34.0	stop	target	D	71,Green Button	89,Yellow Button	500.0	700.0	2250.0	2050.0	0.0	500.0	1.0	0.0	go_stim
152015.49154402027	2250.0	n/a	733	71	2750	1763.50845598	stim	stop-signal	74	224077	0.0-5.34-1.34	beast_fmri_test	306	3.689416666666667,3.7007666666666665,3.712083333333333,3.7234166666666666,3.7347,3.7460166666666668,3.7573333333333334	t,t,t,t,t,t,t	<img class = center src='/static/experiments/beast_fmri_test/images/D.png'></img>	71,89	2750.0	test	<img class = center src='/static/experiments/beast_fmri_test/images/redD.png'></img>	stop	2250.0	2.0	34.0	stop	target	D	71,Green Button	89,Yellow Button	500.0	700.0	2250.0	2050.0	0.0	500.0	1.0	0.0	stop_stim
152515.49154402027	1763.5084559797176	n/a	733	71	2750	1763.50845598	stim	stop-signal	74	224077	0.0-5.34-1.34	beast_fmri_test	306	3.689416666666667,3.7007666666666665,3.712083333333333,3.7234166666666666,3.7347,3.7460166666666668,3.7573333333333334	t,t,t,t,t,t,t	<img class = center src='/static/experiments/beast_fmri_test/images/D.png'></img>	71,89	2750.0	test	<img class = center src='/static/experiments/beast_fmri_test/images/redD.png'></img>	stop	2250.0	2.0	34.0	stop	target	D	71,Green Button	89,Yellow Button	500.0	700.0	2250.0	2050.0	0.0	500.0	1.0	0.0	ITI
156554.0	500	n/a	-1	-1	500	0.0	fixation	poldrack-single-stim	75	226352	0.0-5.35-0.35	beast_fmri_test	306	3.768683333333333	t	<div class = centerbox><div class = fixation>+</div></div>	none	500.0	test	n/a	n/a	n/a	n/a	n/a	n/a	n/a	n/a	n/a	n/a	n/a	n/a	n/a	n/a	n/a	n/a	n/a	n/a	fixation
156013.23759791689	2750	n/a	866	89	2750	543.762402083	stim	stop-signal	76	229105	0.0-5.35-1.35	beast_fmri_test	306	3.7800166666666666,3.791333333333333,3.8026833333333334,3.814,3.8253666666666666	t,t,t,t,t	<img class = center src='/static/experiments/beast_fmri_test/images/T.png'></img>	71,89	2750.0	test	<img class = center src='/static/experiments/beast_fmri_test/images/redT.png'></img>	go	2050.0	2.0	35.0	go	non-target	T	71,Green Button	89,Yellow Button	450.0	700.0	2250.0	2050.0	1.0	700.0	1.0	n/a	go_stim
158763.23759791689	543.76240208311572	n/a	866	89	2750	543.762402083	stim	stop-signal	76	229105	0.0-5.35-1.35	beast_fmri_test	306	3.7800166666666666,3.791333333333333,3.8026833333333334,3.814,3.8253666666666666	t,t,t,t,t	<img class = center src='/static/experiments/beast_fmri_test/images/T.png'></img>	71,89	2750.0	test	<img class = center src='/static/experiments/beast_fmri_test/images/redT.png'></img>	go	2050.0	2.0	35.0	go	non-target	T	71,Green Button	89,Yellow Button	450.0	700.0	2250.0	2050.0	1.0	700.0	1.0	n/a	ITI
160365.0	500	n/a	-1	-1	500	0.0	fixation	poldrack-single-stim	77	230163	0.0-5.36-0.36	beast_fmri_test	306	n/a	n/a	<div class = centerbox><div class = fixation>+</div></div>	none	500.0	test	n/a	n/a	n/a	n/a	n/a	n/a	n/a	n/a	n/a	n/a	n/a	n/a	n/a	n/a	n/a	n/a	n/a	n/a	fixation
160085.00827357316	700.0	n/a	798	89	2750	283.991726427	stim	stop-signal	78	232917	0.0-5.36-1.36	beast_fmri_test	306	3.8366666666666664,3.848,3.85935,3.8706833333333335,3.8820166666666664	t,t,t,t,t	<img class = center src='/static/experiments/beast_fmri_test/images/V.png'></img>	71,89	2750.0	test	<img class = center src='/static/experiments/beast_fmri_test/images/redV.png'></img>	stop	2050.0	2.0	36.0	stop	non-target	V	71,Green Button	89,Yellow Button	450.0	700.0	2250.0	2050.0	0.0	700.0	1.0	0.0	go_stim
162135.00827357316	2050.0	n/a	798	89	2750	283.991726427	stim	stop-signal	78	232917	0.0-5.36-1.36	beast_fmri_test	306	3.8366666666666664,3.848,3.85935,3.8706833333333335,3.8820166666666664	t,t,t,t,t	<img class = center src='/static/experiments/beast_fmri_test/images/V.png'></img>	71,89	2750.0	test	<img class = center src='/static/experiments/beast_fmri_test/images/redV.png'></img>	stop	2050.0	2.0	36.0	stop	non-target	V	71,Green Button	89,Yellow Button	450.0	700.0	2250.0	2050.0	0.0	700.0	1.0	0.0	stop_stim
162835.00827357316	283.99172642683703	n/a	798	89	2750	283.991726427	stim	stop-signal	78	232917	0.0-5.36-1.36	beast_fmri_test	306	3.8366666666666664,3.848,3.85935,3.8706833333333335,3.8820166666666664	t,t,t,t,t	<img class = center src='/static/experiments/beast_fmri_test/images/V.png'></img>	71,89	2750.0	test	<img class = center src='/static/experiments/beast_fmri_test/images/redV.png'></img>	stop	2050.0	2.0	36.0	stop	non-target	V	71,Green Button	89,Yellow Button	450.0	700.0	2250.0	2050.0	0.0	700.0	1.0	0.0	ITI
163916.0	500	n/a	-1	-1	500	0.0	fixation	poldrack-single-stim	79	233714	0.0-5.37-0.37	beast_fmri_test	306	3.89335	t	<div class = centerbox><div class = fixation>+</div></div>	none	500.0	test	n/a	n/a	n/a	n/a	n/a	n/a	n/a	n/a	n/a	n/a	n/a	n/a	n/a	n/a	n/a	n/a	n/a	n/a	fixation
161758.12993914925	650.0	n/a	790	89	2750	2157.87006085	stim	stop-signal	80	236464	0.0-5.37-1.37	beast_fmri_test	306	3.90465,3.91595,3.9272833333333335,3.9386,3.9499333333333335,3.9612833333333333,3.9726166666666667	t,t,t,t,t,t,t	<img class = center src='/static/experiments/beast_fmri_test/images/D.png'></img>	71,89	2750.0	test	<img class = center src='/static/experiments/beast_fmri_test/images/redD.png'></img>	stop	2100.0	2.0	37.0	stop	non-target	D	71,Green Button	89,Yellow Button	450.0	650.0	2250.0	2100.0	0.0	650.0	1.0	0.0	go_stim
163858.12993914925	2100.0	n/a	790	89	2750	2157.87006085	stim	stop-signal	80	236464	0.0-5.37-1.37	beast_fmri_test	306	3.90465,3.91595,3.9272833333333335,3.9386,3.9499333333333335,3.9612833333333333,3.9726166666666667	t,t,t,t,t,t,t	<img class = center src='/static/experiments/beast_fmri_test/images/D.png'></img>	71,89	2750.0	test	<img class = center src='/static/experiments/beast_fmri_test/images/redD.png'></img>	stop	2100.0	2.0	37.0	stop	non-target	D	71,Green Button	89,Yellow Button	450.0	650.0	2250.0	2100.0	0.0	650.0	1.0	0.0	stop_stim
164508.12993914925	2157.8700608507629	n/a	790	89	2750	2157.87006085	stim	stop-signal	80	236464	0.0-5.37-1.37	beast_fmri_test	306	3.90465,3.91595,3.9272833333333335,3.9386,3.9499333333333335,3.9612833333333333,3.9726166666666667	t,t,t,t,t,t,t	<img class = center src='/static/experiments/beast_fmri_test/images/D.png'></img>	71,89	2750.0	test	<img class = center src='/static/experiments/beast_fmri_test/images/redD.png'></img>	stop	2100.0	2.0	37.0	stop	non-target	D	71,Green Button	89,Yellow Button	450.0	650.0	2250.0	2100.0	0.0	650.0	1.0	0.0	ITI
169337.0	500	n/a	-1	-1	500	0.0	fixation	poldrack-single-stim	81	239135	0.0-5.38-0.38	beast_fmri_test	306	3.983966666666667	t	<div class = centerbox><div class = fixation>+</div></div>	none	500.0	test	n/a	n/a	n/a	n/a	n/a	n/a	n/a	n/a	n/a	n/a	n/a	n/a	n/a	n/a	n/a	n/a	n/a	n/a	fixation
167359.04697922277	2750	n/a	1409	89	2750	1980.95302078	stim	stop-signal	82	241888	0.0-5.38-1.38	beast_fmri_test	306	3.9952666666666667,4.006616666666667,4.017933333333334,4.0292666666666666,4.0406,4.05195,4.06325	t,t,t,t,t,t,t	<img class = center src='/static/experiments/beast_fmri_test/images/B.png'></img>	71,89	2750.0	test	<img class = center src='/static/experiments/beast_fmri_test/images/redB.png'></img>	go	2150.0	2.0	38.0	go	non-target	B	71,Green Button	89,Yellow Button	450.0	600.0	2250.0	2150.0	1.0	600.0	1.0	n/a	go_stim
170109.04697922277	1980.9530207772345	n/a	1409	89	2750	1980.95302078	stim	stop-signal	82	241888	0.0-5.38-1.38	beast_fmri_test	306	3.9952666666666667,4.006616666666667,4.017933333333334,4.0292666666666666,4.0406,4.05195,4.06325	t,t,t,t,t,t,t	<img class = center src='/static/experiments/beast_fmri_test/images/B.png'></img>	71,89	2750.0	test	<img class = center src='/static/experiments/beast_fmri_test/images/redB.png'></img>	go	2150.0	2.0	38.0	go	non-target	B	71,Green Button	89,Yellow Button	450.0	600.0	2250.0	2150.0	1.0	600.0	1.0	n/a	ITI
174581.0	500	n/a	-1	-1	500	0.0	fixation	poldrack-single-stim	83	244379	0.0-5.39-0.39	beast_fmri_test	306	n/a	n/a	<div class = centerbox><div class = fixation>+</div></div>	none	500.0	test	n/a	n/a	n/a	n/a	n/a	n/a	n/a	n/a	n/a	n/a	n/a	n/a	n/a	n/a	n/a	n/a	n/a	n/a	fixation
169582.0	2750	n/a	987	89	2750	5000.0	stim	stop-signal	84	247130	0.0-5.39-1.39	beast_fmri_test	306	4.074533333333333,4.085866666666667,4.097183333333334,4.108516666666667,4.119833333333333,4.1312,4.142533333333334,4.153866666666667,4.1652,4.176516666666667,4.18785,4.199183333333333	t,t,t,t,t,t,t,t,t,t,t,t	<img class = center src='/static/experiments/beast_fmri_test/images/D.png'></img>	71,89	2750.0	test	<img class = center src='/static/experiments/beast_fmri_test/images/redD.png'></img>	go	2300.0	2.0	39.0	go	target	D	71,Green Button	89,Yellow Button	450.0	600.0	2300.0	2150.0	0.0	450.0	0.0	n/a	go_stim
172332.0	5000.0	n/a	987	89	2750	5000.0	stim	stop-signal	84	247130	0.0-5.39-1.39	beast_fmri_test	306	4.074533333333333,4.085866666666667,4.097183333333334,4.108516666666667,4.119833333333333,4.1312,4.142533333333334,4.153866666666667,4.1652,4.176516666666667,4.18785,4.199183333333333	t,t,t,t,t,t,t,t,t,t,t,t	<img class = center src='/static/experiments/beast_fmri_test/images/D.png'></img>	71,89	2750.0	test	<img class = center src='/static/experiments/beast_fmri_test/images/redD.png'></img>	go	2300.0	2.0	39.0	go	target	D	71,Green Button	89,Yellow Button	450.0	600.0	2300.0	2150.0	0.0	450.0	0.0	n/a	ITI
182849.0	500	n/a	-1	-1	500	0.0	fixation	poldrack-single-stim	85	252647	0.0-5.40-0.40	beast_fmri_test	306	4.210533333333333	t	<div class = centerbox><div class = fixation>+</div></div>	none	500.0	test	n/a	n/a	n/a	n/a	n/a	n/a	n/a	n/a	n/a	n/a	n/a	n/a	n/a	n/a	n/a	n/a	n/a	n/a	fixation
181163.6392441502	600.0	n/a	572	89	2750	1684.36075585	stim	stop-signal	86	255396	0.0-5.40-1.40	beast_fmri_test	306	4.22185,4.23315,4.24445,4.25575,4.2671166666666664,4.278433333333333	t,t,t,t,t,t	<img class = center src='/static/experiments/beast_fmri_test/images/D.png'></img>	71,89	2750.0	test	<img class = center src='/static/experiments/beast_fmri_test/images/redD.png'></img>	stop	2150.0	2.0	40.0	stop	non-target	D	71,Green Button	89,Yellow Button	450.0	600.0	2300.0	2150.0	0.0	600.0	1.0	0.0	go_stim
183313.6392441502	2150.0	n/a	572	89	2750	1684.36075585	stim	stop-signal	86	255396	0.0-5.40-1.40	beast_fmri_test	306	4.22185,4.23315,4.24445,4.25575,4.2671166666666664,4.278433333333333	t,t,t,t,t,t	<img class = center src='/static/experiments/beast_fmri_test/images/D.png'></img>	71,89	2750.0	test	<img class = center src='/static/experiments/beast_fmri_test/images/redD.png'></img>	stop	2150.0	2.0	40.0	stop	non-target	D	71,Green Button	89,Yellow Button	450.0	600.0	2300.0	2150.0	0.0	600.0	1.0	0.0	stop_stim
183913.6392441502	1684.3607558497974	n/a	572	89	2750	1684.36075585	stim	stop-signal	86	255396	0.0-5.40-1.40	beast_fmri_test	306	4.22185,4.23315,4.24445,4.25575,4.2671166666666664,4.278433333333333	t,t,t,t,t,t	<img class = center src='/static/experiments/beast_fmri_test/images/D.png'></img>	71,89	2750.0	test	<img class = center src='/static/experiments/beast_fmri_test/images/redD.png'></img>	stop	2150.0	2.0	40.0	stop	non-target	D	71,Green Button	89,Yellow Button	450.0	600.0	2300.0	2150.0	0.0	600.0	1.0	0.0	ITI
187799.0	500	n/a	-1	-1	500	0.0	fixation	poldrack-single-stim	87	257597	0.0-5.41-0.41	beast_fmri_test	306	4.289783333333333	t	<div class = centerbox><div class = fixation>+</div></div>	none	500.0	test	n/a	n/a	n/a	n/a	n/a	n/a	n/a	n/a	n/a	n/a	n/a	n/a	n/a	n/a	n/a	n/a	n/a	n/a	fixation
187517.51265953862	550.0	n/a	-1	-1	2750	284.487340461	stim	stop-signal	88	260350	0.0-5.41-1.41	beast_fmri_test	306	4.301116666666666,4.3124666666666664,4.3238,4.335133333333333	t,t,t,t	<img class = center src='/static/experiments/beast_fmri_test/images/B.png'></img>	71,89	2750.0	test	<img class = center src='/static/experiments/beast_fmri_test/images/redB.png'></img>	stop	2200.0	2.0	41.0	stop	non-target	B	71,Green Button	89,Yellow Button	450.0	550.0	2300.0	2200.0	0.0	550.0	0.0	1.0	go_stim
189717.51265953862	2200.0	n/a	-1	-1	2750	284.487340461	stim	stop-signal	88	260350	0.0-5.41-1.41	beast_fmri_test	306	4.301116666666666,4.3124666666666664,4.3238,4.335133333333333	t,t,t,t	<img class = center src='/static/experiments/beast_fmri_test/images/B.png'></img>	71,89	2750.0	test	<img class = center src='/static/experiments/beast_fmri_test/images/redB.png'></img>	stop	2200.0	2.0	41.0	stop	non-target	B	71,Green Button	89,Yellow Button	450.0	550.0	2300.0	2200.0	0.0	550.0	0.0	1.0	stop_stim
190267.51265953862	284.48734046138406	n/a	-1	-1	2750	284.487340461	stim	stop-signal	88	260350	0.0-5.41-1.41	beast_fmri_test	306	4.301116666666666,4.3124666666666664,4.3238,4.335133333333333	t,t,t,t	<img class = center src='/static/experiments/beast_fmri_test/images/B.png'></img>	71,89	2750.0	test	<img class = center src='/static/experiments/beast_fmri_test/images/redB.png'></img>	stop	2200.0	2.0	41.0	stop	non-target	B	71,Green Button	89,Yellow Button	450.0	550.0	2300.0	2200.0	0.0	550.0	0.0	1.0	ITI
191352.0	500	n/a	-1	-1	500	0.0	fixation	poldrack-single-stim	89	261150	0.0-5.42-0.42	beast_fmri_test	306	4.346466666666666	t	<div class = centerbox><div class = fixation>+</div></div>	none	500.0	test	n/a	n/a	n/a	n/a	n/a	n/a	n/a	n/a	n/a	n/a	n/a	n/a	n/a	n/a	n/a	n/a	n/a	n/a	fixation
191334.54255050159	2750	n/a	1247	71	2750	17.4574494984	stim	stop-signal	90	263900	0.0-5.42-1.42	beast_fmri_test	306	4.3578,4.369133333333333,4.380466666666667,4.391783333333334	t,t,t,t	<img class = center src='/static/experiments/beast_fmri_test/images/B.png'></img>	71,89	2750.0	test	<img class = center src='/static/experiments/beast_fmri_test/images/redB.png'></img>	go	2150.0	2.0	42.0	go	non-target	B	71,Green Button	89,Yellow Button	450.0	600.0	2300.0	2150.0	0.0	600.0	0.0	n/a	go_stim
194084.54255050159	17.45744949842301	n/a	1247	71	2750	17.4574494984	stim	stop-signal	90	263900	0.0-5.42-1.42	beast_fmri_test	306	4.3578,4.369133333333333,4.380466666666667,4.391783333333334	t,t,t,t	<img class = center src='/static/experiments/beast_fmri_test/images/B.png'></img>	71,89	2750.0	test	<img class = center src='/static/experiments/beast_fmri_test/images/redB.png'></img>	go	2150.0	2.0	42.0	go	non-target	B	71,Green Button	89,Yellow Button	450.0	600.0	2300.0	2150.0	0.0	600.0	0.0	n/a	ITI
194631.0	500	n/a	-1	-1	500	0.0	fixation	poldrack-single-stim	91	264429	0.0-5.43-0.43	beast_fmri_test	306	4.403083333333333	t	<div class = centerbox><div class = fixation>+</div></div>	none	500.0	test	n/a	n/a	n/a	n/a	n/a	n/a	n/a	n/a	n/a	n/a	n/a	n/a	n/a	n/a	n/a	n/a	n/a	n/a	fixation
189634.0	2750	n/a	1438	71	2750	5000.0	stim	stop-signal	92	267182	0.0-5.43-1.43	beast_fmri_test	306	4.414383333333333,4.425716666666666,4.43705,4.448383333333333,4.459683333333333,4.471033333333334,4.482383333333333,4.4937,4.5050333333333334,4.516383333333334,4.527716666666667	t,t,t,t,t,t,t,t,t,t,t	<img class = center src='/static/experiments/beast_fmri_test/images/B.png'></img>	71,89	2750.0	test	<img class = center src='/static/experiments/beast_fmri_test/images/redB.png'></img>	go	2300.0	2.0	43.0	go	target	B	71,Green Button	89,Yellow Button	450.0	600.0	2300.0	2150.0	1.0	450.0	1.0	n/a	go_stim
192384.0	5000.0	n/a	1438	71	2750	5000.0	stim	stop-signal	92	267182	0.0-5.43-1.43	beast_fmri_test	306	4.414383333333333,4.425716666666666,4.43705,4.448383333333333,4.459683333333333,4.471033333333334,4.482383333333333,4.4937,4.5050333333333334,4.516383333333334,4.527716666666667	t,t,t,t,t,t,t,t,t,t,t	<img class = center src='/static/experiments/beast_fmri_test/images/B.png'></img>	71,89	2750.0	test	<img class = center src='/static/experiments/beast_fmri_test/images/redB.png'></img>	go	2300.0	2.0	43.0	go	target	B	71,Green Button	89,Yellow Button	450.0	600.0	2300.0	2150.0	1.0	450.0	1.0	n/a	ITI
202900.0	500	n/a	-1	-1	500	0.0	fixation	poldrack-single-stim	93	272698	0.0-5.44-0.44	beast_fmri_test	306	4.53905	t	<div class = centerbox><div class = fixation>+</div></div>	none	500.0	test	n/a	n/a	n/a	n/a	n/a	n/a	n/a	n/a	n/a	n/a	n/a	n/a	n/a	n/a	n/a	n/a	n/a	n/a	fixation
202825.79415524664	2750	n/a	1040	89	2750	72.2058447534	stim	stop-signal	94	275446	0.0-5.44-1.44	beast_fmri_test	306	4.5503833333333334,4.5617,4.572966666666667,4.5842833333333335	t,t,t,t	<img class = center src='/static/experiments/beast_fmri_test/images/B.png'></img>	71,89	2750.0	test	<img class = center src='/static/experiments/beast_fmri_test/images/redB.png'></img>	go	2300.0	2.0	44.0	go	target	B	71,Green Button	89,Yellow Button	450.0	600.0	2300.0	2150.0	0.0	450.0	0.0	n/a	go_stim
205575.79415524664	72.205844753359301	n/a	1040	89	2750	72.2058447534	stim	stop-signal	94	275446	0.0-5.44-1.44	beast_fmri_test	306	4.5503833333333334,4.5617,4.572966666666667,4.5842833333333335	t,t,t,t	<img class = center src='/static/experiments/beast_fmri_test/images/B.png'></img>	71,89	2750.0	test	<img class = center src='/static/experiments/beast_fmri_test/images/redB.png'></img>	go	2300.0	2.0	44.0	go	target	B	71,Green Button	89,Yellow Button	450.0	600.0	2300.0	2150.0	0.0	450.0	0.0	n/a	ITI
206237.0	500	n/a	-1	-1	500	0.0	fixation	poldrack-single-stim	95	276035	0.0-5.45-0.45	beast_fmri_test	306	4.595633333333334	t	<div class = centerbox><div class = fixation>+</div></div>	none	500.0	test	n/a	n/a	n/a	n/a	n/a	n/a	n/a	n/a	n/a	n/a	n/a	n/a	n/a	n/a	n/a	n/a	n/a	n/a	fixation
206042.59133805538	2750	n/a	1062	71	2750	197.408661945	stim	stop-signal	96	278788	0.0-5.45-1.45	beast_fmri_test	306	4.606966666666667,4.618333333333333,4.6296333333333335,4.6409666666666665	t,t,t,t	<img class = center src='/static/experiments/beast_fmri_test/images/B.png'></img>	71,89	2750.0	test	<img class = center src='/static/experiments/beast_fmri_test/images/redB.png'></img>	go	2300.0	2.0	45.0	go	target	B	71,Green Button	89,Yellow Button	450.0	600.0	2300.0	2150.0	1.0	450.0	1.0	n/a	go_stim
208792.59133805538	197.40866194459315	n/a	1062	71	2750	197.408661945	stim	stop-signal	96	278788	0.0-5.45-1.45	beast_fmri_test	306	4.606966666666667,4.618333333333333,4.6296333333333335,4.6409666666666665	t,t,t,t	<img class = center src='/static/experiments/beast_fmri_test/images/B.png'></img>	71,89	2750.0	test	<img class = center src='/static/experiments/beast_fmri_test/images/redB.png'></img>	go	2300.0	2.0	45.0	go	target	B	71,Green Button	89,Yellow Button	450.0	600.0	2300.0	2150.0	1.0	450.0	1.0	n/a	ITI
209703.0	500	n/a	-1	-1	500	0.0	fixation	poldrack-single-stim	97	279501	0.0-5.46-0.46	beast_fmri_test	306	4.6523	t	<div class = centerbox><div class = fixation>+</div></div>	none	500.0	test	n/a	n/a	n/a	n/a	n/a	n/a	n/a	n/a	n/a	n/a	n/a	n/a	n/a	n/a	n/a	n/a	n/a	n/a	fixation
208924.23015429004	2750	n/a	1112	89	2750	780.76984571	stim	stop-signal	98	282253	0.0-5.46-1.46	beast_fmri_test	306	4.663633333333333,4.674966666666666,4.6863,4.697633333333333,4.708966666666667	t,t,t,t,t	<img class = center src='/static/experiments/beast_fmri_test/images/T.png'></img>	71,89	2750.0	test	<img class = center src='/static/experiments/beast_fmri_test/images/redT.png'></img>	go	2150.0	2.0	46.0	go	non-target	T	71,Green Button	89,Yellow Button	450.0	600.0	2300.0	2150.0	1.0	600.0	1.0	n/a	go_stim
211674.23015429004	780.76984570995637	n/a	1112	89	2750	780.76984571	stim	stop-signal	98	282253	0.0-5.46-1.46	beast_fmri_test	306	4.663633333333333,4.674966666666666,4.6863,4.697633333333333,4.708966666666667	t,t,t,t,t	<img class = center src='/static/experiments/beast_fmri_test/images/T.png'></img>	71,89	2750.0	test	<img class = center src='/static/experiments/beast_fmri_test/images/redT.png'></img>	go	2150.0	2.0	46.0	go	non-target	T	71,Green Button	89,Yellow Button	450.0	600.0	2300.0	2150.0	1.0	600.0	1.0	n/a	ITI
228242.0	15000	n/a	-1	-1	15000	0.0	practice-no-stop-feedback	poldrack-single-stim	99	298040	0.0-6.0	beast_fmri_test	306	4.7203,4.731616666666667,4.7429,4.754216666666666,4.76555,4.7769,4.788233333333333,4.799566666666666,4.8109,4.822216666666667,4.833566666666667,4.8449,4.856233333333333,4.86755,4.8789,4.890233333333334,4.901516666666667,4.912816666666667,4.92415,4.935483333333333,4.946816666666667,4.9581333333333335	t,t,t,t,t,t,t,t,t,t,t,t,t,t,t,t,t,t,t,t,t,t	"<div class = ""centerbox""><p class = ""center-block-text"">Your delay is 2 trials.</p><p class = center-block-text>Please wait for the scanner to start the block</p></div>"	77	15000.0	n/a	n/a	n/a	n/a	n/a	n/a	n/a	n/a	n/a	n/a	n/a	n/a	n/a	n/a	n/a	n/a	n/a	n/a	n/a	practice-no-stop-feedback
228745.0	500	n/a	-1	-1	500	0.0	fixation	poldrack-single-stim	100	298543	0.0-7.0-0.0	beast_fmri_test	306	4.969483333333334	t	<div class = centerbox><div class = fixation>+</div></div>	none	500.0	test	n/a	n/a	n/a	n/a	n/a	n/a	n/a	n/a	n/a	n/a	n/a	n/a	n/a	n/a	n/a	n/a	n/a	n/a	fixation
228286.48723441694	temp_go_duration	n/a	584	89	2750	461.512765583	stim	stop-signal	101	301296	0.0-7.0-1.0	beast_fmri_test	306	4.9808,4.992133333333333,5.0034833333333335,5.0148166666666665,5.02615	t,t,t,t,t	<img class = center src='/static/experiments/beast_fmri_test/images/T.png'></img>	71,89	2750.0	test	<img class = center src='/static/experiments/beast_fmri_test/images/redT.png'></img>	stop	-1.0	2.0	0.0	stop	temp-non-target	T	71,Green Button	89,Yellow Button	450.0	600.0	2300.0	2150.0	0.0	n/a	n/a	0.0	go_stim
temp-non-target	temp_stop_duration	n/a	584	89	2750	461.512765583	stim	stop-signal	101	301296	0.0-7.0-1.0	beast_fmri_test	306	4.9808,4.992133333333333,5.0034833333333335,5.0148166666666665,5.02615	t,t,t,t,t	<img class = center src='/static/experiments/beast_fmri_test/images/T.png'></img>	71,89	2750.0	test	<img class = center src='/static/experiments/beast_fmri_test/images/redT.png'></img>	stop	-1.0	2.0	0.0	stop	temp-non-target	T	71,Green Button	89,Yellow Button	450.0	600.0	2300.0	2150.0	0.0	n/a	n/a	0.0	stop_stim
231036.48723441694	461.51276558306478	n/a	584	89	2750	461.512765583	stim	stop-signal	101	301296	0.0-7.0-1.0	beast_fmri_test	306	4.9808,4.992133333333333,5.0034833333333335,5.0148166666666665,5.02615	t,t,t,t,t	<img class = center src='/static/experiments/beast_fmri_test/images/T.png'></img>	71,89	2750.0	test	<img class = center src='/static/experiments/beast_fmri_test/images/redT.png'></img>	stop	-1.0	2.0	0.0	stop	temp-non-target	T	71,Green Button	89,Yellow Button	450.0	600.0	2300.0	2150.0	0.0	n/a	n/a	0.0	ITI
232476.0	500	n/a	-1	-1	500	0.0	fixation	poldrack-single-stim	102	302274	0.0-7.1-0.1	beast_fmri_test	306	5.037483333333333	t	<div class = centerbox><div class = fixation>+</div></div>	none	500.0	test	n/a	n/a	n/a	n/a	n/a	n/a	n/a	n/a	n/a	n/a	n/a	n/a	n/a	n/a	n/a	n/a	n/a	n/a	fixation
229909.68989566108	temp_go_duration	n/a	852	89	2750	2564.31010434	stim	stop-signal	103	305022	0.0-7.1-1.1	beast_fmri_test	306	5.048816666666666,5.0601,5.071416666666667,5.0827333333333335,5.0940666666666665,5.105383333333333,5.116733333333333	t,t,t,t,t,t,t	<img class = center src='/static/experiments/beast_fmri_test/images/B.png'></img>	71,89	2750.0	test	<img class = center src='/static/experiments/beast_fmri_test/images/redB.png'></img>	stop	-1.0	2.0	1.0	stop	temp-non-target	B	71,Green Button	89,Yellow Button	450.0	600.0	2300.0	2150.0	0.0	n/a	n/a	0.0	go_stim
temp-non-target	temp_stop_duration	n/a	852	89	2750	2564.31010434	stim	stop-signal	103	305022	0.0-7.1-1.1	beast_fmri_test	306	5.048816666666666,5.0601,5.071416666666667,5.0827333333333335,5.0940666666666665,5.105383333333333,5.116733333333333	t,t,t,t,t,t,t	<img class = center src='/static/experiments/beast_fmri_test/images/B.png'></img>	71,89	2750.0	test	<img class = center src='/static/experiments/beast_fmri_test/images/redB.png'></img>	stop	-1.0	2.0	1.0	stop	temp-non-target	B	71,Green Button	89,Yellow Button	450.0	600.0	2300.0	2150.0	0.0	n/a	n/a	0.0	stop_stim
232659.68989566108	2564.3101043389261	n/a	852	89	2750	2564.31010434	stim	stop-signal	103	305022	0.0-7.1-1.1	beast_fmri_test	306	5.048816666666666,5.0601,5.071416666666667,5.0827333333333335,5.0940666666666665,5.105383333333333,5.116733333333333	t,t,t,t,t,t,t	<img class = center src='/static/experiments/beast_fmri_test/images/B.png'></img>	71,89	2750.0	test	<img class = center src='/static/experiments/beast_fmri_test/images/redB.png'></img>	stop	-1.0	2.0	1.0	stop	temp-non-target	B	71,Green Button	89,Yellow Button	450.0	600.0	2300.0	2150.0	0.0	n/a	n/a	0.0	ITI
238305.0	500	n/a	-1	-1	500	0.0	fixation	poldrack-single-stim	104	308103	0.0-7.2-0.2	beast_fmri_test	306	5.12805	t	<div class = centerbox><div class = fixation>+</div></div>	none	500.0	test	n/a	n/a	n/a	n/a	n/a	n/a	n/a	n/a	n/a	n/a	n/a	n/a	n/a	n/a	n/a	n/a	n/a	n/a	fixation
238209.16595255083	2750	n/a	406	71	2750	98.8340474492	stim	stop-signal	105	310856	0.0-7.2-1.2	beast_fmri_test	306	5.1394,5.150733333333333,5.162066666666667,5.1734	t,t,t,t	<img class = center src='/static/experiments/beast_fmri_test/images/T.png'></img>	71,89	2750.0	test	<img class = center src='/static/experiments/beast_fmri_test/images/redT.png'></img>	go	2300.0	2.0	2.0	go	target	T	71,Green Button	89,Yellow Button	450.0	600.0	2300.0	2150.0	1.0	450.0	1.0	n/a	go_stim
240959.16595255083	98.83404744915012	n/a	406	71	2750	98.8340474492	stim	stop-signal	105	310856	0.0-7.2-1.2	beast_fmri_test	306	5.1394,5.150733333333333,5.162066666666667,5.1734	t,t,t,t	<img class = center src='/static/experiments/beast_fmri_test/images/T.png'></img>	71,89	2750.0	test	<img class = center src='/static/experiments/beast_fmri_test/images/redT.png'></img>	go	2300.0	2.0	2.0	go	target	T	71,Green Button	89,Yellow Button	450.0	600.0	2300.0	2150.0	1.0	450.0	1.0	n/a	ITI
241673.0	500	n/a	-1	-1	500	0.0	fixation	poldrack-single-stim	106	311471	0.0-7.3-0.3	beast_fmri_test	306	5.184716666666667	t	<div class = centerbox><div class = fixation>+</div></div>	none	500.0	test	n/a	n/a	n/a	n/a	n/a	n/a	n/a	n/a	n/a	n/a	n/a	n/a	n/a	n/a	n/a	n/a	n/a	n/a	fixation
240395.19696014456	2750	n/a	811	89	2750	1276.80303986	stim	stop-signal	107	314220	0.0-7.3-1.3	beast_fmri_test	306	5.196066666666667,5.207416666666667,5.2187166666666664,5.230033333333333,5.241333333333333,5.252666666666666	t,t,t,t,t,t	<img class = center src='/static/experiments/beast_fmri_test/images/T.png'></img>	71,89	2750.0	test	<img class = center src='/static/experiments/beast_fmri_test/images/redT.png'></img>	go	2150.0	2.0	3.0	go	non-target	T	71,Green Button	89,Yellow Button	450.0	600.0	2300.0	2150.0	1.0	600.0	1.0	n/a	go_stim
243145.19696014456	1276.8030398554386	n/a	811	89	2750	1276.80303986	stim	stop-signal	107	314220	0.0-7.3-1.3	beast_fmri_test	306	5.196066666666667,5.207416666666667,5.2187166666666664,5.230033333333333,5.241333333333333,5.252666666666666	t,t,t,t,t,t	<img class = center src='/static/experiments/beast_fmri_test/images/T.png'></img>	71,89	2750.0	test	<img class = center src='/static/experiments/beast_fmri_test/images/redT.png'></img>	go	2150.0	2.0	3.0	go	non-target	T	71,Green Button	89,Yellow Button	450.0	600.0	2300.0	2150.0	1.0	600.0	1.0	n/a	ITI
246214.0	500	n/a	-1	-1	500	0.0	fixation	poldrack-single-stim	108	316012	0.0-7.4-0.4	beast_fmri_test	306	5.264	t	<div class = centerbox><div class = fixation>+</div></div>	none	500.0	test	n/a	n/a	n/a	n/a	n/a	n/a	n/a	n/a	n/a	n/a	n/a	n/a	n/a	n/a	n/a	n/a	n/a	n/a	fixation
246082.19782459585	2750	n/a	716	71	2750	134.802175404	stim	stop-signal	109	318765	0.0-7.4-1.4	beast_fmri_test	306	5.275333333333333,5.286666666666667,5.298,5.309333333333333	t,t,t,t	<img class = center src='/static/experiments/beast_fmri_test/images/T.png'></img>	71,89	2750.0	test	<img class = center src='/static/experiments/beast_fmri_test/images/redT.png'></img>	go	2300.0	2.0	4.0	go	target	T	71,Green Button	89,Yellow Button	450.0	600.0	2300.0	2150.0	1.0	450.0	1.0	n/a	go_stim
248832.19782459585	134.80217540417155	n/a	716	71	2750	134.802175404	stim	stop-signal	109	318765	0.0-7.4-1.4	beast_fmri_test	306	5.275333333333333,5.286666666666667,5.298,5.309333333333333	t,t,t,t	<img class = center src='/static/experiments/beast_fmri_test/images/T.png'></img>	71,89	2750.0	test	<img class = center src='/static/experiments/beast_fmri_test/images/redT.png'></img>	go	2300.0	2.0	4.0	go	target	T	71,Green Button	89,Yellow Button	450.0	600.0	2300.0	2150.0	1.0	450.0	1.0	n/a	ITI
249618.0	500	n/a	-1	-1	500	0.0	fixation	poldrack-single-stim	110	319416	0.0-7.5-0.5	beast_fmri_test	306	5.320666666666667	t	<div class = centerbox><div class = fixation>+</div></div>	none	500.0	test	n/a	n/a	n/a	n/a	n/a	n/a	n/a	n/a	n/a	n/a	n/a	n/a	n/a	n/a	n/a	n/a	n/a	n/a	fixation
247648.89198951266	2750	n/a	734	89	2750	1972.10801049	stim	stop-signal	111	322169	0.0-7.5-1.5	beast_fmri_test	306	5.332,5.343333333333334,5.354666666666667,5.366,5.3773333333333335,5.3886666666666665,5.39995	t,t,t,t,t,t,t	<img class = center src='/static/experiments/beast_fmri_test/images/V.png'></img>	71,89	2750.0	test	<img class = center src='/static/experiments/beast_fmri_test/images/redV.png'></img>	go	2150.0	2.0	5.0	go	non-target	V	71,Green Button	89,Yellow Button	450.0	600.0	2300.0	2150.0	1.0	600.0	1.0	n/a	go_stim
250398.89198951266	1972.1080104873572	n/a	734	89	2750	1972.10801049	stim	stop-signal	111	322169	0.0-7.5-1.5	beast_fmri_test	306	5.332,5.343333333333334,5.354666666666667,5.366,5.3773333333333335,5.3886666666666665,5.39995	t,t,t,t,t,t,t	<img class = center src='/static/experiments/beast_fmri_test/images/V.png'></img>	71,89	2750.0	test	<img class = center src='/static/experiments/beast_fmri_test/images/redV.png'></img>	go	2150.0	2.0	5.0	go	non-target	V	71,Green Button	89,Yellow Button	450.0	600.0	2300.0	2150.0	1.0	600.0	1.0	n/a	ITI
254855.0	500	n/a	-1	-1	500	0.0	fixation	poldrack-single-stim	112	324653	0.0-7.6-0.6	beast_fmri_test	306	n/a	n/a	<div class = centerbox><div class = fixation>+</div></div>	none	500.0	test	n/a	n/a	n/a	n/a	n/a	n/a	n/a	n/a	n/a	n/a	n/a	n/a	n/a	n/a	n/a	n/a	n/a	n/a	fixation
252773.96414402808	450.0	n/a	510	71	2750	2083.03585597	stim	stop-signal	113	327405	0.0-7.6-1.6	beast_fmri_test	306	5.41125,5.4225666666666665,5.4339,5.44525,5.456583333333334,5.4679166666666665,5.47925,5.490583333333333	t,t,t,t,t,t,t,t	<img class = center src='/static/experiments/beast_fmri_test/images/T.png'></img>	71,89	2750.0	test	<img class = center src='/static/experiments/beast_fmri_test/images/redT.png'></img>	stop	2300.0	2.0	6.0	stop	target	T	71,Green Button	89,Yellow Button	450.0	600.0	2300.0	2150.0	0.0	450.0	1.0	0.0	go_stim
255073.96414402808	2300.0	n/a	510	71	2750	2083.03585597	stim	stop-signal	113	327405	0.0-7.6-1.6	beast_fmri_test	306	5.41125,5.4225666666666665,5.4339,5.44525,5.456583333333334,5.4679166666666665,5.47925,5.490583333333333	t,t,t,t,t,t,t,t	<img class = center src='/static/experiments/beast_fmri_test/images/T.png'></img>	71,89	2750.0	test	<img class = center src='/static/experiments/beast_fmri_test/images/redT.png'></img>	stop	2300.0	2.0	6.0	stop	target	T	71,Green Button	89,Yellow Button	450.0	600.0	2300.0	2150.0	0.0	450.0	1.0	0.0	stop_stim
255523.96414402808	2083.035855971892	n/a	510	71	2750	2083.03585597	stim	stop-signal	113	327405	0.0-7.6-1.6	beast_fmri_test	306	5.41125,5.4225666666666665,5.4339,5.44525,5.456583333333334,5.4679166666666665,5.47925,5.490583333333333	t,t,t,t,t,t,t,t	<img class = center src='/static/experiments/beast_fmri_test/images/T.png'></img>	71,89	2750.0	test	<img class = center src='/static/experiments/beast_fmri_test/images/redT.png'></img>	stop	2300.0	2.0	6.0	stop	target	T	71,Green Button	89,Yellow Button	450.0	600.0	2300.0	2150.0	0.0	450.0	1.0	0.0	ITI
260210.0	500	n/a	-1	-1	500	0.0	fixation	poldrack-single-stim	114	330008	0.0-7.7-0.7	beast_fmri_test	306	n/a	n/a	<div class = centerbox><div class = fixation>+</div></div>	none	500.0	test	n/a	n/a	n/a	n/a	n/a	n/a	n/a	n/a	n/a	n/a	n/a	n/a	n/a	n/a	n/a	n/a	n/a	n/a	fixation
259658.50372069731	2750	n/a	660	89	2750	555.496279303	stim	stop-signal	115	332762	0.0-7.7-1.7	beast_fmri_test	306	5.501916666666666,5.51325,5.524583333333333,5.535916666666667,5.547233333333334	t,t,t,t,t	<img class = center src='/static/experiments/beast_fmri_test/images/P.png'></img>	71,89	2750.0	test	<img class = center src='/static/experiments/beast_fmri_test/images/redP.png'></img>	go	2150.0	2.0	7.0	go	non-target	P	71,Green Button	89,Yellow Button	400.0	600.0	2300.0	2150.0	1.0	600.0	1.0	n/a	go_stim
262408.50372069731	555.49627930269287	n/a	660	89	2750	555.496279303	stim	stop-signal	115	332762	0.0-7.7-1.7	beast_fmri_test	306	5.501916666666666,5.51325,5.524583333333333,5.535916666666667,5.547233333333334	t,t,t,t,t	<img class = center src='/static/experiments/beast_fmri_test/images/P.png'></img>	71,89	2750.0	test	<img class = center src='/static/experiments/beast_fmri_test/images/redP.png'></img>	go	2150.0	2.0	7.0	go	non-target	P	71,Green Button	89,Yellow Button	400.0	600.0	2300.0	2150.0	1.0	600.0	1.0	n/a	ITI
264034.0	500	n/a	-1	-1	500	0.0	fixation	poldrack-single-stim	116	333832	0.0-7.8-0.8	beast_fmri_test	306	5.558583333333333	t	<div class = centerbox><div class = fixation>+</div></div>	none	500.0	test	n/a	n/a	n/a	n/a	n/a	n/a	n/a	n/a	n/a	n/a	n/a	n/a	n/a	n/a	n/a	n/a	n/a	n/a	fixation
264024.2419714586	2750	n/a	733	89	2750	12.7580285414	stim	stop-signal	117	336585	0.0-7.8-1.8	beast_fmri_test	306	5.56985,5.581166666666666,5.5925,5.603833333333333	t,t,t,t	<img class = center src='/static/experiments/beast_fmri_test/images/D.png'></img>	71,89	2750.0	test	<img class = center src='/static/experiments/beast_fmri_test/images/redD.png'></img>	go	2150.0	2.0	8.0	go	non-target	D	71,Green Button	89,Yellow Button	400.0	600.0	2300.0	2150.0	1.0	600.0	1.0	n/a	go_stim
266774.2419714586	12.758028541408251	n/a	733	89	2750	12.7580285414	stim	stop-signal	117	336585	0.0-7.8-1.8	beast_fmri_test	306	5.56985,5.581166666666666,5.5925,5.603833333333333	t,t,t,t	<img class = center src='/static/experiments/beast_fmri_test/images/D.png'></img>	71,89	2750.0	test	<img class = center src='/static/experiments/beast_fmri_test/images/redD.png'></img>	go	2150.0	2.0	8.0	go	non-target	D	71,Green Button	89,Yellow Button	400.0	600.0	2300.0	2150.0	1.0	600.0	1.0	n/a	ITI
267317.0	500	n/a	-1	-1	500	0.0	fixation	poldrack-single-stim	118	337115	0.0-7.9-0.9	beast_fmri_test	306	5.615183333333333	t	<div class = centerbox><div class = fixation>+</div></div>	none	500.0	test	n/a	n/a	n/a	n/a	n/a	n/a	n/a	n/a	n/a	n/a	n/a	n/a	n/a	n/a	n/a	n/a	n/a	n/a	fixation
266565.37564221886	2750	n/a	1506	89	2750	754.624357781	stim	stop-signal	119	339868	0.0-7.9-1.9	beast_fmri_test	306	5.6265,5.637833333333333,5.649166666666667,5.6605,5.6718	t,t,t,t,t	<img class = center src='/static/experiments/beast_fmri_test/images/P.png'></img>	71,89	2750.0	test	<img class = center src='/static/experiments/beast_fmri_test/images/redP.png'></img>	go	2350.0	2.0	9.0	go	target	P	71,Green Button	89,Yellow Button	400.0	600.0	2350.0	2150.0	0.0	400.0	0.0	n/a	go_stim
269315.37564221886	754.62435778115628	n/a	1506	89	2750	754.624357781	stim	stop-signal	119	339868	0.0-7.9-1.9	beast_fmri_test	306	5.6265,5.637833333333333,5.649166666666667,5.6605,5.6718	t,t,t,t,t	<img class = center src='/static/experiments/beast_fmri_test/images/P.png'></img>	71,89	2750.0	test	<img class = center src='/static/experiments/beast_fmri_test/images/redP.png'></img>	go	2350.0	2.0	9.0	go	target	P	71,Green Button	89,Yellow Button	400.0	600.0	2350.0	2150.0	0.0	400.0	0.0	n/a	ITI
271337.0	500	n/a	-1	-1	500	0.0	fixation	poldrack-single-stim	120	341135	0.0-7.10-0.10	beast_fmri_test	306	5.683116666666667	t	<div class = centerbox><div class = fixation>+</div></div>	none	500.0	test	n/a	n/a	n/a	n/a	n/a	n/a	n/a	n/a	n/a	n/a	n/a	n/a	n/a	n/a	n/a	n/a	n/a	n/a	fixation
270976.20776499185	2750	n/a	872	71	2750	363.792235008	stim	stop-signal	121	343888	0.0-7.10-1.10	beast_fmri_test	306	5.694416666666666,5.705733333333334,5.717083333333333,5.728433333333333	t,t,t,t	<img class = center src='/static/experiments/beast_fmri_test/images/D.png'></img>	71,89	2750.0	test	<img class = center src='/static/experiments/beast_fmri_test/images/redD.png'></img>	go	2350.0	2.0	10.0	go	target	D	71,Green Button	89,Yellow Button	400.0	600.0	2350.0	2150.0	1.0	400.0	1.0	n/a	go_stim
273726.20776499185	363.79223500816011	n/a	872	71	2750	363.792235008	stim	stop-signal	121	343888	0.0-7.10-1.10	beast_fmri_test	306	5.694416666666666,5.705733333333334,5.717083333333333,5.728433333333333	t,t,t,t	<img class = center src='/static/experiments/beast_fmri_test/images/D.png'></img>	71,89	2750.0	test	<img class = center src='/static/experiments/beast_fmri_test/images/redD.png'></img>	go	2350.0	2.0	10.0	go	target	D	71,Green Button	89,Yellow Button	400.0	600.0	2350.0	2150.0	1.0	400.0	1.0	n/a	ITI
274970.0	500	n/a	-1	-1	500	0.0	fixation	poldrack-single-stim	122	344768	0.0-7.11-0.11	beast_fmri_test	306	5.739766666666666	t	<div class = centerbox><div class = fixation>+</div></div>	none	500.0	test	n/a	n/a	n/a	n/a	n/a	n/a	n/a	n/a	n/a	n/a	n/a	n/a	n/a	n/a	n/a	n/a	n/a	n/a	fixation
273101.66693252511	600.0	n/a	-1	-1	2750	1872.33306747	stim	stop-signal	123	347522	0.0-7.11-1.11	beast_fmri_test	306	5.7511,5.762433333333333,5.773783333333333,5.785083333333334,5.796433333333334,5.80775,5.8191	t,t,t,t,t,t,t	<img class = center src='/static/experiments/beast_fmri_test/images/V.png'></img>	71,89	2750.0	test	<img class = center src='/static/experiments/beast_fmri_test/images/redV.png'></img>	stop	2150.0	2.0	11.0	stop	non-target	V	71,Green Button	89,Yellow Button	400.0	600.0	2350.0	2150.0	0.0	600.0	0.0	1.0	go_stim
275251.66693252511	2150.0	n/a	-1	-1	2750	1872.33306747	stim	stop-signal	123	347522	0.0-7.11-1.11	beast_fmri_test	306	5.7511,5.762433333333333,5.773783333333333,5.785083333333334,5.796433333333334,5.80775,5.8191	t,t,t,t,t,t,t	<img class = center src='/static/experiments/beast_fmri_test/images/V.png'></img>	71,89	2750.0	test	<img class = center src='/static/experiments/beast_fmri_test/images/redV.png'></img>	stop	2150.0	2.0	11.0	stop	non-target	V	71,Green Button	89,Yellow Button	400.0	600.0	2350.0	2150.0	0.0	600.0	0.0	1.0	stop_stim
275851.66693252511	1872.333067474875	n/a	-1	-1	2750	1872.33306747	stim	stop-signal	123	347522	0.0-7.11-1.11	beast_fmri_test	306	5.7511,5.762433333333333,5.773783333333333,5.785083333333334,5.796433333333334,5.80775,5.8191	t,t,t,t,t,t,t	<img class = center src='/static/experiments/beast_fmri_test/images/V.png'></img>	71,89	2750.0	test	<img class = center src='/static/experiments/beast_fmri_test/images/redV.png'></img>	stop	2150.0	2.0	11.0	stop	non-target	V	71,Green Button	89,Yellow Button	400.0	600.0	2350.0	2150.0	0.0	600.0	0.0	1.0	ITI
280115.0	500	n/a	-1	-1	500	0.0	fixation	poldrack-single-stim	124	349913	0.0-7.12-0.12	beast_fmri_test	306	5.830433333333334	t	<div class = centerbox><div class = fixation>+</div></div>	none	500.0	test	n/a	n/a	n/a	n/a	n/a	n/a	n/a	n/a	n/a	n/a	n/a	n/a	n/a	n/a	n/a	n/a	n/a	n/a	fixation
279168.18863764696	650.0	n/a	-1	-1	2750	949.811362353	stim	stop-signal	125	352666	0.0-7.12-1.12	beast_fmri_test	306	5.8417666666666666,5.8531,5.864433333333333,5.875766666666666,5.8871	t,t,t,t,t	<img class = center src='/static/experiments/beast_fmri_test/images/V.png'></img>	71,89	2750.0	test	<img class = center src='/static/experiments/beast_fmri_test/images/redV.png'></img>	stop	2100.0	2.0	12.0	stop	non-target	V	71,Green Button	89,Yellow Button	400.0	650.0	2350.0	2100.0	0.0	650.0	0.0	1.0	go_stim
281268.18863764696	2100.0	n/a	-1	-1	2750	949.811362353	stim	stop-signal	125	352666	0.0-7.12-1.12	beast_fmri_test	306	5.8417666666666666,5.8531,5.864433333333333,5.875766666666666,5.8871	t,t,t,t,t	<img class = center src='/static/experiments/beast_fmri_test/images/V.png'></img>	71,89	2750.0	test	<img class = center src='/static/experiments/beast_fmri_test/images/redV.png'></img>	stop	2100.0	2.0	12.0	stop	non-target	V	71,Green Button	89,Yellow Button	400.0	650.0	2350.0	2100.0	0.0	650.0	0.0	1.0	stop_stim
281918.18863764696	949.81136235303074	n/a	-1	-1	2750	949.811362353	stim	stop-signal	125	352666	0.0-7.12-1.12	beast_fmri_test	306	5.8417666666666666,5.8531,5.864433333333333,5.875766666666666,5.8871	t,t,t,t,t	<img class = center src='/static/experiments/beast_fmri_test/images/V.png'></img>	71,89	2750.0	test	<img class = center src='/static/experiments/beast_fmri_test/images/redV.png'></img>	stop	2100.0	2.0	12.0	stop	non-target	V	71,Green Button	89,Yellow Button	400.0	650.0	2350.0	2100.0	0.0	650.0	0.0	1.0	ITI
284330.0	500	n/a	-1	-1	500	0.0	fixation	poldrack-single-stim	126	354128	0.0-7.13-0.13	beast_fmri_test	306	5.8984	t	<div class = centerbox><div class = fixation>+</div></div>	none	500.0	test	n/a	n/a	n/a	n/a	n/a	n/a	n/a	n/a	n/a	n/a	n/a	n/a	n/a	n/a	n/a	n/a	n/a	n/a	fixation
282666.61722912575	700.0	n/a	821	89	2750	1664.38277087	stim	stop-signal	127	356879	0.0-7.13-1.13	beast_fmri_test	306	5.909666666666666,5.921016666666667,5.93235,5.943683333333333,5.955016666666666,5.96635	t,t,t,t,t,t	<img class = center src='/static/experiments/beast_fmri_test/images/D.png'></img>	71,89	2750.0	test	<img class = center src='/static/experiments/beast_fmri_test/images/redD.png'></img>	stop	2050.0	2.0	13.0	stop	non-target	D	71,Green Button	89,Yellow Button	400.0	700.0	2350.0	2050.0	0.0	700.0	1.0	0.0	go_stim
284716.61722912575	2050.0	n/a	821	89	2750	1664.38277087	stim	stop-signal	127	356879	0.0-7.13-1.13	beast_fmri_test	306	5.909666666666666,5.921016666666667,5.93235,5.943683333333333,5.955016666666666,5.96635	t,t,t,t,t,t	<img class = center src='/static/experiments/beast_fmri_test/images/D.png'></img>	71,89	2750.0	test	<img class = center src='/static/experiments/beast_fmri_test/images/redD.png'></img>	stop	2050.0	2.0	13.0	stop	non-target	D	71,Green Button	89,Yellow Button	400.0	700.0	2350.0	2050.0	0.0	700.0	1.0	0.0	stop_stim
285416.61722912575	1664.3827708742551	n/a	821	89	2750	1664.38277087	stim	stop-signal	127	356879	0.0-7.13-1.13	beast_fmri_test	306	5.909666666666666,5.921016666666667,5.93235,5.943683333333333,5.955016666666666,5.96635	t,t,t,t,t,t	<img class = center src='/static/experiments/beast_fmri_test/images/D.png'></img>	71,89	2750.0	test	<img class = center src='/static/experiments/beast_fmri_test/images/redD.png'></img>	stop	2050.0	2.0	13.0	stop	non-target	D	71,Green Button	89,Yellow Button	400.0	700.0	2350.0	2050.0	0.0	700.0	1.0	0.0	ITI
289263.0	500	n/a	-1	-1	500	0.0	fixation	poldrack-single-stim	128	359061	0.0-7.14-0.14	beast_fmri_test	306	5.977683333333333	t	<div class = centerbox><div class = fixation>+</div></div>	none	500.0	test	n/a	n/a	n/a	n/a	n/a	n/a	n/a	n/a	n/a	n/a	n/a	n/a	n/a	n/a	n/a	n/a	n/a	n/a	fixation
287906.94688641967	650.0	n/a	-1	-1	2750	1360.05311358	stim	stop-signal	129	361815	0.0-7.14-1.14	beast_fmri_test	306	5.989016666666667,6.00035,6.011683333333333,6.023016666666667,6.03435,6.045683333333334	t,t,t,t,t,t	<img class = center src='/static/experiments/beast_fmri_test/images/T.png'></img>	71,89	2750.0	test	<img class = center src='/static/experiments/beast_fmri_test/images/redT.png'></img>	stop	2100.0	2.0	14.0	stop	non-target	T	71,Green Button	89,Yellow Button	400.0	650.0	2350.0	2100.0	0.0	650.0	0.0	1.0	go_stim
290006.94688641967	2100.0	n/a	-1	-1	2750	1360.05311358	stim	stop-signal	129	361815	0.0-7.14-1.14	beast_fmri_test	306	5.989016666666667,6.00035,6.011683333333333,6.023016666666667,6.03435,6.045683333333334	t,t,t,t,t,t	<img class = center src='/static/experiments/beast_fmri_test/images/T.png'></img>	71,89	2750.0	test	<img class = center src='/static/experiments/beast_fmri_test/images/redT.png'></img>	stop	2100.0	2.0	14.0	stop	non-target	T	71,Green Button	89,Yellow Button	400.0	650.0	2350.0	2100.0	0.0	650.0	0.0	1.0	stop_stim
290656.94688641967	1360.0531135803426	n/a	-1	-1	2750	1360.05311358	stim	stop-signal	129	361815	0.0-7.14-1.14	beast_fmri_test	306	5.989016666666667,6.00035,6.011683333333333,6.023016666666667,6.03435,6.045683333333334	t,t,t,t,t,t	<img class = center src='/static/experiments/beast_fmri_test/images/T.png'></img>	71,89	2750.0	test	<img class = center src='/static/experiments/beast_fmri_test/images/redT.png'></img>	stop	2100.0	2.0	14.0	stop	non-target	T	71,Green Button	89,Yellow Button	400.0	650.0	2350.0	2100.0	0.0	650.0	0.0	1.0	ITI
293894.0	500	n/a	-1	-1	500	0.0	fixation	poldrack-single-stim	130	363692	0.0-7.15-0.15	beast_fmri_test	306	6.057	t	<div class = centerbox><div class = fixation>+</div></div>	none	500.0	test	n/a	n/a	n/a	n/a	n/a	n/a	n/a	n/a	n/a	n/a	n/a	n/a	n/a	n/a	n/a	n/a	n/a	n/a	fixation
291232.31579514797	2750	n/a	1245	89	2750	2662.68420485	stim	stop-signal	131	366443	0.0-7.15-1.15	beast_fmri_test	306	6.0683,6.079583333333333,6.090933333333333,6.102266666666667,6.113583333333334,6.124916666666667,6.136266666666667,6.1476	t,t,t,t,t,t,t,t	<img class = center src='/static/experiments/beast_fmri_test/images/T.png'></img>	71,89	2750.0	test	<img class = center src='/static/experiments/beast_fmri_test/images/redT.png'></img>	go	2050.0	2.0	15.0	go	non-target	T	71,Green Button	89,Yellow Button	400.0	700.0	2350.0	2050.0	1.0	700.0	1.0	n/a	go_stim
293982.31579514797	2662.6842048520571	n/a	1245	89	2750	2662.68420485	stim	stop-signal	131	366443	0.0-7.15-1.15	beast_fmri_test	306	6.0683,6.079583333333333,6.090933333333333,6.102266666666667,6.113583333333334,6.124916666666667,6.136266666666667,6.1476	t,t,t,t,t,t,t,t	<img class = center src='/static/experiments/beast_fmri_test/images/T.png'></img>	71,89	2750.0	test	<img class = center src='/static/experiments/beast_fmri_test/images/redT.png'></img>	go	2050.0	2.0	15.0	go	non-target	T	71,Green Button	89,Yellow Button	400.0	700.0	2350.0	2050.0	1.0	700.0	1.0	n/a	ITI
299830.0	500	n/a	-1	-1	500	0.0	fixation	poldrack-single-stim	132	369628	0.0-7.16-0.16	beast_fmri_test	306	6.158933333333334	t	<div class = centerbox><div class = fixation>+</div></div>	none	500.0	test	n/a	n/a	n/a	n/a	n/a	n/a	n/a	n/a	n/a	n/a	n/a	n/a	n/a	n/a	n/a	n/a	n/a	n/a	fixation
299349.47221882979	2750	n/a	419	71	2750	483.52778117	stim	stop-signal	133	372381	0.0-7.16-1.16	beast_fmri_test	306	6.17025,6.1816,6.1931666666666665,6.204266666666666	t,t,t,t	<img class = center src='/static/experiments/beast_fmri_test/images/T.png'></img>	71,89	2750.0	test	<img class = center src='/static/experiments/beast_fmri_test/images/redT.png'></img>	go	2350.0	2.0	16.0	go	target	T	71,Green Button	89,Yellow Button	400.0	700.0	2350.0	2050.0	1.0	400.0	1.0	n/a	go_stim
302099.47221882979	483.52778117023661	n/a	419	71	2750	483.52778117	stim	stop-signal	133	372381	0.0-7.16-1.16	beast_fmri_test	306	6.17025,6.1816,6.1931666666666665,6.204266666666666	t,t,t,t	<img class = center src='/static/experiments/beast_fmri_test/images/T.png'></img>	71,89	2750.0	test	<img class = center src='/static/experiments/beast_fmri_test/images/redT.png'></img>	go	2350.0	2.0	16.0	go	target	T	71,Green Button	89,Yellow Button	400.0	700.0	2350.0	2050.0	1.0	400.0	1.0	n/a	ITI
303585.0	500	n/a	-1	-1	500	0.0	fixation	poldrack-single-stim	134	373383	0.0-7.17-0.17	beast_fmri_test	306	6.215616666666667	t	<div class = centerbox><div class = fixation>+</div></div>	none	500.0	test	n/a	n/a	n/a	n/a	n/a	n/a	n/a	n/a	n/a	n/a	n/a	n/a	n/a	n/a	n/a	n/a	n/a	n/a	fixation
303175.70798439358	700.0	n/a	595	89	2750	408.292015606	stim	stop-signal	135	376132	0.0-7.17-1.17	beast_fmri_test	306	6.226933333333333,6.238216666666666,6.24955,6.260866666666667,6.2722	t,t,t,t,t	<img class = center src='/static/experiments/beast_fmri_test/images/V.png'></img>	71,89	2750.0	test	<img class = center src='/static/experiments/beast_fmri_test/images/redV.png'></img>	stop	2050.0	2.0	17.0	stop	non-target	V	71,Green Button	89,Yellow Button	400.0	700.0	2350.0	2050.0	0.0	700.0	1.0	0.0	go_stim
305225.70798439358	2050.0	n/a	595	89	2750	408.292015606	stim	stop-signal	135	376132	0.0-7.17-1.17	beast_fmri_test	306	6.226933333333333,6.238216666666666,6.24955,6.260866666666667,6.2722	t,t,t,t,t	<img class = center src='/static/experiments/beast_fmri_test/images/V.png'></img>	71,89	2750.0	test	<img class = center src='/static/experiments/beast_fmri_test/images/redV.png'></img>	stop	2050.0	2.0	17.0	stop	non-target	V	71,Green Button	89,Yellow Button	400.0	700.0	2350.0	2050.0	0.0	700.0	1.0	0.0	stop_stim
305925.70798439358	408.29201560643668	n/a	595	89	2750	408.292015606	stim	stop-signal	135	376132	0.0-7.17-1.17	beast_fmri_test	306	6.226933333333333,6.238216666666666,6.24955,6.260866666666667,6.2722	t,t,t,t,t	<img class = center src='/static/experiments/beast_fmri_test/images/V.png'></img>	71,89	2750.0	test	<img class = center src='/static/experiments/beast_fmri_test/images/redV.png'></img>	stop	2050.0	2.0	17.0	stop	non-target	V	71,Green Button	89,Yellow Button	400.0	700.0	2350.0	2050.0	0.0	700.0	1.0	0.0	ITI
307262.0	500	n/a	-1	-1	500	0.0	fixation	poldrack-single-stim	136	377060	0.0-7.18-0.18	beast_fmri_test	306	6.283533333333334	t	<div class = centerbox><div class = fixation>+</div></div>	none	500.0	test	n/a	n/a	n/a	n/a	n/a	n/a	n/a	n/a	n/a	n/a	n/a	n/a	n/a	n/a	n/a	n/a	n/a	n/a	fixation
