onset	duration	text	rt	key_press	block_duration	timing_post_trial	trial_id	trial_type	trial_index	time_elapsed	internal_node_id	exp_id	subject_id	trigger_times	triggers	stimulus	possible_responses	stim_duration	exp_stage	SS_stimulus	SS_trial_type	SS_duration	load	trial_num	stop_trial_type	adaptive_trial_type	stim	yes_response_key	no_response_key	SSD_target	SSD_non_target	SSTarget	SSNonTarget	go_acc	SS_delay	adaptive_acc	stop_acc	new_trial_type
test	10880	n/a	-1	-1	10880	0.0	practice-no-stop-feedback	poldrack-single-stim	394	1139626	0.0-18.0	beast_fmri_test	349	1128750,/,1129426,/,1130107,/,1130787,/,1131466,/,1132146,/,1132826,/,1133505,/,1134184,/,1134865,/,1135543,/,1136225,/,1136903,/,1137583,/,1138262,/,1138943,/,1139623,/	t,t,t,t,t,t,t,t,t,t,t,t,t,t,t,t,t	"<div class = ""centerbox""><p class = ""block-text"">Your delay is 2 trials.</p><p class = block-text>Please wait for the scanner to start the block</p></div>"	77	10880.0	n/a	n/a	n/a	n/a	n/a	n/a	n/a	n/a	n/a	n/a	n/a	n/a	n/a	n/a	n/a	n/a	n/a	n/a	n/a	start_functional_block
11378	500	n/a	-1	-1	500	0.0	fixation	poldrack-single-stim	395	1140128	0.0-19.0-0.0	beast_fmri_test	349	n/a	n/a	<div class = centerbox2><div class = fixation>+</div></div>	none	500.0	test	n/a	n/a	n/a	n/a	n/a	n/a	n/a	n/a	n/a	n/a	n/a	n/a	n/a	n/a	n/a	n/a	n/a	n/a	fixation
10954.079190632794	2750	n/a	1089	71	2750	424.920809367	stim	stop-signal	396	1142879	0.0-19.0-1.0	beast_fmri_test	349	1140303,/,1140982,/,1141661,/,1142341,/,1143021,/	t,t,t,t,t	<img class = center src='/static/experiments/beast_fmri_test/images/V.png'></img>	89,71	2750.0	test	<img class = center src='/static/experiments/beast_fmri_test/images/redV.png'></img>	go	-1.0	2.0	0.0	go	temp-non-target	V	89,Middle Finger	71,Index Finger	600.0	900.0	2150.0	1850.0	0.0	n/a	n/a	n/a	go_stim
13704.079190632794	424.92080936712927	n/a	1089	71	2750	424.920809367	stim	stop-signal	396	1142879	0.0-19.0-1.0	beast_fmri_test	349	1140303,/,1140982,/,1141661,/,1142341,/,1143021,/	t,t,t,t,t	<img class = center src='/static/experiments/beast_fmri_test/images/V.png'></img>	89,71	2750.0	test	<img class = center src='/static/experiments/beast_fmri_test/images/redV.png'></img>	go	-1.0	2.0	0.0	go	temp-non-target	V	89,Middle Finger	71,Index Finger	600.0	900.0	2150.0	1850.0	0.0	n/a	n/a	n/a	ITI
15094	500	n/a	-1	-1	500	0.0	fixation	poldrack-single-stim	397	1143844	0.0-19.1-0.1	beast_fmri_test	349	1143702,/	t	<div class = centerbox2><div class = fixation>+</div></div>	none	500.0	test	n/a	n/a	n/a	n/a	n/a	n/a	n/a	n/a	n/a	n/a	n/a	n/a	n/a	n/a	n/a	n/a	n/a	n/a	fixation
13593.347778597148	2750	n/a	801	71	2750	1502.6522214	stim	stop-signal	398	1146596	0.0-19.1-1.1	beast_fmri_test	349	1144381,/,1145060,/,1145739,/,1146419,/,1147098,/,1147779,/	t,t,t,t,t,t	<img class = center src='/static/experiments/beast_fmri_test/images/P.png'></img>	89,71	2750.0	test	<img class = center src='/static/experiments/beast_fmri_test/images/redP.png'></img>	go	-1.0	2.0	1.0	go	temp-non-target	P	89,Middle Finger	71,Index Finger	600.0	900.0	2150.0	1850.0	0.0	n/a	n/a	n/a	go_stim
16343.347778597148	1502.6522214028882	n/a	801	71	2750	1502.6522214	stim	stop-signal	398	1146596	0.0-19.1-1.1	beast_fmri_test	349	1144381,/,1145060,/,1145739,/,1146419,/,1147098,/,1147779,/	t,t,t,t,t,t	<img class = center src='/static/experiments/beast_fmri_test/images/P.png'></img>	89,71	2750.0	test	<img class = center src='/static/experiments/beast_fmri_test/images/redP.png'></img>	go	-1.0	2.0	1.0	go	temp-non-target	P	89,Middle Finger	71,Index Finger	600.0	900.0	2150.0	1850.0	0.0	n/a	n/a	n/a	ITI
19890	500	n/a	-1	-1	500	0.0	fixation	poldrack-single-stim	399	1148640	0.0-19.2-0.2	beast_fmri_test	349	1148458,/	t	<div class = centerbox2><div class = fixation>+</div></div>	none	500.0	test	n/a	n/a	n/a	n/a	n/a	n/a	n/a	n/a	n/a	n/a	n/a	n/a	n/a	n/a	n/a	n/a	n/a	n/a	fixation
18909.194019403541	600.0	n/a	683	89	2750	982.805980596	stim	stop-signal	400	1151392	0.0-19.2-1.2	beast_fmri_test	349	1149138,/,1149818,/,1150498,/,1151178,/,1151856,/	t,t,t,t,t	<img class = center src='/static/experiments/beast_fmri_test/images/V.png'></img>	89,71	2750.0	test	<img class = center src='/static/experiments/beast_fmri_test/images/redV.png'></img>	stop	2150.0	2.0	2.0	stop	target	V	89,Middle Finger	71,Index Finger	600.0	900.0	2150.0	1850.0	0.0	600.0	n/a	0.0	go_stim
21059.194019403541	2150.0	n/a	683	89	2750	982.805980596	stim	stop-signal	400	1151392	0.0-19.2-1.2	beast_fmri_test	349	1149138,/,1149818,/,1150498,/,1151178,/,1151856,/	t,t,t,t,t	<img class = center src='/static/experiments/beast_fmri_test/images/V.png'></img>	89,71	2750.0	test	<img class = center src='/static/experiments/beast_fmri_test/images/redV.png'></img>	stop	2150.0	2.0	2.0	stop	target	V	89,Middle Finger	71,Index Finger	600.0	900.0	2150.0	1850.0	0.0	600.0	n/a	0.0	stop_stim
21659.194019403541	982.80598059645763	n/a	683	89	2750	982.805980596	stim	stop-signal	400	1151392	0.0-19.2-1.2	beast_fmri_test	349	1149138,/,1149818,/,1150498,/,1151178,/,1151856,/	t,t,t,t,t	<img class = center src='/static/experiments/beast_fmri_test/images/V.png'></img>	89,71	2750.0	test	<img class = center src='/static/experiments/beast_fmri_test/images/redV.png'></img>	stop	2150.0	2.0	2.0	stop	target	V	89,Middle Finger	71,Index Finger	600.0	900.0	2150.0	1850.0	0.0	600.0	n/a	0.0	ITI
24165	500	n/a	-1	-1	500	0.0	fixation	poldrack-single-stim	401	1152915	0.0-19.3-0.3	beast_fmri_test	349	1152537,/	t	<div class = centerbox2><div class = fixation>+</div></div>	none	500.0	test	n/a	n/a	n/a	n/a	n/a	n/a	n/a	n/a	n/a	n/a	n/a	n/a	n/a	n/a	n/a	n/a	n/a	n/a	fixation
23979.333152716979	2750	n/a	1305	89	2750	185.666847283	stim	stop-signal	402	1155665	0.0-19.3-1.3	beast_fmri_test	349	1153217,/,1153897,/,1154576,/,1155255,/	t,t,t,t	<img class = center src='/static/experiments/beast_fmri_test/images/P.png'></img>	89,71	2750.0	test	<img class = center src='/static/experiments/beast_fmri_test/images/redP.png'></img>	go	2200.0	2.0	3.0	go	target	P	89,Middle Finger	71,Index Finger	550.0	900.0	2200.0	1850.0	1.0	550.0	1.0	n/a	go_stim
26729.333152716979	185.66684728291006	n/a	1305	89	2750	185.666847283	stim	stop-signal	402	1155665	0.0-19.3-1.3	beast_fmri_test	349	1153217,/,1153897,/,1154576,/,1155255,/	t,t,t,t	<img class = center src='/static/experiments/beast_fmri_test/images/P.png'></img>	89,71	2750.0	test	<img class = center src='/static/experiments/beast_fmri_test/images/redP.png'></img>	go	2200.0	2.0	3.0	go	target	P	89,Middle Finger	71,Index Finger	550.0	900.0	2200.0	1850.0	1.0	550.0	1.0	n/a	ITI
27649	500	n/a	-1	-1	500	0.0	fixation	poldrack-single-stim	403	1156399	0.0-19.4-0.4	beast_fmri_test	349	1155934,/	t	<div class = centerbox2><div class = fixation>+</div></div>	none	500.0	test	n/a	n/a	n/a	n/a	n/a	n/a	n/a	n/a	n/a	n/a	n/a	n/a	n/a	n/a	n/a	n/a	n/a	n/a	fixation
27243.076588501688	2750	n/a	1711	89	2750	407.923411498	stim	stop-signal	404	1159151	0.0-19.4-1.4	beast_fmri_test	349	1156614,/,1157295,/,1157973,/,1158652,/,1159333,/	t,t,t,t,t	<img class = center src='/static/experiments/beast_fmri_test/images/V.png'></img>	89,71	2750.0	test	<img class = center src='/static/experiments/beast_fmri_test/images/redV.png'></img>	go	2200.0	2.0	4.0	go	target	V	89,Middle Finger	71,Index Finger	550.0	900.0	2200.0	1850.0	1.0	550.0	1.0	n/a	go_stim
29993.076588501688	407.92341149836892	n/a	1711	89	2750	407.923411498	stim	stop-signal	404	1159151	0.0-19.4-1.4	beast_fmri_test	349	1156614,/,1157295,/,1157973,/,1158652,/,1159333,/	t,t,t,t,t	<img class = center src='/static/experiments/beast_fmri_test/images/V.png'></img>	89,71	2750.0	test	<img class = center src='/static/experiments/beast_fmri_test/images/redV.png'></img>	go	2200.0	2.0	4.0	go	target	V	89,Middle Finger	71,Index Finger	550.0	900.0	2200.0	1850.0	1.0	550.0	1.0	n/a	ITI
31352	500	n/a	-1	-1	500	0.0	fixation	poldrack-single-stim	405	1160102	0.0-19.5-0.5	beast_fmri_test	349	1160013,/	t	<div class = centerbox2><div class = fixation>+</div></div>	none	500.0	test	n/a	n/a	n/a	n/a	n/a	n/a	n/a	n/a	n/a	n/a	n/a	n/a	n/a	n/a	n/a	n/a	n/a	n/a	fixation
30440.758580222959	2750	n/a	985	71	2750	913.241419777	stim	stop-signal	406	1162854	0.0-19.5-1.5	beast_fmri_test	349	1160692,/,1161372,/,1162051,/,1162731,/,1163412,/	t,t,t,t,t	<img class = center src='/static/experiments/beast_fmri_test/images/D.png'></img>	89,71	2750.0	test	<img class = center src='/static/experiments/beast_fmri_test/images/redD.png'></img>	go	1850.0	2.0	5.0	go	non-target	D	89,Middle Finger	71,Index Finger	550.0	900.0	2200.0	1850.0	1.0	900.0	1.0	n/a	go_stim
33190.758580222959	913.24141977713964	n/a	985	71	2750	913.241419777	stim	stop-signal	406	1162854	0.0-19.5-1.5	beast_fmri_test	349	1160692,/,1161372,/,1162051,/,1162731,/,1163412,/	t,t,t,t,t	<img class = center src='/static/experiments/beast_fmri_test/images/D.png'></img>	89,71	2750.0	test	<img class = center src='/static/experiments/beast_fmri_test/images/redD.png'></img>	go	1850.0	2.0	5.0	go	non-target	D	89,Middle Finger	71,Index Finger	550.0	900.0	2200.0	1850.0	1.0	900.0	1.0	n/a	ITI
35557	500	n/a	-1	-1	500	0.0	fixation	poldrack-single-stim	407	1164307	0.0-19.6-0.6	beast_fmri_test	349	1164092,/	t	<div class = centerbox2><div class = fixation>+</div></div>	none	500.0	test	n/a	n/a	n/a	n/a	n/a	n/a	n/a	n/a	n/a	n/a	n/a	n/a	n/a	n/a	n/a	n/a	n/a	n/a	fixation
34679.690930421464	2750	n/a	938	71	2750	879.309069578	stim	stop-signal	408	1167059	0.0-19.6-1.6	beast_fmri_test	349	1164771,/,1165449,/,1166129,/,1166809,/,1167490,/	t,t,t,t,t	<img class = center src='/static/experiments/beast_fmri_test/images/T.png'></img>	89,71	2750.0	test	<img class = center src='/static/experiments/beast_fmri_test/images/redT.png'></img>	go	1850.0	2.0	6.0	go	non-target	T	89,Middle Finger	71,Index Finger	550.0	900.0	2200.0	1850.0	1.0	900.0	1.0	n/a	go_stim
37429.690930421464	879.3090695784847	n/a	938	71	2750	879.309069578	stim	stop-signal	408	1167059	0.0-19.6-1.6	beast_fmri_test	349	1164771,/,1165449,/,1166129,/,1166809,/,1167490,/	t,t,t,t,t	<img class = center src='/static/experiments/beast_fmri_test/images/T.png'></img>	89,71	2750.0	test	<img class = center src='/static/experiments/beast_fmri_test/images/redT.png'></img>	go	1850.0	2.0	6.0	go	non-target	T	89,Middle Finger	71,Index Finger	550.0	900.0	2200.0	1850.0	1.0	900.0	1.0	n/a	ITI
39729	500	n/a	-1	-1	500	0.0	fixation	poldrack-single-stim	409	1168479	0.0-19.7-0.7	beast_fmri_test	349	1168169,/	t	<div class = centerbox2><div class = fixation>+</div></div>	none	500.0	test	n/a	n/a	n/a	n/a	n/a	n/a	n/a	n/a	n/a	n/a	n/a	n/a	n/a	n/a	n/a	n/a	n/a	n/a	fixation
37235.043335770257	2750	n/a	1288	71	2750	2495.95666423	stim	stop-signal	410	1171231	0.0-19.7-1.7	beast_fmri_test	349	1168849,/,1169529,/,1170208,/,1170889,/,1171567,/,1172247,/,1172927,/,1173607,/	t,t,t,t,t,t,t,t	<img class = center src='/static/experiments/beast_fmri_test/images/V.png'></img>	89,71	2750.0	test	<img class = center src='/static/experiments/beast_fmri_test/images/redV.png'></img>	go	1850.0	2.0	7.0	go	non-target	V	89,Middle Finger	71,Index Finger	550.0	900.0	2200.0	1850.0	1.0	900.0	1.0	n/a	go_stim
39985.043335770257	2495.9566642297423	n/a	1288	71	2750	2495.95666423	stim	stop-signal	410	1171231	0.0-19.7-1.7	beast_fmri_test	349	1168849,/,1169529,/,1170208,/,1170889,/,1171567,/,1172247,/,1172927,/,1173607,/	t,t,t,t,t,t,t,t	<img class = center src='/static/experiments/beast_fmri_test/images/V.png'></img>	89,71	2750.0	test	<img class = center src='/static/experiments/beast_fmri_test/images/redV.png'></img>	go	1850.0	2.0	7.0	go	non-target	V	89,Middle Finger	71,Index Finger	550.0	900.0	2200.0	1850.0	1.0	900.0	1.0	n/a	ITI
45519	500	n/a	-1	-1	500	0.0	fixation	poldrack-single-stim	411	1174269	0.0-19.8-0.8	beast_fmri_test	349	n/a	n/a	<div class = centerbox2><div class = fixation>+</div></div>	none	500.0	test	n/a	n/a	n/a	n/a	n/a	n/a	n/a	n/a	n/a	n/a	n/a	n/a	n/a	n/a	n/a	n/a	n/a	n/a	fixation
43218.319280274678	550.0	n/a	-1	-1	2750	2300.68071973	stim	stop-signal	412	1177019	0.0-19.8-1.8	beast_fmri_test	349	1174286,/,1174967,/,1175645,/,1176325,/,1177005,/,1177684,/,1178364,/,1179045,/	t,t,t,t,t,t,t,t	<img class = center src='/static/experiments/beast_fmri_test/images/T.png'></img>	89,71	2750.0	test	<img class = center src='/static/experiments/beast_fmri_test/images/redT.png'></img>	stop	2200.0	2.0	8.0	stop	target	T	89,Middle Finger	71,Index Finger	550.0	900.0	2200.0	1850.0	0.0	550.0	n/a	1.0	go_stim
45418.319280274678	2200.0	n/a	-1	-1	2750	2300.68071973	stim	stop-signal	412	1177019	0.0-19.8-1.8	beast_fmri_test	349	1174286,/,1174967,/,1175645,/,1176325,/,1177005,/,1177684,/,1178364,/,1179045,/	t,t,t,t,t,t,t,t	<img class = center src='/static/experiments/beast_fmri_test/images/T.png'></img>	89,71	2750.0	test	<img class = center src='/static/experiments/beast_fmri_test/images/redT.png'></img>	stop	2200.0	2.0	8.0	stop	target	T	89,Middle Finger	71,Index Finger	550.0	900.0	2200.0	1850.0	0.0	550.0	n/a	1.0	stop_stim
45968.319280274678	2300.6807197252233	n/a	-1	-1	2750	2300.68071973	stim	stop-signal	412	1177019	0.0-19.8-1.8	beast_fmri_test	349	1174286,/,1174967,/,1175645,/,1176325,/,1177005,/,1177684,/,1178364,/,1179045,/	t,t,t,t,t,t,t,t	<img class = center src='/static/experiments/beast_fmri_test/images/T.png'></img>	89,71	2750.0	test	<img class = center src='/static/experiments/beast_fmri_test/images/redT.png'></img>	stop	2200.0	2.0	8.0	stop	target	T	89,Middle Finger	71,Index Finger	550.0	900.0	2200.0	1850.0	0.0	550.0	n/a	1.0	ITI
51115	500	n/a	-1	-1	500	0.0	fixation	poldrack-single-stim	413	1179865	0.0-19.9-0.9	beast_fmri_test	349	1179725,/	t	<div class = centerbox2><div class = fixation>+</div></div>	none	500.0	test	n/a	n/a	n/a	n/a	n/a	n/a	n/a	n/a	n/a	n/a	n/a	n/a	n/a	n/a	n/a	n/a	n/a	n/a	fixation
48550.713151589967	900.0	n/a	895	71	2750	2566.28684841	stim	stop-signal	414	1182617	0.0-19.9-1.9	beast_fmri_test	349	1180403,/,1181084,/,1181762,/,1182443,/,1183122,/,1183802,/,1184481,/,1185162,/	t,t,t,t,t,t,t,t	<img class = center src='/static/experiments/beast_fmri_test/images/P.png'></img>	89,71	2750.0	test	<img class = center src='/static/experiments/beast_fmri_test/images/redP.png'></img>	stop	1850.0	2.0	9.0	stop	non-target	P	89,Middle Finger	71,Index Finger	600.0	900.0	2200.0	1850.0	0.0	900.0	n/a	0.0	go_stim
50400.713151589967	1850.0	n/a	895	71	2750	2566.28684841	stim	stop-signal	414	1182617	0.0-19.9-1.9	beast_fmri_test	349	1180403,/,1181084,/,1181762,/,1182443,/,1183122,/,1183802,/,1184481,/,1185162,/	t,t,t,t,t,t,t,t	<img class = center src='/static/experiments/beast_fmri_test/images/P.png'></img>	89,71	2750.0	test	<img class = center src='/static/experiments/beast_fmri_test/images/redP.png'></img>	stop	1850.0	2.0	9.0	stop	non-target	P	89,Middle Finger	71,Index Finger	600.0	900.0	2200.0	1850.0	0.0	900.0	n/a	0.0	stop_stim
51300.713151589967	2566.286848410105	n/a	895	71	2750	2566.28684841	stim	stop-signal	414	1182617	0.0-19.9-1.9	beast_fmri_test	349	1180403,/,1181084,/,1181762,/,1182443,/,1183122,/,1183802,/,1184481,/,1185162,/	t,t,t,t,t,t,t,t	<img class = center src='/static/experiments/beast_fmri_test/images/P.png'></img>	89,71	2750.0	test	<img class = center src='/static/experiments/beast_fmri_test/images/redP.png'></img>	stop	1850.0	2.0	9.0	stop	non-target	P	89,Middle Finger	71,Index Finger	600.0	900.0	2200.0	1850.0	0.0	900.0	n/a	0.0	ITI
56971	500	n/a	-1	-1	500	0.0	fixation	poldrack-single-stim	415	1185721	0.0-19.10-0.10	beast_fmri_test	349	n/a	n/a	<div class = centerbox2><div class = fixation>+</div></div>	none	500.0	test	n/a	n/a	n/a	n/a	n/a	n/a	n/a	n/a	n/a	n/a	n/a	n/a	n/a	n/a	n/a	n/a	n/a	n/a	fixation
54039.497310132254	2750	n/a	1379	89	2750	2933.50268987	stim	stop-signal	416	1188473	0.0-19.10-1.10	beast_fmri_test	349	1185840,/,1186521,/,1187201,/,1187880,/,1188560,/,1189239,/,1189919,/,1190598,/,1191279,/	t,t,t,t,t,t,t,t,t	<img class = center src='/static/experiments/beast_fmri_test/images/T.png'></img>	89,71	2750.0	test	<img class = center src='/static/experiments/beast_fmri_test/images/redT.png'></img>	go	2150.0	2.0	10.0	go	target	T	89,Middle Finger	71,Index Finger	600.0	850.0	2150.0	1850.0	1.0	600.0	1.0	n/a	go_stim
56789.497310132254	2933.5026898676756	n/a	1379	89	2750	2933.50268987	stim	stop-signal	416	1188473	0.0-19.10-1.10	beast_fmri_test	349	1185840,/,1186521,/,1187201,/,1187880,/,1188560,/,1189239,/,1189919,/,1190598,/,1191279,/	t,t,t,t,t,t,t,t,t	<img class = center src='/static/experiments/beast_fmri_test/images/T.png'></img>	89,71	2750.0	test	<img class = center src='/static/experiments/beast_fmri_test/images/redT.png'></img>	go	2150.0	2.0	10.0	go	target	T	89,Middle Finger	71,Index Finger	600.0	850.0	2150.0	1850.0	1.0	600.0	1.0	n/a	ITI
63196	500	n/a	-1	-1	500	0.0	fixation	poldrack-single-stim	417	1191946	0.0-19.11-0.11	beast_fmri_test	349	n/a	n/a	<div class = centerbox2><div class = fixation>+</div></div>	none	500.0	test	n/a	n/a	n/a	n/a	n/a	n/a	n/a	n/a	n/a	n/a	n/a	n/a	n/a	n/a	n/a	n/a	n/a	n/a	fixation
62844.332922062371	850.0	n/a	-1	-1	2750	351.667077938	stim	stop-signal	418	1194696	0.0-19.11-1.11	beast_fmri_test	349	1191960,/,1192638,/,1193317,/,1193997,/,1194676,/	t,t,t,t,t	<img class = center src='/static/experiments/beast_fmri_test/images/V.png'></img>	89,71	2750.0	test	<img class = center src='/static/experiments/beast_fmri_test/images/redV.png'></img>	stop	1900.0	2.0	11.0	stop	non-target	V	89,Middle Finger	71,Index Finger	600.0	850.0	2150.0	1900.0	0.0	850.0	n/a	1.0	go_stim
64744.332922062371	1900.0	n/a	-1	-1	2750	351.667077938	stim	stop-signal	418	1194696	0.0-19.11-1.11	beast_fmri_test	349	1191960,/,1192638,/,1193317,/,1193997,/,1194676,/	t,t,t,t,t	<img class = center src='/static/experiments/beast_fmri_test/images/V.png'></img>	89,71	2750.0	test	<img class = center src='/static/experiments/beast_fmri_test/images/redV.png'></img>	stop	1900.0	2.0	11.0	stop	non-target	V	89,Middle Finger	71,Index Finger	600.0	850.0	2150.0	1900.0	0.0	850.0	n/a	1.0	stop_stim
65594.332922062371	351.6670779375425	n/a	-1	-1	2750	351.667077938	stim	stop-signal	418	1194696	0.0-19.11-1.11	beast_fmri_test	349	1191960,/,1192638,/,1193317,/,1193997,/,1194676,/	t,t,t,t,t	<img class = center src='/static/experiments/beast_fmri_test/images/V.png'></img>	89,71	2750.0	test	<img class = center src='/static/experiments/beast_fmri_test/images/redV.png'></img>	stop	1900.0	2.0	11.0	stop	non-target	V	89,Middle Finger	71,Index Finger	600.0	850.0	2150.0	1900.0	0.0	850.0	n/a	1.0	ITI
66840	500	n/a	-1	-1	500	0.0	fixation	poldrack-single-stim	419	1195590	0.0-19.12-0.12	beast_fmri_test	349	1195357,/	t	<div class = centerbox2><div class = fixation>+</div></div>	none	500.0	test	n/a	n/a	n/a	n/a	n/a	n/a	n/a	n/a	n/a	n/a	n/a	n/a	n/a	n/a	n/a	n/a	n/a	n/a	fixation
66826.772282497957	2750	n/a	-1	-1	2750	14.227717502	stim	stop-signal	420	1198341	0.0-19.12-1.12	beast_fmri_test	349	1196036,/,1196715,/,1197396,/,1198075,/	t,t,t,t	<img class = center src='/static/experiments/beast_fmri_test/images/V.png'></img>	89,71	2750.0	test	<img class = center src='/static/experiments/beast_fmri_test/images/redV.png'></img>	go	1850.0	2.0	12.0	go	non-target	V	89,Middle Finger	71,Index Finger	600.0	900.0	2150.0	1850.0	0.0	900.0	0.0	n/a	go_stim
69576.772282497957	14.227717501986136	n/a	-1	-1	2750	14.227717502	stim	stop-signal	420	1198341	0.0-19.12-1.12	beast_fmri_test	349	1196036,/,1196715,/,1197396,/,1198075,/	t,t,t,t	<img class = center src='/static/experiments/beast_fmri_test/images/V.png'></img>	89,71	2750.0	test	<img class = center src='/static/experiments/beast_fmri_test/images/redV.png'></img>	go	1850.0	2.0	12.0	go	non-target	V	89,Middle Finger	71,Index Finger	600.0	900.0	2150.0	1850.0	0.0	900.0	0.0	n/a	ITI
70148	500	n/a	-1	-1	500	0.0	fixation	poldrack-single-stim	421	1198898	0.0-19.13-0.13	beast_fmri_test	349	1198755,/	t	<div class = centerbox2><div class = fixation>+</div></div>	none	500.0	test	n/a	n/a	n/a	n/a	n/a	n/a	n/a	n/a	n/a	n/a	n/a	n/a	n/a	n/a	n/a	n/a	n/a	n/a	fixation
68109.260777642718	2750	n/a	2428	71	2750	2039.73922236	stim	stop-signal	422	1201649	0.0-19.13-1.13	beast_fmri_test	349	1199434,/,1200115,/,1200794,/,1201474,/,1202153,/,1202834,/,1203513,/	t,t,t,t,t,t,t	<img class = center src='/static/experiments/beast_fmri_test/images/P.png'></img>	89,71	2750.0	test	<img class = center src='/static/experiments/beast_fmri_test/images/redP.png'></img>	go	1850.0	2.0	13.0	go	non-target	P	89,Middle Finger	71,Index Finger	600.0	900.0	2150.0	1850.0	1.0	900.0	1.0	n/a	go_stim
70859.260777642718	2039.7392223573981	n/a	2428	71	2750	2039.73922236	stim	stop-signal	422	1201649	0.0-19.13-1.13	beast_fmri_test	349	1199434,/,1200115,/,1200794,/,1201474,/,1202153,/,1202834,/,1203513,/	t,t,t,t,t,t,t	<img class = center src='/static/experiments/beast_fmri_test/images/P.png'></img>	89,71	2750.0	test	<img class = center src='/static/experiments/beast_fmri_test/images/redP.png'></img>	go	1850.0	2.0	13.0	go	non-target	P	89,Middle Finger	71,Index Finger	600.0	900.0	2150.0	1850.0	1.0	900.0	1.0	n/a	ITI
75483	500	n/a	-1	-1	500	0.0	fixation	poldrack-single-stim	423	1204233	0.0-19.14-0.14	beast_fmri_test	349	1204192,/	t	<div class = centerbox2><div class = fixation>+</div></div>	none	500.0	test	n/a	n/a	n/a	n/a	n/a	n/a	n/a	n/a	n/a	n/a	n/a	n/a	n/a	n/a	n/a	n/a	n/a	n/a	fixation
75331.543431695318	2750	n/a	1597	71	2750	153.456568305	stim	stop-signal	424	1206985	0.0-19.14-1.14	beast_fmri_test	349	1204873,/,1205553,/,1206233,/,1206912,/	t,t,t,t	<img class = center src='/static/experiments/beast_fmri_test/images/B.png'></img>	89,71	2750.0	test	<img class = center src='/static/experiments/beast_fmri_test/images/redB.png'></img>	go	1850.0	2.0	14.0	go	non-target	B	89,Middle Finger	71,Index Finger	600.0	900.0	2150.0	1850.0	1.0	900.0	1.0	n/a	go_stim
78081.543431695318	153.45656830465381	n/a	1597	71	2750	153.456568305	stim	stop-signal	424	1206985	0.0-19.14-1.14	beast_fmri_test	349	1204873,/,1205553,/,1206233,/,1206912,/	t,t,t,t	<img class = center src='/static/experiments/beast_fmri_test/images/B.png'></img>	89,71	2750.0	test	<img class = center src='/static/experiments/beast_fmri_test/images/redB.png'></img>	go	1850.0	2.0	14.0	go	non-target	B	89,Middle Finger	71,Index Finger	600.0	900.0	2150.0	1850.0	1.0	900.0	1.0	n/a	ITI
78933	500	n/a	-1	-1	500	0.0	fixation	poldrack-single-stim	425	1207683	0.0-19.15-0.15	beast_fmri_test	349	1207592,/	t	<div class = centerbox2><div class = fixation>+</div></div>	none	500.0	test	n/a	n/a	n/a	n/a	n/a	n/a	n/a	n/a	n/a	n/a	n/a	n/a	n/a	n/a	n/a	n/a	n/a	n/a	fixation
78710.345060515217	2750	n/a	1644	71	2750	224.654939485	stim	stop-signal	426	1210435	0.0-19.15-1.15	beast_fmri_test	349	1208270,/,1208951,/,1209629,/,1210311,/	t,t,t,t	<img class = center src='/static/experiments/beast_fmri_test/images/T.png'></img>	89,71	2750.0	test	<img class = center src='/static/experiments/beast_fmri_test/images/redT.png'></img>	go	1850.0	2.0	15.0	go	non-target	T	89,Middle Finger	71,Index Finger	600.0	900.0	2150.0	1850.0	1.0	900.0	1.0	n/a	go_stim
81460.345060515217	224.65493948474636	n/a	1644	71	2750	224.654939485	stim	stop-signal	426	1210435	0.0-19.15-1.15	beast_fmri_test	349	1208270,/,1208951,/,1209629,/,1210311,/	t,t,t,t	<img class = center src='/static/experiments/beast_fmri_test/images/T.png'></img>	89,71	2750.0	test	<img class = center src='/static/experiments/beast_fmri_test/images/redT.png'></img>	go	1850.0	2.0	15.0	go	non-target	T	89,Middle Finger	71,Index Finger	600.0	900.0	2150.0	1850.0	1.0	900.0	1.0	n/a	ITI
82453	500	n/a	-1	-1	500	0.0	fixation	poldrack-single-stim	427	1211203	0.0-19.16-0.16	beast_fmri_test	349	1210989,/	t	<div class = centerbox2><div class = fixation>+</div></div>	none	500.0	test	n/a	n/a	n/a	n/a	n/a	n/a	n/a	n/a	n/a	n/a	n/a	n/a	n/a	n/a	n/a	n/a	n/a	n/a	fixation
81873.406523207203	2750	n/a	1212	71	2750	582.593476793	stim	stop-signal	428	1213956	0.0-19.16-1.16	beast_fmri_test	349	1211670,/,1212348,/,1213029,/,1213708,/,1214388,/	t,t,t,t,t	<img class = center src='/static/experiments/beast_fmri_test/images/T.png'></img>	89,71	2750.0	test	<img class = center src='/static/experiments/beast_fmri_test/images/redT.png'></img>	go	1850.0	2.0	16.0	go	non-target	T	89,Middle Finger	71,Index Finger	600.0	900.0	2150.0	1850.0	1.0	900.0	1.0	n/a	go_stim
84623.406523207203	582.59347679274731	n/a	1212	71	2750	582.593476793	stim	stop-signal	428	1213956	0.0-19.16-1.16	beast_fmri_test	349	1211670,/,1212348,/,1213029,/,1213708,/,1214388,/	t,t,t,t,t	<img class = center src='/static/experiments/beast_fmri_test/images/T.png'></img>	89,71	2750.0	test	<img class = center src='/static/experiments/beast_fmri_test/images/redT.png'></img>	go	1850.0	2.0	16.0	go	non-target	T	89,Middle Finger	71,Index Finger	600.0	900.0	2150.0	1850.0	1.0	900.0	1.0	n/a	ITI
86331	500	n/a	-1	-1	500	0.0	fixation	poldrack-single-stim	429	1215081	0.0-19.17-0.17	beast_fmri_test	349	1215067,/	t	<div class = centerbox2><div class = fixation>+</div></div>	none	500.0	test	n/a	n/a	n/a	n/a	n/a	n/a	n/a	n/a	n/a	n/a	n/a	n/a	n/a	n/a	n/a	n/a	n/a	n/a	fixation
85802.981064183405	2750	n/a	2290	71	2750	530.018935817	stim	stop-signal	430	1217833	0.0-19.17-1.17	beast_fmri_test	349	1215747,/,1216427,/,1217106,/,1217786,/	t,t,t,t	<img class = center src='/static/experiments/beast_fmri_test/images/D.png'></img>	89,71	2750.0	test	<img class = center src='/static/experiments/beast_fmri_test/images/redD.png'></img>	go	1850.0	2.0	17.0	go	non-target	D	89,Middle Finger	71,Index Finger	600.0	900.0	2150.0	1850.0	1.0	900.0	1.0	n/a	go_stim
88552.981064183405	530.0189358166698	n/a	2290	71	2750	530.018935817	stim	stop-signal	430	1217833	0.0-19.17-1.17	beast_fmri_test	349	1215747,/,1216427,/,1217106,/,1217786,/	t,t,t,t	<img class = center src='/static/experiments/beast_fmri_test/images/D.png'></img>	89,71	2750.0	test	<img class = center src='/static/experiments/beast_fmri_test/images/redD.png'></img>	go	1850.0	2.0	17.0	go	non-target	D	89,Middle Finger	71,Index Finger	600.0	900.0	2150.0	1850.0	1.0	900.0	1.0	n/a	ITI
90157	500	n/a	-1	-1	500	0.0	fixation	poldrack-single-stim	431	1218907	0.0-19.18-0.18	beast_fmri_test	349	1218465,/	t	<div class = centerbox2><div class = fixation>+</div></div>	none	500.0	test	n/a	n/a	n/a	n/a	n/a	n/a	n/a	n/a	n/a	n/a	n/a	n/a	n/a	n/a	n/a	n/a	n/a	n/a	fixation
89503.419986146735	2750	n/a	1196	89	2750	655.580013853	stim	stop-signal	432	1221659	0.0-19.18-1.18	beast_fmri_test	349	1219147,/,1219824,/,1220505,/,1221184,/,1221864,/	t,t,t,t,t	<img class = center src='/static/experiments/beast_fmri_test/images/T.png'></img>	89,71	2750.0	test	<img class = center src='/static/experiments/beast_fmri_test/images/redT.png'></img>	go	2150.0	2.0	18.0	go	target	T	89,Middle Finger	71,Index Finger	600.0	900.0	2150.0	1850.0	1.0	600.0	1.0	n/a	go_stim
92253.419986146735	655.58001385321154	n/a	1196	89	2750	655.580013853	stim	stop-signal	432	1221659	0.0-19.18-1.18	beast_fmri_test	349	1219147,/,1219824,/,1220505,/,1221184,/,1221864,/	t,t,t,t,t	<img class = center src='/static/experiments/beast_fmri_test/images/T.png'></img>	89,71	2750.0	test	<img class = center src='/static/experiments/beast_fmri_test/images/redT.png'></img>	go	2150.0	2.0	18.0	go	target	T	89,Middle Finger	71,Index Finger	600.0	900.0	2150.0	1850.0	1.0	600.0	1.0	n/a	ITI
94108	500	n/a	-1	-1	500	0.0	fixation	poldrack-single-stim	433	1222858	0.0-19.19-0.19	beast_fmri_test	349	1222544,/	t	<div class = centerbox2><div class = fixation>+</div></div>	none	500.0	test	n/a	n/a	n/a	n/a	n/a	n/a	n/a	n/a	n/a	n/a	n/a	n/a	n/a	n/a	n/a	n/a	n/a	n/a	fixation
92132.419441625476	2750	n/a	-1	-1	2750	1975.58055837	stim	stop-signal	434	1225608	0.0-19.19-1.19	beast_fmri_test	349	1223224,/,1223904,/,1224582,/,1225264,/,1225941,/,1226621,/,1227302,/	t,t,t,t,t,t,t	<img class = center src='/static/experiments/beast_fmri_test/images/T.png'></img>	89,71	2750.0	test	<img class = center src='/static/experiments/beast_fmri_test/images/redT.png'></img>	go	1850.0	2.0	19.0	go	non-target	T	89,Middle Finger	71,Index Finger	600.0	900.0	2150.0	1850.0	0.0	900.0	0.0	n/a	go_stim
94882.419441625476	1975.5805583744732	n/a	-1	-1	2750	1975.58055837	stim	stop-signal	434	1225608	0.0-19.19-1.19	beast_fmri_test	349	1223224,/,1223904,/,1224582,/,1225264,/,1225941,/,1226621,/,1227302,/	t,t,t,t,t,t,t	<img class = center src='/static/experiments/beast_fmri_test/images/T.png'></img>	89,71	2750.0	test	<img class = center src='/static/experiments/beast_fmri_test/images/redT.png'></img>	go	1850.0	2.0	19.0	go	non-target	T	89,Middle Finger	71,Index Finger	600.0	900.0	2150.0	1850.0	0.0	900.0	0.0	n/a	ITI
102228	500	n/a	-1	-1	500	0.0	fixation	poldrack-single-stim	435	1230978	0.0-19.20-0.20	beast_fmri_test	349	1227983,/	t	<div class = centerbox2><div class = fixation>+</div></div>	none	500.0	test	n/a	n/a	n/a	n/a	n/a	n/a	n/a	n/a	n/a	n/a	n/a	n/a	n/a	n/a	n/a	n/a	n/a	n/a	fixation
101477.89636827051	900.0	n/a	1474	71	2750	751.103631729	stim	stop-signal	436	1233729	0.0-19.20-1.20	beast_fmri_test	349	1231514,/,1232194,/,1232873,/,1233553,/,1234232,/	t,t,t,t,t	<img class = center src='/static/experiments/beast_fmri_test/images/V.png'></img>	89,71	2750.0	test	<img class = center src='/static/experiments/beast_fmri_test/images/redV.png'></img>	stop	1850.0	2.0	20.0	stop	non-target	V	89,Middle Finger	71,Index Finger	600.0	900.0	2150.0	1850.0	0.0	900.0	n/a	0.0	go_stim
103327.89636827051	1850.0	n/a	1474	71	2750	751.103631729	stim	stop-signal	436	1233729	0.0-19.20-1.20	beast_fmri_test	349	1231514,/,1232194,/,1232873,/,1233553,/,1234232,/	t,t,t,t,t	<img class = center src='/static/experiments/beast_fmri_test/images/V.png'></img>	89,71	2750.0	test	<img class = center src='/static/experiments/beast_fmri_test/images/redV.png'></img>	stop	1850.0	2.0	20.0	stop	non-target	V	89,Middle Finger	71,Index Finger	600.0	900.0	2150.0	1850.0	0.0	900.0	n/a	0.0	stop_stim
104227.89636827051	751.10363172947996	n/a	1474	71	2750	751.103631729	stim	stop-signal	436	1233729	0.0-19.20-1.20	beast_fmri_test	349	1231514,/,1232194,/,1232873,/,1233553,/,1234232,/	t,t,t,t,t	<img class = center src='/static/experiments/beast_fmri_test/images/V.png'></img>	89,71	2750.0	test	<img class = center src='/static/experiments/beast_fmri_test/images/redV.png'></img>	stop	1850.0	2.0	20.0	stop	non-target	V	89,Middle Finger	71,Index Finger	600.0	900.0	2150.0	1850.0	0.0	900.0	n/a	0.0	ITI
106276	500	n/a	-1	-1	500	0.0	fixation	poldrack-single-stim	437	1235026	0.0-19.21-0.21	beast_fmri_test	349	1234913,/	t	<div class = centerbox2><div class = fixation>+</div></div>	none	500.0	test	n/a	n/a	n/a	n/a	n/a	n/a	n/a	n/a	n/a	n/a	n/a	n/a	n/a	n/a	n/a	n/a	n/a	n/a	fixation
104752.31118247891	2750	n/a	1927	89	2750	1524.68881752	stim	stop-signal	438	1237777	0.0-19.21-1.21	beast_fmri_test	349	1235593,/,1236271,/,1236953,/,1237632,/,1238311,/,1238991,/	t,t,t,t,t,t	<img class = center src='/static/experiments/beast_fmri_test/images/T.png'></img>	89,71	2750.0	test	<img class = center src='/static/experiments/beast_fmri_test/images/redT.png'></img>	go	2150.0	2.0	21.0	go	target	T	89,Middle Finger	71,Index Finger	600.0	850.0	2150.0	1850.0	1.0	600.0	1.0	n/a	go_stim
107502.31118247891	1524.6888175210645	n/a	1927	89	2750	1524.68881752	stim	stop-signal	438	1237777	0.0-19.21-1.21	beast_fmri_test	349	1235593,/,1236271,/,1236953,/,1237632,/,1238311,/,1238991,/	t,t,t,t,t,t	<img class = center src='/static/experiments/beast_fmri_test/images/T.png'></img>	89,71	2750.0	test	<img class = center src='/static/experiments/beast_fmri_test/images/redT.png'></img>	go	2150.0	2.0	21.0	go	target	T	89,Middle Finger	71,Index Finger	600.0	850.0	2150.0	1850.0	1.0	600.0	1.0	n/a	ITI
111106	500	n/a	-1	-1	500	0.0	fixation	poldrack-single-stim	439	1239856	0.0-19.22-0.22	beast_fmri_test	349	1239672,/	t	<div class = centerbox2><div class = fixation>+</div></div>	none	500.0	test	n/a	n/a	n/a	n/a	n/a	n/a	n/a	n/a	n/a	n/a	n/a	n/a	n/a	n/a	n/a	n/a	n/a	n/a	fixation
110384.79780447553	850.0	n/a	1333	71	2750	724.202195524	stim	stop-signal	440	1242609	0.0-19.22-1.22	beast_fmri_test	349	1240349,/,1241030,/,1241709,/,1242390,/,1243068,/	t,t,t,t,t	<img class = center src='/static/experiments/beast_fmri_test/images/B.png'></img>	89,71	2750.0	test	<img class = center src='/static/experiments/beast_fmri_test/images/redB.png'></img>	stop	1900.0	2.0	22.0	stop	non-target	B	89,Middle Finger	71,Index Finger	600.0	850.0	2150.0	1900.0	0.0	850.0	n/a	0.0	go_stim
112284.79780447553	1900.0	n/a	1333	71	2750	724.202195524	stim	stop-signal	440	1242609	0.0-19.22-1.22	beast_fmri_test	349	1240349,/,1241030,/,1241709,/,1242390,/,1243068,/	t,t,t,t,t	<img class = center src='/static/experiments/beast_fmri_test/images/B.png'></img>	89,71	2750.0	test	<img class = center src='/static/experiments/beast_fmri_test/images/redB.png'></img>	stop	1900.0	2.0	22.0	stop	non-target	B	89,Middle Finger	71,Index Finger	600.0	850.0	2150.0	1900.0	0.0	850.0	n/a	0.0	stop_stim
113134.79780447553	724.20219552443177	n/a	1333	71	2750	724.202195524	stim	stop-signal	440	1242609	0.0-19.22-1.22	beast_fmri_test	349	1240349,/,1241030,/,1241709,/,1242390,/,1243068,/	t,t,t,t,t	<img class = center src='/static/experiments/beast_fmri_test/images/B.png'></img>	89,71	2750.0	test	<img class = center src='/static/experiments/beast_fmri_test/images/redB.png'></img>	stop	1900.0	2.0	22.0	stop	non-target	B	89,Middle Finger	71,Index Finger	600.0	850.0	2150.0	1900.0	0.0	850.0	n/a	0.0	ITI
115130	500	n/a	-1	-1	500	0.0	fixation	poldrack-single-stim	441	1243880	0.0-19.23-0.23	beast_fmri_test	349	1243749,/	t	<div class = centerbox2><div class = fixation>+</div></div>	none	500.0	test	n/a	n/a	n/a	n/a	n/a	n/a	n/a	n/a	n/a	n/a	n/a	n/a	n/a	n/a	n/a	n/a	n/a	n/a	fixation
114076.78670725576	2750	n/a	2177	71	2750	1054.21329274	stim	stop-signal	442	1246631	0.0-19.23-1.23	beast_fmri_test	349	1244427,/,1245109,/,1245788,/,1246468,/,1247147,/	t,t,t,t,t	<img class = center src='/static/experiments/beast_fmri_test/images/D.png'></img>	89,71	2750.0	test	<img class = center src='/static/experiments/beast_fmri_test/images/redD.png'></img>	go	1950.0	2.0	23.0	go	non-target	D	89,Middle Finger	71,Index Finger	600.0	800.0	2150.0	1950.0	1.0	800.0	1.0	n/a	go_stim
116826.78670725576	1054.2132927441521	n/a	2177	71	2750	1054.21329274	stim	stop-signal	442	1246631	0.0-19.23-1.23	beast_fmri_test	349	1244427,/,1245109,/,1245788,/,1246468,/,1247147,/	t,t,t,t,t	<img class = center src='/static/experiments/beast_fmri_test/images/D.png'></img>	89,71	2750.0	test	<img class = center src='/static/experiments/beast_fmri_test/images/redD.png'></img>	go	1950.0	2.0	23.0	go	non-target	D	89,Middle Finger	71,Index Finger	600.0	800.0	2150.0	1950.0	1.0	800.0	1.0	n/a	ITI
119483	500	n/a	-1	-1	500	0.0	fixation	poldrack-single-stim	443	1248233	0.0-19.24-0.24	beast_fmri_test	349	1247827,/	t	<div class = centerbox2><div class = fixation>+</div></div>	none	500.0	test	n/a	n/a	n/a	n/a	n/a	n/a	n/a	n/a	n/a	n/a	n/a	n/a	n/a	n/a	n/a	n/a	n/a	n/a	fixation
118401.69676417205	2750	n/a	1292	71	2750	1083.30323583	stim	stop-signal	444	1250985	0.0-19.24-1.24	beast_fmri_test	349	1248506,/,1249186,/,1249866,/,1250544,/,1251225,/,1251905,/	t,t,t,t,t,t	<img class = center src='/static/experiments/beast_fmri_test/images/D.png'></img>	89,71	2750.0	test	<img class = center src='/static/experiments/beast_fmri_test/images/redD.png'></img>	go	1950.0	2.0	24.0	go	non-target	D	89,Middle Finger	71,Index Finger	600.0	800.0	2150.0	1950.0	1.0	800.0	1.0	n/a	go_stim
121151.69676417205	1083.3032358279149	n/a	1292	71	2750	1083.30323583	stim	stop-signal	444	1250985	0.0-19.24-1.24	beast_fmri_test	349	1248506,/,1249186,/,1249866,/,1250544,/,1251225,/,1251905,/	t,t,t,t,t,t	<img class = center src='/static/experiments/beast_fmri_test/images/D.png'></img>	89,71	2750.0	test	<img class = center src='/static/experiments/beast_fmri_test/images/redD.png'></img>	go	1950.0	2.0	24.0	go	non-target	D	89,Middle Finger	71,Index Finger	600.0	800.0	2150.0	1950.0	1.0	800.0	1.0	n/a	ITI
123865	500	n/a	-1	-1	500	0.0	fixation	poldrack-single-stim	445	1252615	0.0-19.25-0.25	beast_fmri_test	349	1252584,/	t	<div class = centerbox2><div class = fixation>+</div></div>	none	500.0	test	n/a	n/a	n/a	n/a	n/a	n/a	n/a	n/a	n/a	n/a	n/a	n/a	n/a	n/a	n/a	n/a	n/a	n/a	fixation
123753.51763087139	2750	n/a	1025	89	2750	112.482369129	stim	stop-signal	446	1255366	0.0-19.25-1.25	beast_fmri_test	349	1253263,/,1253944,/,1254622,/,1255303,/	t,t,t,t	<img class = center src='/static/experiments/beast_fmri_test/images/D.png'></img>	89,71	2750.0	test	<img class = center src='/static/experiments/beast_fmri_test/images/redD.png'></img>	go	2150.0	2.0	25.0	go	target	D	89,Middle Finger	71,Index Finger	600.0	800.0	2150.0	1950.0	1.0	600.0	1.0	n/a	go_stim
126503.51763087139	112.48236912855228	n/a	1025	89	2750	112.482369129	stim	stop-signal	446	1255366	0.0-19.25-1.25	beast_fmri_test	349	1253263,/,1253944,/,1254622,/,1255303,/	t,t,t,t	<img class = center src='/static/experiments/beast_fmri_test/images/D.png'></img>	89,71	2750.0	test	<img class = center src='/static/experiments/beast_fmri_test/images/redD.png'></img>	go	2150.0	2.0	25.0	go	target	D	89,Middle Finger	71,Index Finger	600.0	800.0	2150.0	1950.0	1.0	600.0	1.0	n/a	ITI
127273	500	n/a	-1	-1	500	0.0	fixation	poldrack-single-stim	447	1256023	0.0-19.26-0.26	beast_fmri_test	349	1255982,/	t	<div class = centerbox2><div class = fixation>+</div></div>	none	500.0	test	n/a	n/a	n/a	n/a	n/a	n/a	n/a	n/a	n/a	n/a	n/a	n/a	n/a	n/a	n/a	n/a	n/a	n/a	fixation
124001.25565538649	2750	n/a	-1	-1	2750	3274.74434461	stim	stop-signal	448	1258776	0.0-19.26-1.26	beast_fmri_test	349	1256663,/,1257342,/,1258022,/,1258702,/,1259380,/,1260061,/,1260739,/,1261420,/	t,t,t,t,t,t,t,t	<img class = center src='/static/experiments/beast_fmri_test/images/V.png'></img>	89,71	2750.0	test	<img class = center src='/static/experiments/beast_fmri_test/images/redV.png'></img>	go	1950.0	2.0	26.0	go	non-target	V	89,Middle Finger	71,Index Finger	600.0	800.0	2150.0	1950.0	0.0	800.0	0.0	n/a	go_stim
126751.25565538649	3274.7443446134962	n/a	-1	-1	2750	3274.74434461	stim	stop-signal	448	1258776	0.0-19.26-1.26	beast_fmri_test	349	1256663,/,1257342,/,1258022,/,1258702,/,1259380,/,1260061,/,1260739,/,1261420,/	t,t,t,t,t,t,t,t	<img class = center src='/static/experiments/beast_fmri_test/images/V.png'></img>	89,71	2750.0	test	<img class = center src='/static/experiments/beast_fmri_test/images/redV.png'></img>	go	1950.0	2.0	26.0	go	non-target	V	89,Middle Finger	71,Index Finger	600.0	800.0	2150.0	1950.0	0.0	800.0	0.0	n/a	ITI
133849	500	n/a	-1	-1	500	0.0	fixation	poldrack-single-stim	449	1262599	0.0-19.27-0.27	beast_fmri_test	349	1262100,/	t	<div class = centerbox2><div class = fixation>+</div></div>	none	500.0	test	n/a	n/a	n/a	n/a	n/a	n/a	n/a	n/a	n/a	n/a	n/a	n/a	n/a	n/a	n/a	n/a	n/a	n/a	fixation
132768.41499971272	800.0	n/a	1370	71	2750	1082.58500029	stim	stop-signal	450	1265351	0.0-19.27-1.27	beast_fmri_test	349	1262781,/,1263459,/,1264138,/,1264819,/,1265499,/,1266178,/	t,t,t,t,t,t	<img class = center src='/static/experiments/beast_fmri_test/images/T.png'></img>	89,71	2750.0	test	<img class = center src='/static/experiments/beast_fmri_test/images/redT.png'></img>	stop	1950.0	2.0	27.0	stop	non-target	T	89,Middle Finger	71,Index Finger	600.0	800.0	2150.0	1950.0	0.0	800.0	n/a	0.0	go_stim
134718.41499971272	1950.0	n/a	1370	71	2750	1082.58500029	stim	stop-signal	450	1265351	0.0-19.27-1.27	beast_fmri_test	349	1262781,/,1263459,/,1264138,/,1264819,/,1265499,/,1266178,/	t,t,t,t,t,t	<img class = center src='/static/experiments/beast_fmri_test/images/T.png'></img>	89,71	2750.0	test	<img class = center src='/static/experiments/beast_fmri_test/images/redT.png'></img>	stop	1950.0	2.0	27.0	stop	non-target	T	89,Middle Finger	71,Index Finger	600.0	800.0	2150.0	1950.0	0.0	800.0	n/a	0.0	stop_stim
135518.41499971272	1082.5850002873592	n/a	1370	71	2750	1082.58500029	stim	stop-signal	450	1265351	0.0-19.27-1.27	beast_fmri_test	349	1262781,/,1263459,/,1264138,/,1264819,/,1265499,/,1266178,/	t,t,t,t,t,t	<img class = center src='/static/experiments/beast_fmri_test/images/T.png'></img>	89,71	2750.0	test	<img class = center src='/static/experiments/beast_fmri_test/images/redT.png'></img>	stop	1950.0	2.0	27.0	stop	non-target	T	89,Middle Finger	71,Index Finger	600.0	800.0	2150.0	1950.0	0.0	800.0	n/a	0.0	ITI
138232	500	n/a	-1	-1	500	0.0	fixation	poldrack-single-stim	451	1266982	0.0-19.28-0.28	beast_fmri_test	349	1266858,/	t	<div class = centerbox2><div class = fixation>+</div></div>	none	500.0	test	n/a	n/a	n/a	n/a	n/a	n/a	n/a	n/a	n/a	n/a	n/a	n/a	n/a	n/a	n/a	n/a	n/a	n/a	fixation
133770.75914648804	750.0	n/a	-1	-1	2750	4463.24085351	stim	stop-signal	452	1269734	0.0-19.28-1.28	beast_fmri_test	349	1267538,/,1268218,/,1268898,/,1269576,/,1270257,/,1270937,/,1271616,/,1272294,/,1272975,/,1273654,/	t,t,t,t,t,t,t,t,t,t	<img class = center src='/static/experiments/beast_fmri_test/images/T.png'></img>	89,71	2750.0	test	<img class = center src='/static/experiments/beast_fmri_test/images/redT.png'></img>	stop	2000.0	2.0	28.0	stop	non-target	T	89,Middle Finger	71,Index Finger	600.0	750.0	2150.0	2000.0	0.0	750.0	n/a	1.0	go_stim
135770.75914648804	2000.0	n/a	-1	-1	2750	4463.24085351	stim	stop-signal	452	1269734	0.0-19.28-1.28	beast_fmri_test	349	1267538,/,1268218,/,1268898,/,1269576,/,1270257,/,1270937,/,1271616,/,1272294,/,1272975,/,1273654,/	t,t,t,t,t,t,t,t,t,t	<img class = center src='/static/experiments/beast_fmri_test/images/T.png'></img>	89,71	2750.0	test	<img class = center src='/static/experiments/beast_fmri_test/images/redT.png'></img>	stop	2000.0	2.0	28.0	stop	non-target	T	89,Middle Finger	71,Index Finger	600.0	750.0	2150.0	2000.0	0.0	750.0	n/a	1.0	stop_stim
136520.75914648804	4463.240853511923	n/a	-1	-1	2750	4463.24085351	stim	stop-signal	452	1269734	0.0-19.28-1.28	beast_fmri_test	349	1267538,/,1268218,/,1268898,/,1269576,/,1270257,/,1270937,/,1271616,/,1272294,/,1272975,/,1273654,/	t,t,t,t,t,t,t,t,t,t	<img class = center src='/static/experiments/beast_fmri_test/images/T.png'></img>	89,71	2750.0	test	<img class = center src='/static/experiments/beast_fmri_test/images/redT.png'></img>	stop	2000.0	2.0	28.0	stop	non-target	T	89,Middle Finger	71,Index Finger	600.0	750.0	2150.0	2000.0	0.0	750.0	n/a	1.0	ITI
145991	500	n/a	-1	-1	500	0.0	fixation	poldrack-single-stim	453	1274741	0.0-19.29-0.29	beast_fmri_test	349	1274335,/	t	<div class = centerbox2><div class = fixation>+</div></div>	none	500.0	test	n/a	n/a	n/a	n/a	n/a	n/a	n/a	n/a	n/a	n/a	n/a	n/a	n/a	n/a	n/a	n/a	n/a	n/a	fixation
145956.03268299578	800.0	n/a	958	71	2750	36.9673170043	stim	stop-signal	454	1277493	0.0-19.29-1.29	beast_fmri_test	349	1275014,/,1275694,/,1276372,/,1277053,/	t,t,t,t	<img class = center src='/static/experiments/beast_fmri_test/images/D.png'></img>	89,71	2750.0	test	<img class = center src='/static/experiments/beast_fmri_test/images/redD.png'></img>	stop	1950.0	2.0	29.0	stop	non-target	D	89,Middle Finger	71,Index Finger	600.0	800.0	2150.0	1950.0	0.0	800.0	n/a	0.0	go_stim
147906.03268299578	1950.0	n/a	958	71	2750	36.9673170043	stim	stop-signal	454	1277493	0.0-19.29-1.29	beast_fmri_test	349	1275014,/,1275694,/,1276372,/,1277053,/	t,t,t,t	<img class = center src='/static/experiments/beast_fmri_test/images/D.png'></img>	89,71	2750.0	test	<img class = center src='/static/experiments/beast_fmri_test/images/redD.png'></img>	stop	1950.0	2.0	29.0	stop	non-target	D	89,Middle Finger	71,Index Finger	600.0	800.0	2150.0	1950.0	0.0	800.0	n/a	0.0	stop_stim
148706.03268299578	36.967317004334681	n/a	958	71	2750	36.9673170043	stim	stop-signal	454	1277493	0.0-19.29-1.29	beast_fmri_test	349	1275014,/,1275694,/,1276372,/,1277053,/	t,t,t,t	<img class = center src='/static/experiments/beast_fmri_test/images/D.png'></img>	89,71	2750.0	test	<img class = center src='/static/experiments/beast_fmri_test/images/redD.png'></img>	stop	1950.0	2.0	29.0	stop	non-target	D	89,Middle Finger	71,Index Finger	600.0	800.0	2150.0	1950.0	0.0	800.0	n/a	0.0	ITI
149330	500	n/a	-1	-1	500	0.0	fixation	poldrack-single-stim	455	1278080	0.0-19.30-0.30	beast_fmri_test	349	1277732,/	t	<div class = centerbox2><div class = fixation>+</div></div>	none	500.0	test	n/a	n/a	n/a	n/a	n/a	n/a	n/a	n/a	n/a	n/a	n/a	n/a	n/a	n/a	n/a	n/a	n/a	n/a	fixation
148812.73953786585	2750	n/a	2272	71	2750	519.260462134	stim	stop-signal	456	1280832	0.0-19.30-1.30	beast_fmri_test	349	1278413,/,1279093,/,1279772,/,1280451,/,1281131,/	t,t,t,t,t	<img class = center src='/static/experiments/beast_fmri_test/images/D.png'></img>	89,71	2750.0	test	<img class = center src='/static/experiments/beast_fmri_test/images/redD.png'></img>	go	2000.0	2.0	30.0	go	non-target	D	89,Middle Finger	71,Index Finger	600.0	750.0	2150.0	2000.0	1.0	750.0	1.0	n/a	go_stim
151562.73953786585	519.26046213403163	n/a	2272	71	2750	519.260462134	stim	stop-signal	456	1280832	0.0-19.30-1.30	beast_fmri_test	349	1278413,/,1279093,/,1279772,/,1280451,/,1281131,/	t,t,t,t,t	<img class = center src='/static/experiments/beast_fmri_test/images/D.png'></img>	89,71	2750.0	test	<img class = center src='/static/experiments/beast_fmri_test/images/redD.png'></img>	go	2000.0	2.0	30.0	go	non-target	D	89,Middle Finger	71,Index Finger	600.0	750.0	2150.0	2000.0	1.0	750.0	1.0	n/a	ITI
153149	500	n/a	-1	-1	500	0.0	fixation	poldrack-single-stim	457	1281899	0.0-19.31-0.31	beast_fmri_test	349	1281811,/	t	<div class = centerbox2><div class = fixation>+</div></div>	none	500.0	test	n/a	n/a	n/a	n/a	n/a	n/a	n/a	n/a	n/a	n/a	n/a	n/a	n/a	n/a	n/a	n/a	n/a	n/a	fixation
149787.27921107691	750.0	n/a	1719	71	2750	3363.72078892	stim	stop-signal	458	1284651	0.0-19.31-1.31	beast_fmri_test	349	1282491,/,1283171,/,1283848,/,1284529,/,1285208,/,1285889,/,1286567,/,1287248,/,1287927,/	t,t,t,t,t,t,t,t,t	<img class = center src='/static/experiments/beast_fmri_test/images/T.png'></img>	89,71	2750.0	test	<img class = center src='/static/experiments/beast_fmri_test/images/redT.png'></img>	stop	2000.0	2.0	31.0	stop	non-target	T	89,Middle Finger	71,Index Finger	600.0	750.0	2150.0	2000.0	0.0	750.0	n/a	0.0	go_stim
151787.27921107691	2000.0	n/a	1719	71	2750	3363.72078892	stim	stop-signal	458	1284651	0.0-19.31-1.31	beast_fmri_test	349	1282491,/,1283171,/,1283848,/,1284529,/,1285208,/,1285889,/,1286567,/,1287248,/,1287927,/	t,t,t,t,t,t,t,t,t	<img class = center src='/static/experiments/beast_fmri_test/images/T.png'></img>	89,71	2750.0	test	<img class = center src='/static/experiments/beast_fmri_test/images/redT.png'></img>	stop	2000.0	2.0	31.0	stop	non-target	T	89,Middle Finger	71,Index Finger	600.0	750.0	2150.0	2000.0	0.0	750.0	n/a	0.0	stop_stim
152537.27921107691	3363.7207889230626	n/a	1719	71	2750	3363.72078892	stim	stop-signal	458	1284651	0.0-19.31-1.31	beast_fmri_test	349	1282491,/,1283171,/,1283848,/,1284529,/,1285208,/,1285889,/,1286567,/,1287248,/,1287927,/	t,t,t,t,t,t,t,t,t	<img class = center src='/static/experiments/beast_fmri_test/images/T.png'></img>	89,71	2750.0	test	<img class = center src='/static/experiments/beast_fmri_test/images/redT.png'></img>	stop	2000.0	2.0	31.0	stop	non-target	T	89,Middle Finger	71,Index Finger	600.0	750.0	2150.0	2000.0	0.0	750.0	n/a	0.0	ITI
159809	500	n/a	-1	-1	500	0.0	fixation	poldrack-single-stim	459	1288559	0.0-19.32-0.32	beast_fmri_test	349	n/a	n/a	<div class = centerbox2><div class = fixation>+</div></div>	none	500.0	test	n/a	n/a	n/a	n/a	n/a	n/a	n/a	n/a	n/a	n/a	n/a	n/a	n/a	n/a	n/a	n/a	n/a	n/a	fixation
159528.39269871567	600.0	n/a	-1	-1	2750	282.607301284	stim	stop-signal	460	1291311	0.0-19.32-1.32	beast_fmri_test	349	1288608,/,1289287,/,1289967,/,1290647,/,1291326,/	t,t,t,t,t	<img class = center src='/static/experiments/beast_fmri_test/images/D.png'></img>	89,71	2750.0	test	<img class = center src='/static/experiments/beast_fmri_test/images/redD.png'></img>	stop	2150.0	2.0	32.0	stop	target	D	89,Middle Finger	71,Index Finger	600.0	700.0	2150.0	2000.0	0.0	600.0	n/a	1.0	go_stim
161678.39269871567	2150.0	n/a	-1	-1	2750	282.607301284	stim	stop-signal	460	1291311	0.0-19.32-1.32	beast_fmri_test	349	1288608,/,1289287,/,1289967,/,1290647,/,1291326,/	t,t,t,t,t	<img class = center src='/static/experiments/beast_fmri_test/images/D.png'></img>	89,71	2750.0	test	<img class = center src='/static/experiments/beast_fmri_test/images/redD.png'></img>	stop	2150.0	2.0	32.0	stop	target	D	89,Middle Finger	71,Index Finger	600.0	700.0	2150.0	2000.0	0.0	600.0	n/a	1.0	stop_stim
162278.39269871567	282.60730128430237	n/a	-1	-1	2750	282.607301284	stim	stop-signal	460	1291311	0.0-19.32-1.32	beast_fmri_test	349	1288608,/,1289287,/,1289967,/,1290647,/,1291326,/	t,t,t,t,t	<img class = center src='/static/experiments/beast_fmri_test/images/D.png'></img>	89,71	2750.0	test	<img class = center src='/static/experiments/beast_fmri_test/images/redD.png'></img>	stop	2150.0	2.0	32.0	stop	target	D	89,Middle Finger	71,Index Finger	600.0	700.0	2150.0	2000.0	0.0	600.0	n/a	1.0	ITI
163388	500	n/a	-1	-1	500	0.0	fixation	poldrack-single-stim	461	1292138	0.0-19.33-0.33	beast_fmri_test	349	1292007,/	t	<div class = centerbox2><div class = fixation>+</div></div>	none	500.0	test	n/a	n/a	n/a	n/a	n/a	n/a	n/a	n/a	n/a	n/a	n/a	n/a	n/a	n/a	n/a	n/a	n/a	n/a	fixation
163196.60260933451	2750	n/a	2565	71	2750	192.397390666	stim	stop-signal	462	1294889	0.0-19.33-1.33	beast_fmri_test	349	1292686,/,1293366,/,1294045,/,1294724,/	t,t,t,t	<img class = center src='/static/experiments/beast_fmri_test/images/V.png'></img>	89,71	2750.0	test	<img class = center src='/static/experiments/beast_fmri_test/images/redV.png'></img>	go	2050.0	2.0	33.0	go	non-target	V	89,Middle Finger	71,Index Finger	650.0	700.0	2150.0	2050.0	1.0	700.0	1.0	n/a	go_stim
165946.60260933451	192.39739066553182	n/a	2565	71	2750	192.397390666	stim	stop-signal	462	1294889	0.0-19.33-1.33	beast_fmri_test	349	1292686,/,1293366,/,1294045,/,1294724,/	t,t,t,t	<img class = center src='/static/experiments/beast_fmri_test/images/V.png'></img>	89,71	2750.0	test	<img class = center src='/static/experiments/beast_fmri_test/images/redV.png'></img>	go	2050.0	2.0	33.0	go	non-target	V	89,Middle Finger	71,Index Finger	650.0	700.0	2150.0	2050.0	1.0	700.0	1.0	n/a	ITI
166882	500	n/a	-1	-1	500	0.0	fixation	poldrack-single-stim	463	1295632	0.0-19.34-0.34	beast_fmri_test	349	1295404,/	t	<div class = centerbox2><div class = fixation>+</div></div>	none	500.0	test	n/a	n/a	n/a	n/a	n/a	n/a	n/a	n/a	n/a	n/a	n/a	n/a	n/a	n/a	n/a	n/a	n/a	n/a	fixation
165387.36465875059	2750	n/a	1573	89	2750	1495.63534125	stim	stop-signal	464	1298383	0.0-19.34-1.34	beast_fmri_test	349	1296085,/,1296763,/,1297444,/,1298123,/,1298803,/,1299482,/	t,t,t,t,t,t	<img class = center src='/static/experiments/beast_fmri_test/images/D.png'></img>	89,71	2750.0	test	<img class = center src='/static/experiments/beast_fmri_test/images/redD.png'></img>	go	2100.0	2.0	34.0	go	target	D	89,Middle Finger	71,Index Finger	650.0	700.0	2100.0	2050.0	1.0	650.0	1.0	n/a	go_stim
168137.36465875059	1495.6353412494218	n/a	1573	89	2750	1495.63534125	stim	stop-signal	464	1298383	0.0-19.34-1.34	beast_fmri_test	349	1296085,/,1296763,/,1297444,/,1298123,/,1298803,/,1299482,/	t,t,t,t,t,t	<img class = center src='/static/experiments/beast_fmri_test/images/D.png'></img>	89,71	2750.0	test	<img class = center src='/static/experiments/beast_fmri_test/images/redD.png'></img>	go	2100.0	2.0	34.0	go	target	D	89,Middle Finger	71,Index Finger	650.0	700.0	2100.0	2050.0	1.0	650.0	1.0	n/a	ITI
171674	500	n/a	-1	-1	500	0.0	fixation	poldrack-single-stim	465	1300424	0.0-19.35-0.35	beast_fmri_test	349	1300163,/	t	<div class = centerbox2><div class = fixation>+</div></div>	none	500.0	test	n/a	n/a	n/a	n/a	n/a	n/a	n/a	n/a	n/a	n/a	n/a	n/a	n/a	n/a	n/a	n/a	n/a	n/a	fixation
171517.55077676079	2750	n/a	1703	89	2750	156.449223239	stim	stop-signal	466	1303174	0.0-19.35-1.35	beast_fmri_test	349	1300842,/,1301521,/,1302202,/,1302882,/	t,t,t,t	<img class = center src='/static/experiments/beast_fmri_test/images/V.png'></img>	89,71	2750.0	test	<img class = center src='/static/experiments/beast_fmri_test/images/redV.png'></img>	go	2100.0	2.0	35.0	go	target	V	89,Middle Finger	71,Index Finger	650.0	700.0	2100.0	2050.0	1.0	650.0	1.0	n/a	go_stim
174267.55077676079	156.4492232392586	n/a	1703	89	2750	156.449223239	stim	stop-signal	466	1303174	0.0-19.35-1.35	beast_fmri_test	349	1300842,/,1301521,/,1302202,/,1302882,/	t,t,t,t	<img class = center src='/static/experiments/beast_fmri_test/images/V.png'></img>	89,71	2750.0	test	<img class = center src='/static/experiments/beast_fmri_test/images/redV.png'></img>	go	2100.0	2.0	35.0	go	target	V	89,Middle Finger	71,Index Finger	650.0	700.0	2100.0	2050.0	1.0	650.0	1.0	n/a	ITI
175129	500	n/a	-1	-1	500	0.0	fixation	poldrack-single-stim	467	1303879	0.0-19.36-0.36	beast_fmri_test	349	1303561,/	t	<div class = centerbox2><div class = fixation>+</div></div>	none	500.0	test	n/a	n/a	n/a	n/a	n/a	n/a	n/a	n/a	n/a	n/a	n/a	n/a	n/a	n/a	n/a	n/a	n/a	n/a	fixation
174716.83234061697	650.0	n/a	-1	-1	2750	414.167659383	stim	stop-signal	468	1306631	0.0-19.36-1.36	beast_fmri_test	349	1304240,/,1304920,/,1305600,/,1306279,/,1306958,/	t,t,t,t,t	<img class = center src='/static/experiments/beast_fmri_test/images/D.png'></img>	89,71	2750.0	test	<img class = center src='/static/experiments/beast_fmri_test/images/redD.png'></img>	stop	2100.0	2.0	36.0	stop	target	D	89,Middle Finger	71,Index Finger	650.0	700.0	2100.0	2050.0	0.0	650.0	n/a	1.0	go_stim
176816.83234061697	2100.0	n/a	-1	-1	2750	414.167659383	stim	stop-signal	468	1306631	0.0-19.36-1.36	beast_fmri_test	349	1304240,/,1304920,/,1305600,/,1306279,/,1306958,/	t,t,t,t,t	<img class = center src='/static/experiments/beast_fmri_test/images/D.png'></img>	89,71	2750.0	test	<img class = center src='/static/experiments/beast_fmri_test/images/redD.png'></img>	stop	2100.0	2.0	36.0	stop	target	D	89,Middle Finger	71,Index Finger	650.0	700.0	2100.0	2050.0	0.0	650.0	n/a	1.0	stop_stim
177466.83234061697	414.16765938314933	n/a	-1	-1	2750	414.167659383	stim	stop-signal	468	1306631	0.0-19.36-1.36	beast_fmri_test	349	1304240,/,1304920,/,1305600,/,1306279,/,1306958,/	t,t,t,t,t	<img class = center src='/static/experiments/beast_fmri_test/images/D.png'></img>	89,71	2750.0	test	<img class = center src='/static/experiments/beast_fmri_test/images/redD.png'></img>	stop	2100.0	2.0	36.0	stop	target	D	89,Middle Finger	71,Index Finger	650.0	700.0	2100.0	2050.0	0.0	650.0	n/a	1.0	ITI
178842	500	n/a	-1	-1	500	0.0	fixation	poldrack-single-stim	469	1307592	0.0-19.37-0.37	beast_fmri_test	349	n/a	n/a	<div class = centerbox2><div class = fixation>+</div></div>	none	500.0	test	n/a	n/a	n/a	n/a	n/a	n/a	n/a	n/a	n/a	n/a	n/a	n/a	n/a	n/a	n/a	n/a	n/a	n/a	fixation
175996.04423542251	2750	n/a	1061	89	2750	2846.95576458	stim	stop-signal	470	1310343	0.0-19.37-1.37	beast_fmri_test	349	1307639,/,1308317,/,1308999,/,1309677,/,1310356,/,1311036,/,1311717,/,1312396,/,1313077,/	t,t,t,t,t,t,t,t,t	<img class = center src='/static/experiments/beast_fmri_test/images/V.png'></img>	89,71	2750.0	test	<img class = center src='/static/experiments/beast_fmri_test/images/redV.png'></img>	go	2050.0	2.0	37.0	go	target	V	89,Middle Finger	71,Index Finger	700.0	700.0	2050.0	2050.0	1.0	700.0	1.0	n/a	go_stim
178746.04423542251	2846.9557645773853	n/a	1061	89	2750	2846.95576458	stim	stop-signal	470	1310343	0.0-19.37-1.37	beast_fmri_test	349	1307639,/,1308317,/,1308999,/,1309677,/,1310356,/,1311036,/,1311717,/,1312396,/,1313077,/	t,t,t,t,t,t,t,t,t	<img class = center src='/static/experiments/beast_fmri_test/images/V.png'></img>	89,71	2750.0	test	<img class = center src='/static/experiments/beast_fmri_test/images/redV.png'></img>	go	2050.0	2.0	37.0	go	target	V	89,Middle Finger	71,Index Finger	700.0	700.0	2050.0	2050.0	1.0	700.0	1.0	n/a	ITI
184988	500	n/a	-1	-1	500	0.0	fixation	poldrack-single-stim	471	1313738	0.0-19.38-0.38	beast_fmri_test	349	n/a	n/a	<div class = centerbox2><div class = fixation>+</div></div>	none	500.0	test	n/a	n/a	n/a	n/a	n/a	n/a	n/a	n/a	n/a	n/a	n/a	n/a	n/a	n/a	n/a	n/a	n/a	n/a	fixation
183877.41051505576	2750	n/a	1767	71	2750	1112.58948494	stim	stop-signal	472	1316490	0.0-19.38-1.38	beast_fmri_test	349	1313756,/,1314436,/,1315115,/,1315795,/,1316475,/,1317153,/	t,t,t,t,t,t	<img class = center src='/static/experiments/beast_fmri_test/images/T.png'></img>	89,71	2750.0	test	<img class = center src='/static/experiments/beast_fmri_test/images/redT.png'></img>	go	2050.0	2.0	38.0	go	non-target	T	89,Middle Finger	71,Index Finger	700.0	700.0	2050.0	2050.0	1.0	700.0	1.0	n/a	go_stim
186627.41051505576	1112.5894849443532	n/a	1767	71	2750	1112.58948494	stim	stop-signal	472	1316490	0.0-19.38-1.38	beast_fmri_test	349	1313756,/,1314436,/,1315115,/,1315795,/,1316475,/,1317153,/	t,t,t,t,t,t	<img class = center src='/static/experiments/beast_fmri_test/images/T.png'></img>	89,71	2750.0	test	<img class = center src='/static/experiments/beast_fmri_test/images/redT.png'></img>	go	2050.0	2.0	38.0	go	non-target	T	89,Middle Finger	71,Index Finger	700.0	700.0	2050.0	2050.0	1.0	700.0	1.0	n/a	ITI
189400	500	n/a	-1	-1	500	0.0	fixation	poldrack-single-stim	473	1318150	0.0-19.39-0.39	beast_fmri_test	349	1317835,/	t	<div class = centerbox2><div class = fixation>+</div></div>	none	500.0	test	n/a	n/a	n/a	n/a	n/a	n/a	n/a	n/a	n/a	n/a	n/a	n/a	n/a	n/a	n/a	n/a	n/a	n/a	fixation
186706.94992911979	700.0	n/a	2161	89	2750	2695.05007088	stim	stop-signal	474	1320902	0.0-19.39-1.39	beast_fmri_test	349	1318513,/,1319194,/,1319873,/,1320554,/,1321232,/,1321913,/,1322592,/,1323272,/	t,t,t,t,t,t,t,t	<img class = center src='/static/experiments/beast_fmri_test/images/D.png'></img>	89,71	2750.0	test	<img class = center src='/static/experiments/beast_fmri_test/images/redD.png'></img>	stop	2050.0	2.0	39.0	stop	non-target	D	89,Middle Finger	71,Index Finger	700.0	700.0	2050.0	2050.0	0.0	700.0	n/a	0.0	go_stim
188756.94992911979	2050.0	n/a	2161	89	2750	2695.05007088	stim	stop-signal	474	1320902	0.0-19.39-1.39	beast_fmri_test	349	1318513,/,1319194,/,1319873,/,1320554,/,1321232,/,1321913,/,1322592,/,1323272,/	t,t,t,t,t,t,t,t	<img class = center src='/static/experiments/beast_fmri_test/images/D.png'></img>	89,71	2750.0	test	<img class = center src='/static/experiments/beast_fmri_test/images/redD.png'></img>	stop	2050.0	2.0	39.0	stop	non-target	D	89,Middle Finger	71,Index Finger	700.0	700.0	2050.0	2050.0	0.0	700.0	n/a	0.0	stop_stim
189456.94992911979	2695.0500708803256	n/a	2161	89	2750	2695.05007088	stim	stop-signal	474	1320902	0.0-19.39-1.39	beast_fmri_test	349	1318513,/,1319194,/,1319873,/,1320554,/,1321232,/,1321913,/,1322592,/,1323272,/	t,t,t,t,t,t,t,t	<img class = center src='/static/experiments/beast_fmri_test/images/D.png'></img>	89,71	2750.0	test	<img class = center src='/static/experiments/beast_fmri_test/images/redD.png'></img>	stop	2050.0	2.0	39.0	stop	non-target	D	89,Middle Finger	71,Index Finger	700.0	700.0	2050.0	2050.0	0.0	700.0	n/a	0.0	ITI
195395	500	n/a	-1	-1	500	0.0	fixation	poldrack-single-stim	475	1324145	0.0-19.40-0.40	beast_fmri_test	349	1323952,/	t	<div class = centerbox2><div class = fixation>+</div></div>	none	500.0	test	n/a	n/a	n/a	n/a	n/a	n/a	n/a	n/a	n/a	n/a	n/a	n/a	n/a	n/a	n/a	n/a	n/a	n/a	fixation
194713.62601988413	2750	n/a	1653	71	2750	683.373980116	stim	stop-signal	476	1326897	0.0-19.40-1.40	beast_fmri_test	349	1324632,/,1325312,/,1325990,/,1326671,/,1327349,/	t,t,t,t,t	<img class = center src='/static/experiments/beast_fmri_test/images/B.png'></img>	89,71	2750.0	test	<img class = center src='/static/experiments/beast_fmri_test/images/redB.png'></img>	go	2100.0	2.0	40.0	go	non-target	B	89,Middle Finger	71,Index Finger	700.0	650.0	2050.0	2100.0	1.0	650.0	1.0	n/a	go_stim
197463.62601988413	683.37398011589926	n/a	1653	71	2750	683.373980116	stim	stop-signal	476	1326897	0.0-19.40-1.40	beast_fmri_test	349	1324632,/,1325312,/,1325990,/,1326671,/,1327349,/	t,t,t,t,t	<img class = center src='/static/experiments/beast_fmri_test/images/B.png'></img>	89,71	2750.0	test	<img class = center src='/static/experiments/beast_fmri_test/images/redB.png'></img>	go	2100.0	2.0	40.0	go	non-target	B	89,Middle Finger	71,Index Finger	700.0	650.0	2050.0	2100.0	1.0	650.0	1.0	n/a	ITI
199383	500	n/a	-1	-1	500	0.0	fixation	poldrack-single-stim	477	1328133	0.0-19.41-0.41	beast_fmri_test	349	1328030,/	t	<div class = centerbox2><div class = fixation>+</div></div>	none	500.0	test	n/a	n/a	n/a	n/a	n/a	n/a	n/a	n/a	n/a	n/a	n/a	n/a	n/a	n/a	n/a	n/a	n/a	n/a	fixation
198380.53146309988	2750	n/a	1049	71	2750	1004.4685369	stim	stop-signal	478	1330885	0.0-19.41-1.41	beast_fmri_test	349	1328709,/,1329389,/,1330068,/,1330749,/,1331428,/	t,t,t,t,t	<img class = center src='/static/experiments/beast_fmri_test/images/V.png'></img>	89,71	2750.0	test	<img class = center src='/static/experiments/beast_fmri_test/images/redV.png'></img>	go	2100.0	2.0	41.0	go	non-target	V	89,Middle Finger	71,Index Finger	700.0	650.0	2050.0	2100.0	1.0	650.0	1.0	n/a	go_stim
201130.53146309988	1004.4685369000584	n/a	1049	71	2750	1004.4685369	stim	stop-signal	478	1330885	0.0-19.41-1.41	beast_fmri_test	349	1328709,/,1329389,/,1330068,/,1330749,/,1331428,/	t,t,t,t,t	<img class = center src='/static/experiments/beast_fmri_test/images/V.png'></img>	89,71	2750.0	test	<img class = center src='/static/experiments/beast_fmri_test/images/redV.png'></img>	go	2100.0	2.0	41.0	go	non-target	V	89,Middle Finger	71,Index Finger	700.0	650.0	2050.0	2100.0	1.0	650.0	1.0	n/a	ITI
203685	500	n/a	-1	-1	500	0.0	fixation	poldrack-single-stim	479	1332435	0.0-19.42-0.42	beast_fmri_test	349	1332108,/	t	<div class = centerbox2><div class = fixation>+</div></div>	none	500.0	test	n/a	n/a	n/a	n/a	n/a	n/a	n/a	n/a	n/a	n/a	n/a	n/a	n/a	n/a	n/a	n/a	n/a	n/a	fixation
199896.19417204172	2750	n/a	2306	71	2750	3790.80582796	stim	stop-signal	480	1335187	0.0-19.42-1.42	beast_fmri_test	349	1332788,/,1333467,/,1334147,/,1334825,/,1335507,/,1336186,/,1336865,/,1337545,/,1338225,/,1338903,/	t,t,t,t,t,t,t,t,t,t	<img class = center src='/static/experiments/beast_fmri_test/images/T.png'></img>	89,71	2750.0	test	<img class = center src='/static/experiments/beast_fmri_test/images/redT.png'></img>	go	2100.0	2.0	42.0	go	non-target	T	89,Middle Finger	71,Index Finger	700.0	650.0	2050.0	2100.0	1.0	650.0	1.0	n/a	go_stim
202646.19417204172	3790.8058279583238	n/a	2306	71	2750	3790.80582796	stim	stop-signal	480	1335187	0.0-19.42-1.42	beast_fmri_test	349	1332788,/,1333467,/,1334147,/,1334825,/,1335507,/,1336186,/,1336865,/,1337545,/,1338225,/,1338903,/	t,t,t,t,t,t,t,t,t,t	<img class = center src='/static/experiments/beast_fmri_test/images/T.png'></img>	89,71	2750.0	test	<img class = center src='/static/experiments/beast_fmri_test/images/redT.png'></img>	go	2100.0	2.0	42.0	go	non-target	T	89,Middle Finger	71,Index Finger	700.0	650.0	2050.0	2100.0	1.0	650.0	1.0	n/a	ITI
210776	500	n/a	-1	-1	500	0.0	fixation	poldrack-single-stim	481	1339526	0.0-19.43-0.43	beast_fmri_test	349	n/a	n/a	<div class = centerbox2><div class = fixation>+</div></div>	none	500.0	test	n/a	n/a	n/a	n/a	n/a	n/a	n/a	n/a	n/a	n/a	n/a	n/a	n/a	n/a	n/a	n/a	n/a	n/a	fixation
210729.3096526817	2750	n/a	1352	89	2750	47.6903473182	stim	stop-signal	482	1342277	0.0-19.43-1.43	beast_fmri_test	349	1339583,/,1340263,/,1340944,/,1341623,/,1342301,/	t,t,t,t,t	<img class = center src='/static/experiments/beast_fmri_test/images/V.png'></img>	89,71	2750.0	test	<img class = center src='/static/experiments/beast_fmri_test/images/redV.png'></img>	go	2050.0	2.0	43.0	go	target	V	89,Middle Finger	71,Index Finger	700.0	650.0	2050.0	2100.0	1.0	700.0	1.0	n/a	go_stim
213479.3096526817	47.690347318244292	n/a	1352	89	2750	47.6903473182	stim	stop-signal	482	1342277	0.0-19.43-1.43	beast_fmri_test	349	1339583,/,1340263,/,1340944,/,1341623,/,1342301,/	t,t,t,t,t	<img class = center src='/static/experiments/beast_fmri_test/images/V.png'></img>	89,71	2750.0	test	<img class = center src='/static/experiments/beast_fmri_test/images/redV.png'></img>	go	2050.0	2.0	43.0	go	target	V	89,Middle Finger	71,Index Finger	700.0	650.0	2050.0	2100.0	1.0	700.0	1.0	n/a	ITI
214119	500	n/a	-1	-1	500	0.0	fixation	poldrack-single-stim	483	1342869	0.0-19.44-0.44	beast_fmri_test	349	n/a	n/a	<div class = centerbox2><div class = fixation>+</div></div>	none	500.0	test	n/a	n/a	n/a	n/a	n/a	n/a	n/a	n/a	n/a	n/a	n/a	n/a	n/a	n/a	n/a	n/a	n/a	n/a	fixation
212729.25633693999	2750	n/a	1158	71	2750	1391.74366306	stim	stop-signal	484	1345621	0.0-19.44-1.44	beast_fmri_test	349	1342983,/,1343661,/,1344342,/,1345022,/,1345701,/,1346381,/	t,t,t,t,t,t	<img class = center src='/static/experiments/beast_fmri_test/images/P.png'></img>	89,71	2750.0	test	<img class = center src='/static/experiments/beast_fmri_test/images/redP.png'></img>	go	2100.0	2.0	44.0	go	non-target	P	89,Middle Finger	71,Index Finger	700.0	650.0	2050.0	2100.0	1.0	650.0	1.0	n/a	go_stim
215479.25633693999	1391.7436630600778	n/a	1158	71	2750	1391.74366306	stim	stop-signal	484	1345621	0.0-19.44-1.44	beast_fmri_test	349	1342983,/,1343661,/,1344342,/,1345022,/,1345701,/,1346381,/	t,t,t,t,t,t	<img class = center src='/static/experiments/beast_fmri_test/images/P.png'></img>	89,71	2750.0	test	<img class = center src='/static/experiments/beast_fmri_test/images/redP.png'></img>	go	2100.0	2.0	44.0	go	non-target	P	89,Middle Finger	71,Index Finger	700.0	650.0	2050.0	2100.0	1.0	650.0	1.0	n/a	ITI
218814	500	n/a	-1	-1	500	0.0	fixation	poldrack-single-stim	485	1347564	0.0-19.45-0.45	beast_fmri_test	349	1347063,/	t	<div class = centerbox2><div class = fixation>+</div></div>	none	500.0	test	n/a	n/a	n/a	n/a	n/a	n/a	n/a	n/a	n/a	n/a	n/a	n/a	n/a	n/a	n/a	n/a	n/a	n/a	fixation
218541.60967563698	700.0	n/a	-1	-1	2750	273.390324363	stim	stop-signal	486	1350315	0.0-19.45-1.45	beast_fmri_test	349	1347742,/,1348419,/,1349102,/,1349779,/,1350460,/	t,t,t,t,t	<img class = center src='/static/experiments/beast_fmri_test/images/V.png'></img>	89,71	2750.0	test	<img class = center src='/static/experiments/beast_fmri_test/images/redV.png'></img>	stop	2050.0	2.0	45.0	stop	target	V	89,Middle Finger	71,Index Finger	700.0	650.0	2050.0	2100.0	0.0	700.0	n/a	1.0	go_stim
220591.60967563698	2050.0	n/a	-1	-1	2750	273.390324363	stim	stop-signal	486	1350315	0.0-19.45-1.45	beast_fmri_test	349	1347742,/,1348419,/,1349102,/,1349779,/,1350460,/	t,t,t,t,t	<img class = center src='/static/experiments/beast_fmri_test/images/V.png'></img>	89,71	2750.0	test	<img class = center src='/static/experiments/beast_fmri_test/images/redV.png'></img>	stop	2050.0	2.0	45.0	stop	target	V	89,Middle Finger	71,Index Finger	700.0	650.0	2050.0	2100.0	0.0	700.0	n/a	1.0	stop_stim
221291.60967563698	273.39032436298442	n/a	-1	-1	2750	273.390324363	stim	stop-signal	486	1350315	0.0-19.45-1.45	beast_fmri_test	349	1347742,/,1348419,/,1349102,/,1349779,/,1350460,/	t,t,t,t,t	<img class = center src='/static/experiments/beast_fmri_test/images/V.png'></img>	89,71	2750.0	test	<img class = center src='/static/experiments/beast_fmri_test/images/redV.png'></img>	stop	2050.0	2.0	45.0	stop	target	V	89,Middle Finger	71,Index Finger	700.0	650.0	2050.0	2100.0	0.0	700.0	n/a	1.0	ITI
222388	500	n/a	-1	-1	500	0.0	fixation	poldrack-single-stim	487	1351138	0.0-19.46-0.46	beast_fmri_test	349	n/a	n/a	<div class = centerbox2><div class = fixation>+</div></div>	none	500.0	test	n/a	n/a	n/a	n/a	n/a	n/a	n/a	n/a	n/a	n/a	n/a	n/a	n/a	n/a	n/a	n/a	n/a	n/a	fixation
221123.79386111093	650.0	n/a	-1	-1	2750	1265.20613889	stim	stop-signal	488	1353889	0.0-19.46-1.46	beast_fmri_test	349	1351139,/,1351818,/,1352498,/,1353179,/,1353858,/,1354539,/	t,t,t,t,t,t	<img class = center src='/static/experiments/beast_fmri_test/images/T.png'></img>	89,71	2750.0	test	<img class = center src='/static/experiments/beast_fmri_test/images/redT.png'></img>	stop	2100.0	2.0	46.0	stop	non-target	T	89,Middle Finger	71,Index Finger	750.0	650.0	2050.0	2100.0	0.0	650.0	n/a	1.0	go_stim
223223.79386111093	2100.0	n/a	-1	-1	2750	1265.20613889	stim	stop-signal	488	1353889	0.0-19.46-1.46	beast_fmri_test	349	1351139,/,1351818,/,1352498,/,1353179,/,1353858,/,1354539,/	t,t,t,t,t,t	<img class = center src='/static/experiments/beast_fmri_test/images/T.png'></img>	89,71	2750.0	test	<img class = center src='/static/experiments/beast_fmri_test/images/redT.png'></img>	stop	2100.0	2.0	46.0	stop	non-target	T	89,Middle Finger	71,Index Finger	750.0	650.0	2050.0	2100.0	0.0	650.0	n/a	1.0	stop_stim
223873.79386111093	1265.2061388891209	n/a	-1	-1	2750	1265.20613889	stim	stop-signal	488	1353889	0.0-19.46-1.46	beast_fmri_test	349	1351139,/,1351818,/,1352498,/,1353179,/,1353858,/,1354539,/	t,t,t,t,t,t	<img class = center src='/static/experiments/beast_fmri_test/images/T.png'></img>	89,71	2750.0	test	<img class = center src='/static/experiments/beast_fmri_test/images/redT.png'></img>	stop	2100.0	2.0	46.0	stop	non-target	T	89,Middle Finger	71,Index Finger	750.0	650.0	2050.0	2100.0	0.0	650.0	n/a	1.0	ITI
241446	15000	n/a	-1	-1	15000	0.0	practice-no-stop-feedback	poldrack-single-stim	489	1370196	0.0-20.0	beast_fmri_test	349	1355217,/,1355897,/,1356577,/,1357256,/,1357936,/,1358616,/,1359296,/,1359975,/,1360655,/,1361334,/,1362015,/,1362694,/,1363374,/,1364053,/,1364734,/,1365413,/,1366092,/,1366771,/,1367452,/,1368132,/,1368810,/,1369491,/,1370169,/	t,t,t,t,t,t,t,t,t,t,t,t,t,t,t,t,t,t,t,t,t,t,t	"<div class = ""centerbox""><p class = ""block-text"">Your delay is 2 trials.</p><p class = block-text>Please wait for the scanner to start the block</p></div>"	77	15000.0	n/a	n/a	n/a	n/a	n/a	n/a	n/a	n/a	n/a	n/a	n/a	n/a	n/a	n/a	n/a	n/a	n/a	n/a	n/a	practice-no-stop-feedback
241949	500	n/a	-1	-1	500	0.0	fixation	poldrack-single-stim	490	1370699	0.0-21.0-0.0	beast_fmri_test	349	n/a	n/a	<div class = centerbox2><div class = fixation>+</div></div>	none	500.0	test	n/a	n/a	n/a	n/a	n/a	n/a	n/a	n/a	n/a	n/a	n/a	n/a	n/a	n/a	n/a	n/a	n/a	n/a	fixation
241736.32963815331	2750	n/a	1469	71	2750	214.670361847	stim	stop-signal	491	1373451	0.0-21.0-1.0	beast_fmri_test	349	1370850,/,1371529,/,1372210,/,1372888,/,1373568,/	t,t,t,t,t	<img class = center src='/static/experiments/beast_fmri_test/images/B.png'></img>	89,71	2750.0	test	<img class = center src='/static/experiments/beast_fmri_test/images/redB.png'></img>	go	-1.0	2.0	0.0	go	temp-non-target	B	89,Middle Finger	71,Index Finger	750.0	700.0	2050.0	2100.0	0.0	n/a	n/a	n/a	go_stim
244486.32963815331	214.67036184669846	n/a	1469	71	2750	214.670361847	stim	stop-signal	491	1373451	0.0-21.0-1.0	beast_fmri_test	349	1370850,/,1371529,/,1372210,/,1372888,/,1373568,/	t,t,t,t,t	<img class = center src='/static/experiments/beast_fmri_test/images/B.png'></img>	89,71	2750.0	test	<img class = center src='/static/experiments/beast_fmri_test/images/redB.png'></img>	go	-1.0	2.0	0.0	go	temp-non-target	B	89,Middle Finger	71,Index Finger	750.0	700.0	2050.0	2100.0	0.0	n/a	n/a	n/a	ITI
245464	500	n/a	-1	-1	500	0.0	fixation	poldrack-single-stim	492	1374214	0.0-21.1-0.1	beast_fmri_test	349	n/a	n/a	<div class = centerbox2><div class = fixation>+</div></div>	none	500.0	test	n/a	n/a	n/a	n/a	n/a	n/a	n/a	n/a	n/a	n/a	n/a	n/a	n/a	n/a	n/a	n/a	n/a	n/a	fixation
245243.75674840645	temp_go_duration	n/a	1155	71	2750	222.243251594	stim	stop-signal	493	1376966	0.0-21.1-1.1	beast_fmri_test	349	1374248,/,1374929,/,1375608,/,1376286,/,1376968,/	t,t,t,t,t	<img class = center src='/static/experiments/beast_fmri_test/images/D.png'></img>	89,71	2750.0	test	<img class = center src='/static/experiments/beast_fmri_test/images/redD.png'></img>	stop	-1.0	2.0	1.0	stop	temp-non-target	D	89,Middle Finger	71,Index Finger	750.0	700.0	2050.0	2100.0	0.0	n/a	n/a	0.0	go_stim
temp-non-target	temp_stop_duration	n/a	1155	71	2750	222.243251594	stim	stop-signal	493	1376966	0.0-21.1-1.1	beast_fmri_test	349	1374248,/,1374929,/,1375608,/,1376286,/,1376968,/	t,t,t,t,t	<img class = center src='/static/experiments/beast_fmri_test/images/D.png'></img>	89,71	2750.0	test	<img class = center src='/static/experiments/beast_fmri_test/images/redD.png'></img>	stop	-1.0	2.0	1.0	stop	temp-non-target	D	89,Middle Finger	71,Index Finger	750.0	700.0	2050.0	2100.0	0.0	n/a	n/a	0.0	stop_stim
247993.75674840645	222.24325159350772	n/a	1155	71	2750	222.243251594	stim	stop-signal	493	1376966	0.0-21.1-1.1	beast_fmri_test	349	1374248,/,1374929,/,1375608,/,1376286,/,1376968,/	t,t,t,t,t	<img class = center src='/static/experiments/beast_fmri_test/images/D.png'></img>	89,71	2750.0	test	<img class = center src='/static/experiments/beast_fmri_test/images/redD.png'></img>	stop	-1.0	2.0	1.0	stop	temp-non-target	D	89,Middle Finger	71,Index Finger	750.0	700.0	2050.0	2100.0	0.0	n/a	n/a	0.0	ITI
248987	500	n/a	-1	-1	500	0.0	fixation	poldrack-single-stim	494	1377737	0.0-21.2-0.2	beast_fmri_test	349	1377647,/	t	<div class = centerbox2><div class = fixation>+</div></div>	none	500.0	test	n/a	n/a	n/a	n/a	n/a	n/a	n/a	n/a	n/a	n/a	n/a	n/a	n/a	n/a	n/a	n/a	n/a	n/a	fixation
247308.75501489779	2750	n/a	904	89	2750	1679.2449851	stim	stop-signal	495	1380488	0.0-21.2-1.2	beast_fmri_test	349	1378327,/,1379008,/,1379687,/,1380365,/,1381046,/,1381725,/	t,t,t,t,t,t	<img class = center src='/static/experiments/beast_fmri_test/images/B.png'></img>	89,71	2750.0	test	<img class = center src='/static/experiments/beast_fmri_test/images/redB.png'></img>	go	2000.0	2.0	2.0	go	target	B	89,Middle Finger	71,Index Finger	750.0	700.0	2000.0	2100.0	1.0	750.0	1.0	n/a	go_stim
250058.75501489779	1679.2449851022257	n/a	904	89	2750	1679.2449851	stim	stop-signal	495	1380488	0.0-21.2-1.2	beast_fmri_test	349	1378327,/,1379008,/,1379687,/,1380365,/,1381046,/,1381725,/	t,t,t,t,t,t	<img class = center src='/static/experiments/beast_fmri_test/images/B.png'></img>	89,71	2750.0	test	<img class = center src='/static/experiments/beast_fmri_test/images/redB.png'></img>	go	2000.0	2.0	2.0	go	target	B	89,Middle Finger	71,Index Finger	750.0	700.0	2000.0	2100.0	1.0	750.0	1.0	n/a	ITI
253967	500	n/a	-1	-1	500	0.0	fixation	poldrack-single-stim	496	1382717	0.0-21.3-0.3	beast_fmri_test	349	1382406,/	t	<div class = centerbox2><div class = fixation>+</div></div>	none	500.0	test	n/a	n/a	n/a	n/a	n/a	n/a	n/a	n/a	n/a	n/a	n/a	n/a	n/a	n/a	n/a	n/a	n/a	n/a	fixation
253931.0439787975	750.0	n/a	-1	-1	2750	37.9560212025	stim	stop-signal	497	1385469	0.0-21.3-1.3	beast_fmri_test	349	1383084,/,1383765,/,1384443,/,1385124,/	t,t,t,t	<img class = center src='/static/experiments/beast_fmri_test/images/D.png'></img>	89,71	2750.0	test	<img class = center src='/static/experiments/beast_fmri_test/images/redD.png'></img>	stop	2000.0	2.0	3.0	stop	target	D	89,Middle Finger	71,Index Finger	750.0	700.0	2000.0	2100.0	0.0	750.0	n/a	1.0	go_stim
255931.0439787975	2000.0	n/a	-1	-1	2750	37.9560212025	stim	stop-signal	497	1385469	0.0-21.3-1.3	beast_fmri_test	349	1383084,/,1383765,/,1384443,/,1385124,/	t,t,t,t	<img class = center src='/static/experiments/beast_fmri_test/images/D.png'></img>	89,71	2750.0	test	<img class = center src='/static/experiments/beast_fmri_test/images/redD.png'></img>	stop	2000.0	2.0	3.0	stop	target	D	89,Middle Finger	71,Index Finger	750.0	700.0	2000.0	2100.0	0.0	750.0	n/a	1.0	stop_stim
256681.0439787975	37.95602120252579	n/a	-1	-1	2750	37.9560212025	stim	stop-signal	497	1385469	0.0-21.3-1.3	beast_fmri_test	349	1383084,/,1383765,/,1384443,/,1385124,/	t,t,t,t	<img class = center src='/static/experiments/beast_fmri_test/images/D.png'></img>	89,71	2750.0	test	<img class = center src='/static/experiments/beast_fmri_test/images/redD.png'></img>	stop	2000.0	2.0	3.0	stop	target	D	89,Middle Finger	71,Index Finger	750.0	700.0	2000.0	2100.0	0.0	750.0	n/a	1.0	ITI
257317	500	n/a	-1	-1	500	0.0	fixation	poldrack-single-stim	498	1386067	0.0-21.4-0.4	beast_fmri_test	349	1385804,/	t	<div class = centerbox2><div class = fixation>+</div></div>	none	500.0	test	n/a	n/a	n/a	n/a	n/a	n/a	n/a	n/a	n/a	n/a	n/a	n/a	n/a	n/a	n/a	n/a	n/a	n/a	fixation
255141.92848519981	2750	n/a	1054	71	2750	2177.0715148	stim	stop-signal	499	1388819	0.0-21.4-1.4	beast_fmri_test	349	1386484,/,1387162,/,1387843,/,1388523,/,1389202,/,1389882,/,1390560,/	t,t,t,t,t,t,t	<img class = center src='/static/experiments/beast_fmri_test/images/P.png'></img>	89,71	2750.0	test	<img class = center src='/static/experiments/beast_fmri_test/images/redP.png'></img>	go	2050.0	2.0	4.0	go	non-target	P	89,Middle Finger	71,Index Finger	800.0	700.0	2000.0	2050.0	1.0	700.0	1.0	n/a	go_stim
257891.92848519981	2177.0715148001186	n/a	1054	71	2750	2177.0715148	stim	stop-signal	499	1388819	0.0-21.4-1.4	beast_fmri_test	349	1386484,/,1387162,/,1387843,/,1388523,/,1389202,/,1389882,/,1390560,/	t,t,t,t,t,t,t	<img class = center src='/static/experiments/beast_fmri_test/images/P.png'></img>	89,71	2750.0	test	<img class = center src='/static/experiments/beast_fmri_test/images/redP.png'></img>	go	2050.0	2.0	4.0	go	non-target	P	89,Middle Finger	71,Index Finger	800.0	700.0	2000.0	2050.0	1.0	700.0	1.0	n/a	ITI
262809	500	n/a	-1	-1	500	0.0	fixation	poldrack-single-stim	500	1391559	0.0-21.5-0.5	beast_fmri_test	349	1391242,/	t	<div class = centerbox2><div class = fixation>+</div></div>	none	500.0	test	n/a	n/a	n/a	n/a	n/a	n/a	n/a	n/a	n/a	n/a	n/a	n/a	n/a	n/a	n/a	n/a	n/a	n/a	fixation
261858.84385871235	700.0	n/a	-1	-1	2750	952.156141288	stim	stop-signal	501	1394311	0.0-21.5-1.5	beast_fmri_test	349	1391920,/,1392600,/,1393279,/,1393960,/,1394638,/	t,t,t,t,t	<img class = center src='/static/experiments/beast_fmri_test/images/T.png'></img>	89,71	2750.0	test	<img class = center src='/static/experiments/beast_fmri_test/images/redT.png'></img>	stop	2050.0	2.0	5.0	stop	non-target	T	89,Middle Finger	71,Index Finger	800.0	700.0	2000.0	2050.0	0.0	700.0	n/a	1.0	go_stim
263908.84385871235	2050.0	n/a	-1	-1	2750	952.156141288	stim	stop-signal	501	1394311	0.0-21.5-1.5	beast_fmri_test	349	1391920,/,1392600,/,1393279,/,1393960,/,1394638,/	t,t,t,t,t	<img class = center src='/static/experiments/beast_fmri_test/images/T.png'></img>	89,71	2750.0	test	<img class = center src='/static/experiments/beast_fmri_test/images/redT.png'></img>	stop	2050.0	2.0	5.0	stop	non-target	T	89,Middle Finger	71,Index Finger	800.0	700.0	2000.0	2050.0	0.0	700.0	n/a	1.0	stop_stim
264608.84385871235	952.15614128757284	n/a	-1	-1	2750	952.156141288	stim	stop-signal	501	1394311	0.0-21.5-1.5	beast_fmri_test	349	1391920,/,1392600,/,1393279,/,1393960,/,1394638,/	t,t,t,t,t	<img class = center src='/static/experiments/beast_fmri_test/images/T.png'></img>	89,71	2750.0	test	<img class = center src='/static/experiments/beast_fmri_test/images/redT.png'></img>	stop	2050.0	2.0	5.0	stop	non-target	T	89,Middle Finger	71,Index Finger	800.0	700.0	2000.0	2050.0	0.0	700.0	n/a	1.0	ITI
267065	500	n/a	-1	-1	500	0.0	fixation	poldrack-single-stim	502	1395815	0.0-21.6-0.6	beast_fmri_test	349	1395318,/	t	<div class = centerbox2><div class = fixation>+</div></div>	none	500.0	test	n/a	n/a	n/a	n/a	n/a	n/a	n/a	n/a	n/a	n/a	n/a	n/a	n/a	n/a	n/a	n/a	n/a	n/a	fixation
266762.57368327305	750.0	n/a	-1	-1	2750	304.426316727	stim	stop-signal	503	1398567	0.0-21.6-1.6	beast_fmri_test	349	1395999,/,1396679,/,1397358,/,1398038,/,1398716,/	t,t,t,t,t	<img class = center src='/static/experiments/beast_fmri_test/images/B.png'></img>	89,71	2750.0	test	<img class = center src='/static/experiments/beast_fmri_test/images/redB.png'></img>	stop	2000.0	2.0	6.0	stop	non-target	B	89,Middle Finger	71,Index Finger	800.0	750.0	2000.0	2000.0	0.0	750.0	n/a	1.0	go_stim
268762.57368327305	2000.0	n/a	-1	-1	2750	304.426316727	stim	stop-signal	503	1398567	0.0-21.6-1.6	beast_fmri_test	349	1395999,/,1396679,/,1397358,/,1398038,/,1398716,/	t,t,t,t,t	<img class = center src='/static/experiments/beast_fmri_test/images/B.png'></img>	89,71	2750.0	test	<img class = center src='/static/experiments/beast_fmri_test/images/redB.png'></img>	stop	2000.0	2.0	6.0	stop	non-target	B	89,Middle Finger	71,Index Finger	800.0	750.0	2000.0	2000.0	0.0	750.0	n/a	1.0	stop_stim
269512.57368327305	304.42631672685405	n/a	-1	-1	2750	304.426316727	stim	stop-signal	503	1398567	0.0-21.6-1.6	beast_fmri_test	349	1395999,/,1396679,/,1397358,/,1398038,/,1398716,/	t,t,t,t,t	<img class = center src='/static/experiments/beast_fmri_test/images/B.png'></img>	89,71	2750.0	test	<img class = center src='/static/experiments/beast_fmri_test/images/redB.png'></img>	stop	2000.0	2.0	6.0	stop	non-target	B	89,Middle Finger	71,Index Finger	800.0	750.0	2000.0	2000.0	0.0	750.0	n/a	1.0	ITI
270675	500	n/a	-1	-1	500	0.0	fixation	poldrack-single-stim	504	1399425	0.0-21.7-0.7	beast_fmri_test	349	1399396,/	t	<div class = centerbox2><div class = fixation>+</div></div>	none	500.0	test	n/a	n/a	n/a	n/a	n/a	n/a	n/a	n/a	n/a	n/a	n/a	n/a	n/a	n/a	n/a	n/a	n/a	n/a	fixation
270611.73317054147	2750	n/a	1408	89	2750	65.2668294585	stim	stop-signal	505	1402177	0.0-21.7-1.7	beast_fmri_test	349	1400077,/,1400755,/,1401436,/,1402115,/	t,t,t,t	<img class = center src='/static/experiments/beast_fmri_test/images/T.png'></img>	89,71	2750.0	test	<img class = center src='/static/experiments/beast_fmri_test/images/redT.png'></img>	go	1950.0	2.0	7.0	go	target	T	89,Middle Finger	71,Index Finger	800.0	800.0	1950.0	2000.0	1.0	800.0	1.0	n/a	go_stim
273361.73317054147	65.266829458484779	n/a	1408	89	2750	65.2668294585	stim	stop-signal	505	1402177	0.0-21.7-1.7	beast_fmri_test	349	1400077,/,1400755,/,1401436,/,1402115,/	t,t,t,t	<img class = center src='/static/experiments/beast_fmri_test/images/T.png'></img>	89,71	2750.0	test	<img class = center src='/static/experiments/beast_fmri_test/images/redT.png'></img>	go	1950.0	2.0	7.0	go	target	T	89,Middle Finger	71,Index Finger	800.0	800.0	1950.0	2000.0	1.0	800.0	1.0	n/a	ITI
274046	500	n/a	-1	-1	500	0.0	fixation	poldrack-single-stim	506	1402796	0.0-21.8-0.8	beast_fmri_test	349	1402796,/	t	<div class = centerbox2><div class = fixation>+</div></div>	none	500.0	test	n/a	n/a	n/a	n/a	n/a	n/a	n/a	n/a	n/a	n/a	n/a	n/a	n/a	n/a	n/a	n/a	n/a	n/a	fixation
273925.9166782191	2750	n/a	2028	71	2750	122.083321781	stim	stop-signal	507	1405548	0.0-21.8-1.8	beast_fmri_test	349	1403474,/,1404155,/,1404833,/,1405513,/	t,t,t,t	<img class = center src='/static/experiments/beast_fmri_test/images/D.png'></img>	89,71	2750.0	test	<img class = center src='/static/experiments/beast_fmri_test/images/redD.png'></img>	go	1950.0	2.0	8.0	go	non-target	D	89,Middle Finger	71,Index Finger	800.0	800.0	1950.0	1950.0	1.0	800.0	1.0	n/a	go_stim
276675.9166782191	122.08332178096843	n/a	2028	71	2750	122.083321781	stim	stop-signal	507	1405548	0.0-21.8-1.8	beast_fmri_test	349	1403474,/,1404155,/,1404833,/,1405513,/	t,t,t,t	<img class = center src='/static/experiments/beast_fmri_test/images/D.png'></img>	89,71	2750.0	test	<img class = center src='/static/experiments/beast_fmri_test/images/redD.png'></img>	go	1950.0	2.0	8.0	go	non-target	D	89,Middle Finger	71,Index Finger	800.0	800.0	1950.0	1950.0	1.0	800.0	1.0	n/a	ITI
277477	500	n/a	-1	-1	500	0.0	fixation	poldrack-single-stim	508	1406227	0.0-21.9-0.9	beast_fmri_test	349	1406195,/	t	<div class = centerbox2><div class = fixation>+</div></div>	none	500.0	test	n/a	n/a	n/a	n/a	n/a	n/a	n/a	n/a	n/a	n/a	n/a	n/a	n/a	n/a	n/a	n/a	n/a	n/a	fixation
276448.87062801025	800.0	n/a	-1	-1	2750	1031.12937199	stim	stop-signal	509	1408980	0.0-21.9-1.9	beast_fmri_test	349	1406872,/,1407553,/,1408232,/,1408913,/,1409592,/	t,t,t,t,t	<img class = center src='/static/experiments/beast_fmri_test/images/P.png'></img>	89,71	2750.0	test	<img class = center src='/static/experiments/beast_fmri_test/images/redP.png'></img>	stop	1950.0	2.0	9.0	stop	non-target	P	89,Middle Finger	71,Index Finger	800.0	800.0	1950.0	1950.0	0.0	800.0	n/a	1.0	go_stim
278398.87062801025	1950.0	n/a	-1	-1	2750	1031.12937199	stim	stop-signal	509	1408980	0.0-21.9-1.9	beast_fmri_test	349	1406872,/,1407553,/,1408232,/,1408913,/,1409592,/	t,t,t,t,t	<img class = center src='/static/experiments/beast_fmri_test/images/P.png'></img>	89,71	2750.0	test	<img class = center src='/static/experiments/beast_fmri_test/images/redP.png'></img>	stop	1950.0	2.0	9.0	stop	non-target	P	89,Middle Finger	71,Index Finger	800.0	800.0	1950.0	1950.0	0.0	800.0	n/a	1.0	stop_stim
279198.87062801025	1031.1293719896657	n/a	-1	-1	2750	1031.12937199	stim	stop-signal	509	1408980	0.0-21.9-1.9	beast_fmri_test	349	1406872,/,1407553,/,1408232,/,1408913,/,1409592,/	t,t,t,t,t	<img class = center src='/static/experiments/beast_fmri_test/images/P.png'></img>	89,71	2750.0	test	<img class = center src='/static/experiments/beast_fmri_test/images/redP.png'></img>	stop	1950.0	2.0	9.0	stop	non-target	P	89,Middle Finger	71,Index Finger	800.0	800.0	1950.0	1950.0	0.0	800.0	n/a	1.0	ITI
281817	500	n/a	-1	-1	500	0.0	fixation	poldrack-single-stim	510	1410567	0.0-21.10-0.10	beast_fmri_test	349	1410273,/	t	<div class = centerbox2><div class = fixation>+</div></div>	none	500.0	test	n/a	n/a	n/a	n/a	n/a	n/a	n/a	n/a	n/a	n/a	n/a	n/a	n/a	n/a	n/a	n/a	n/a	n/a	fixation
280443.1357252833	2750	n/a	1938	71	2750	1375.86427472	stim	stop-signal	511	1413319	0.0-21.10-1.10	beast_fmri_test	349	1410953,/,1411632,/,1412311,/,1412991,/,1413671,/,1414351,/	t,t,t,t,t,t	<img class = center src='/static/experiments/beast_fmri_test/images/P.png'></img>	89,71	2750.0	test	<img class = center src='/static/experiments/beast_fmri_test/images/redP.png'></img>	go	1900.0	2.0	10.0	go	non-target	P	89,Middle Finger	71,Index Finger	800.0	850.0	1950.0	1900.0	1.0	850.0	1.0	n/a	go_stim
283193.1357252833	1375.8642747167944	n/a	1938	71	2750	1375.86427472	stim	stop-signal	511	1413319	0.0-21.10-1.10	beast_fmri_test	349	1410953,/,1411632,/,1412311,/,1412991,/,1413671,/,1414351,/	t,t,t,t,t,t	<img class = center src='/static/experiments/beast_fmri_test/images/P.png'></img>	89,71	2750.0	test	<img class = center src='/static/experiments/beast_fmri_test/images/redP.png'></img>	go	1900.0	2.0	10.0	go	non-target	P	89,Middle Finger	71,Index Finger	800.0	850.0	1950.0	1900.0	1.0	850.0	1.0	n/a	ITI
286499	500	n/a	-1	-1	500	0.0	fixation	poldrack-single-stim	512	1415249	0.0-21.11-0.11	beast_fmri_test	349	1415031,/	t	<div class = centerbox2><div class = fixation>+</div></div>	none	500.0	test	n/a	n/a	n/a	n/a	n/a	n/a	n/a	n/a	n/a	n/a	n/a	n/a	n/a	n/a	n/a	n/a	n/a	n/a	fixation
286335.50514282566	850.0	n/a	959	71	2750	165.494857174	stim	stop-signal	513	1418001	0.0-21.11-1.11	beast_fmri_test	349	1415710,/,1416390,/,1417068,/,1417749,/	t,t,t,t	<img class = center src='/static/experiments/beast_fmri_test/images/D.png'></img>	89,71	2750.0	test	<img class = center src='/static/experiments/beast_fmri_test/images/redD.png'></img>	stop	1900.0	2.0	11.0	stop	non-target	D	89,Middle Finger	71,Index Finger	800.0	850.0	1950.0	1900.0	0.0	850.0	n/a	0.0	go_stim
288235.50514282566	1900.0	n/a	959	71	2750	165.494857174	stim	stop-signal	513	1418001	0.0-21.11-1.11	beast_fmri_test	349	1415710,/,1416390,/,1417068,/,1417749,/	t,t,t,t	<img class = center src='/static/experiments/beast_fmri_test/images/D.png'></img>	89,71	2750.0	test	<img class = center src='/static/experiments/beast_fmri_test/images/redD.png'></img>	stop	1900.0	2.0	11.0	stop	non-target	D	89,Middle Finger	71,Index Finger	800.0	850.0	1950.0	1900.0	0.0	850.0	n/a	0.0	stop_stim
289085.50514282566	165.49485717443545	n/a	959	71	2750	165.494857174	stim	stop-signal	513	1418001	0.0-21.11-1.11	beast_fmri_test	349	1415710,/,1416390,/,1417068,/,1417749,/	t,t,t,t	<img class = center src='/static/experiments/beast_fmri_test/images/D.png'></img>	89,71	2750.0	test	<img class = center src='/static/experiments/beast_fmri_test/images/redD.png'></img>	stop	1900.0	2.0	11.0	stop	non-target	D	89,Middle Finger	71,Index Finger	800.0	850.0	1950.0	1900.0	0.0	850.0	n/a	0.0	ITI
289972	500	n/a	-1	-1	500	0.0	fixation	poldrack-single-stim	514	1418722	0.0-21.12-0.12	beast_fmri_test	349	1418427,/	t	<div class = centerbox2><div class = fixation>+</div></div>	none	500.0	test	n/a	n/a	n/a	n/a	n/a	n/a	n/a	n/a	n/a	n/a	n/a	n/a	n/a	n/a	n/a	n/a	n/a	n/a	fixation
287913.03615567228	2750	n/a	1856	89	2750	2060.96384433	stim	stop-signal	515	1421474	0.0-21.12-1.12	beast_fmri_test	349	1419109,/,1419787,/,1420466,/,1421147,/,1421827,/,1422506,/,1423185,/	t,t,t,t,t,t,t	<img class = center src='/static/experiments/beast_fmri_test/images/P.png'></img>	89,71	2750.0	test	<img class = center src='/static/experiments/beast_fmri_test/images/redP.png'></img>	go	1950.0	2.0	12.0	go	target	P	89,Middle Finger	71,Index Finger	800.0	800.0	1950.0	1900.0	1.0	800.0	1.0	n/a	go_stim
290663.03615567228	2060.9638443278109	n/a	1856	89	2750	2060.96384433	stim	stop-signal	515	1421474	0.0-21.12-1.12	beast_fmri_test	349	1419109,/,1419787,/,1420466,/,1421147,/,1421827,/,1422506,/,1423185,/	t,t,t,t,t,t,t	<img class = center src='/static/experiments/beast_fmri_test/images/P.png'></img>	89,71	2750.0	test	<img class = center src='/static/experiments/beast_fmri_test/images/redP.png'></img>	go	1950.0	2.0	12.0	go	target	P	89,Middle Finger	71,Index Finger	800.0	800.0	1950.0	1900.0	1.0	800.0	1.0	n/a	ITI
295338	500	n/a	-1	-1	500	0.0	fixation	poldrack-single-stim	516	1424088	0.0-21.13-0.13	beast_fmri_test	349	1423865,/	t	<div class = centerbox2><div class = fixation>+</div></div>	none	500.0	test	n/a	n/a	n/a	n/a	n/a	n/a	n/a	n/a	n/a	n/a	n/a	n/a	n/a	n/a	n/a	n/a	n/a	n/a	fixation
295117.84805994923	2750	n/a	1529	89	2750	222.151940051	stim	stop-signal	517	1426840	0.0-21.13-1.13	beast_fmri_test	349	1424545,/,1425225,/,1425905,/,1426585,/	t,t,t,t	<img class = center src='/static/experiments/beast_fmri_test/images/D.png'></img>	89,71	2750.0	test	<img class = center src='/static/experiments/beast_fmri_test/images/redD.png'></img>	go	1950.0	2.0	13.0	go	target	D	89,Middle Finger	71,Index Finger	800.0	800.0	1950.0	1900.0	1.0	800.0	1.0	n/a	go_stim
297867.84805994923	222.15194005085726	n/a	1529	89	2750	222.151940051	stim	stop-signal	517	1426840	0.0-21.13-1.13	beast_fmri_test	349	1424545,/,1425225,/,1425905,/,1426585,/	t,t,t,t	<img class = center src='/static/experiments/beast_fmri_test/images/D.png'></img>	89,71	2750.0	test	<img class = center src='/static/experiments/beast_fmri_test/images/redD.png'></img>	go	1950.0	2.0	13.0	go	target	D	89,Middle Finger	71,Index Finger	800.0	800.0	1950.0	1900.0	1.0	800.0	1.0	n/a	ITI
298871	500	n/a	-1	-1	500	0.0	fixation	poldrack-single-stim	518	1427621	0.0-21.14-0.14	beast_fmri_test	349	1427263,/	t	<div class = centerbox2><div class = fixation>+</div></div>	none	500.0	test	n/a	n/a	n/a	n/a	n/a	n/a	n/a	n/a	n/a	n/a	n/a	n/a	n/a	n/a	n/a	n/a	n/a	n/a	fixation
296133.16670883284	800.0	n/a	-1	-1	2750	2739.83329117	stim	stop-signal	519	1430373	0.0-21.14-1.14	beast_fmri_test	349	1427944,/,1428622,/,1429303,/,1429982,/,1430663,/,1431342,/,1432022,/,1432701,/	t,t,t,t,t,t,t,t	<img class = center src='/static/experiments/beast_fmri_test/images/T.png'></img>	89,71	2750.0	test	<img class = center src='/static/experiments/beast_fmri_test/images/redT.png'></img>	stop	1950.0	2.0	14.0	stop	non-target	T	89,Middle Finger	71,Index Finger	800.0	800.0	1950.0	1950.0	0.0	800.0	n/a	1.0	go_stim
298083.16670883284	1950.0	n/a	-1	-1	2750	2739.83329117	stim	stop-signal	519	1430373	0.0-21.14-1.14	beast_fmri_test	349	1427944,/,1428622,/,1429303,/,1429982,/,1430663,/,1431342,/,1432022,/,1432701,/	t,t,t,t,t,t,t,t	<img class = center src='/static/experiments/beast_fmri_test/images/T.png'></img>	89,71	2750.0	test	<img class = center src='/static/experiments/beast_fmri_test/images/redT.png'></img>	stop	1950.0	2.0	14.0	stop	non-target	T	89,Middle Finger	71,Index Finger	800.0	800.0	1950.0	1950.0	0.0	800.0	n/a	1.0	stop_stim
298883.16670883284	2739.8332911671914	n/a	-1	-1	2750	2739.83329117	stim	stop-signal	519	1430373	0.0-21.14-1.14	beast_fmri_test	349	1427944,/,1428622,/,1429303,/,1429982,/,1430663,/,1431342,/,1432022,/,1432701,/	t,t,t,t,t,t,t,t	<img class = center src='/static/experiments/beast_fmri_test/images/T.png'></img>	89,71	2750.0	test	<img class = center src='/static/experiments/beast_fmri_test/images/redT.png'></img>	stop	1950.0	2.0	14.0	stop	non-target	T	89,Middle Finger	71,Index Finger	800.0	800.0	1950.0	1950.0	0.0	800.0	n/a	1.0	ITI
304918	500	n/a	-1	-1	500	0.0	fixation	poldrack-single-stim	520	1433668	0.0-21.15-0.15	beast_fmri_test	349	1433381,/	t	<div class = centerbox2><div class = fixation>+</div></div>	none	500.0	test	n/a	n/a	n/a	n/a	n/a	n/a	n/a	n/a	n/a	n/a	n/a	n/a	n/a	n/a	n/a	n/a	n/a	n/a	fixation
303793.19151401822	2750	n/a	1651	89	2750	1126.80848598	stim	stop-signal	521	1436420	0.0-21.15-1.15	beast_fmri_test	349	1434059,/,1434740,/,1435419,/,1436098,/,1436779,/,1437459,/	t,t,t,t,t,t	<img class = center src='/static/experiments/beast_fmri_test/images/D.png'></img>	89,71	2750.0	test	<img class = center src='/static/experiments/beast_fmri_test/images/redD.png'></img>	go	1950.0	2.0	15.0	go	target	D	89,Middle Finger	71,Index Finger	800.0	850.0	1950.0	1950.0	1.0	800.0	1.0	n/a	go_stim
306543.19151401822	1126.8084859818546	n/a	1651	89	2750	1126.80848598	stim	stop-signal	521	1436420	0.0-21.15-1.15	beast_fmri_test	349	1434059,/,1434740,/,1435419,/,1436098,/,1436779,/,1437459,/	t,t,t,t,t,t	<img class = center src='/static/experiments/beast_fmri_test/images/D.png'></img>	89,71	2750.0	test	<img class = center src='/static/experiments/beast_fmri_test/images/redD.png'></img>	go	1950.0	2.0	15.0	go	target	D	89,Middle Finger	71,Index Finger	800.0	850.0	1950.0	1950.0	1.0	800.0	1.0	n/a	ITI
309354	500	n/a	-1	-1	500	0.0	fixation	poldrack-single-stim	522	1438104	0.0-21.16-0.16	beast_fmri_test	349	n/a	n/a	<div class = centerbox2><div class = fixation>+</div></div>	none	500.0	test	n/a	n/a	n/a	n/a	n/a	n/a	n/a	n/a	n/a	n/a	n/a	n/a	n/a	n/a	n/a	n/a	n/a	n/a	fixation
308881.07548793871	2750	n/a	1116	71	2750	475.924512061	stim	stop-signal	523	1440857	0.0-21.16-1.16	beast_fmri_test	349	1438141,/,1438819,/,1439498,/,1440177,/,1440859,/	t,t,t,t,t	<img class = center src='/static/experiments/beast_fmri_test/images/D.png'></img>	89,71	2750.0	test	<img class = center src='/static/experiments/beast_fmri_test/images/redD.png'></img>	go	1900.0	2.0	16.0	go	non-target	D	89,Middle Finger	71,Index Finger	800.0	850.0	1950.0	1900.0	1.0	850.0	1.0	n/a	go_stim
311631.07548793871	475.92451206130096	n/a	1116	71	2750	475.924512061	stim	stop-signal	523	1440857	0.0-21.16-1.16	beast_fmri_test	349	1438141,/,1438819,/,1439498,/,1440177,/,1440859,/	t,t,t,t,t	<img class = center src='/static/experiments/beast_fmri_test/images/D.png'></img>	89,71	2750.0	test	<img class = center src='/static/experiments/beast_fmri_test/images/redD.png'></img>	go	1900.0	2.0	16.0	go	non-target	D	89,Middle Finger	71,Index Finger	800.0	850.0	1950.0	1900.0	1.0	850.0	1.0	n/a	ITI
313136	500	n/a	-1	-1	500	0.0	fixation	poldrack-single-stim	524	1441886	0.0-21.17-0.17	beast_fmri_test	349	1441537,/	t	<div class = centerbox2><div class = fixation>+</div></div>	none	500.0	test	n/a	n/a	n/a	n/a	n/a	n/a	n/a	n/a	n/a	n/a	n/a	n/a	n/a	n/a	n/a	n/a	n/a	n/a	fixation
312093.68706289469	800.0	n/a	1277	89	2750	1043.31293711	stim	stop-signal	525	1444637	0.0-21.17-1.17	beast_fmri_test	349	1442216,/,1442898,/,1443576,/,1444255,/,1444935,/,1445614,/	t,t,t,t,t,t	<img class = center src='/static/experiments/beast_fmri_test/images/D.png'></img>	89,71	2750.0	test	<img class = center src='/static/experiments/beast_fmri_test/images/redD.png'></img>	stop	1950.0	2.0	17.0	stop	target	D	89,Middle Finger	71,Index Finger	800.0	850.0	1950.0	1900.0	0.0	800.0	n/a	0.0	go_stim
314043.68706289469	1950.0	n/a	1277	89	2750	1043.31293711	stim	stop-signal	525	1444637	0.0-21.17-1.17	beast_fmri_test	349	1442216,/,1442898,/,1443576,/,1444255,/,1444935,/,1445614,/	t,t,t,t,t,t	<img class = center src='/static/experiments/beast_fmri_test/images/D.png'></img>	89,71	2750.0	test	<img class = center src='/static/experiments/beast_fmri_test/images/redD.png'></img>	stop	1950.0	2.0	17.0	stop	target	D	89,Middle Finger	71,Index Finger	800.0	850.0	1950.0	1900.0	0.0	800.0	n/a	0.0	stop_stim
314843.68706289469	1043.312937105261	n/a	1277	89	2750	1043.31293711	stim	stop-signal	525	1444637	0.0-21.17-1.17	beast_fmri_test	349	1442216,/,1442898,/,1443576,/,1444255,/,1444935,/,1445614,/	t,t,t,t,t,t	<img class = center src='/static/experiments/beast_fmri_test/images/D.png'></img>	89,71	2750.0	test	<img class = center src='/static/experiments/beast_fmri_test/images/redD.png'></img>	stop	1950.0	2.0	17.0	stop	target	D	89,Middle Finger	71,Index Finger	800.0	850.0	1950.0	1900.0	0.0	800.0	n/a	0.0	ITI
317478	500	n/a	-1	-1	500	0.0	fixation	poldrack-single-stim	526	1446228	0.0-21.18-0.18	beast_fmri_test	349	n/a	n/a	<div class = centerbox2><div class = fixation>+</div></div>	none	500.0	test	n/a	n/a	n/a	n/a	n/a	n/a	n/a	n/a	n/a	n/a	n/a	n/a	n/a	n/a	n/a	n/a	n/a	n/a	fixation
317344.93113657669	850.0	n/a	-1	-1	2750	135.068863423	stim	stop-signal	527	1448980	0.0-21.18-1.18	beast_fmri_test	349	1446296,/,1446974,/,1447654,/,1448336,/,1449013,/	t,t,t,t,t	<img class = center src='/static/experiments/beast_fmri_test/images/B.png'></img>	89,71	2750.0	test	<img class = center src='/static/experiments/beast_fmri_test/images/redB.png'></img>	stop	1900.0	2.0	18.0	stop	non-target	B	89,Middle Finger	71,Index Finger	750.0	850.0	1950.0	1900.0	0.0	850.0	n/a	1.0	go_stim
319244.93113657669	1900.0	n/a	-1	-1	2750	135.068863423	stim	stop-signal	527	1448980	0.0-21.18-1.18	beast_fmri_test	349	1446296,/,1446974,/,1447654,/,1448336,/,1449013,/	t,t,t,t,t	<img class = center src='/static/experiments/beast_fmri_test/images/B.png'></img>	89,71	2750.0	test	<img class = center src='/static/experiments/beast_fmri_test/images/redB.png'></img>	stop	1900.0	2.0	18.0	stop	non-target	B	89,Middle Finger	71,Index Finger	750.0	850.0	1950.0	1900.0	0.0	850.0	n/a	1.0	stop_stim
320094.93113657669	135.06886342334874	n/a	-1	-1	2750	135.068863423	stim	stop-signal	527	1448980	0.0-21.18-1.18	beast_fmri_test	349	1446296,/,1446974,/,1447654,/,1448336,/,1449013,/	t,t,t,t,t	<img class = center src='/static/experiments/beast_fmri_test/images/B.png'></img>	89,71	2750.0	test	<img class = center src='/static/experiments/beast_fmri_test/images/redB.png'></img>	stop	1900.0	2.0	18.0	stop	non-target	B	89,Middle Finger	71,Index Finger	750.0	850.0	1950.0	1900.0	0.0	850.0	n/a	1.0	ITI
320917	500	n/a	-1	-1	500	0.0	fixation	poldrack-single-stim	528	1449667	0.0-21.19-0.19	beast_fmri_test	349	n/a	n/a	<div class = centerbox2><div class = fixation>+</div></div>	none	500.0	test	n/a	n/a	n/a	n/a	n/a	n/a	n/a	n/a	n/a	n/a	n/a	n/a	n/a	n/a	n/a	n/a	n/a	n/a	fixation
320895.15492521366	2750	n/a	1951	89	2750	22.8450747863	stim	stop-signal	529	1452418	0.0-21.19-1.19	beast_fmri_test	349	1449694,/,1450374,/,1451053,/,1451733,/,1452413,/	t,t,t,t,t	<img class = center src='/static/experiments/beast_fmri_test/images/D.png'></img>	89,71	2750.0	test	<img class = center src='/static/experiments/beast_fmri_test/images/redD.png'></img>	go	2000.0	2.0	19.0	go	target	D	89,Middle Finger	71,Index Finger	750.0	900.0	2000.0	1900.0	1.0	750.0	1.0	n/a	go_stim
323645.15492521366	22.845074786285519	n/a	1951	89	2750	22.8450747863	stim	stop-signal	529	1452418	0.0-21.19-1.19	beast_fmri_test	349	1449694,/,1450374,/,1451053,/,1451733,/,1452413,/	t,t,t,t,t	<img class = center src='/static/experiments/beast_fmri_test/images/D.png'></img>	89,71	2750.0	test	<img class = center src='/static/experiments/beast_fmri_test/images/redD.png'></img>	go	2000.0	2.0	19.0	go	target	D	89,Middle Finger	71,Index Finger	750.0	900.0	2000.0	1900.0	1.0	750.0	1.0	n/a	ITI
324238	500	n/a	-1	-1	500	0.0	fixation	poldrack-single-stim	530	1452988	0.0-21.20-0.20	beast_fmri_test	349	n/a	n/a	<div class = centerbox2><div class = fixation>+</div></div>	none	500.0	test	n/a	n/a	n/a	n/a	n/a	n/a	n/a	n/a	n/a	n/a	n/a	n/a	n/a	n/a	n/a	n/a	n/a	n/a	fixation
323984.37870347383	2750	n/a	-1	-1	2750	254.621296526	stim	stop-signal	531	1455739	0.0-21.20-1.20	beast_fmri_test	349	1453091,/,1453771,/,1454452,/,1455130,/,1455810,/	t,t,t,t,t	<img class = center src='/static/experiments/beast_fmri_test/images/D.png'></img>	89,71	2750.0	test	<img class = center src='/static/experiments/beast_fmri_test/images/redD.png'></img>	go	1850.0	2.0	20.0	go	non-target	D	89,Middle Finger	71,Index Finger	750.0	900.0	2000.0	1850.0	0.0	900.0	0.0	n/a	go_stim
326734.37870347383	254.62129652626598	n/a	-1	-1	2750	254.621296526	stim	stop-signal	531	1455739	0.0-21.20-1.20	beast_fmri_test	349	1453091,/,1453771,/,1454452,/,1455130,/,1455810,/	t,t,t,t,t	<img class = center src='/static/experiments/beast_fmri_test/images/D.png'></img>	89,71	2750.0	test	<img class = center src='/static/experiments/beast_fmri_test/images/redD.png'></img>	go	1850.0	2.0	20.0	go	non-target	D	89,Middle Finger	71,Index Finger	750.0	900.0	2000.0	1850.0	0.0	900.0	0.0	n/a	ITI
327794	500	n/a	-1	-1	500	0.0	fixation	poldrack-single-stim	532	1456544	0.0-21.21-0.21	beast_fmri_test	349	1456491,/	t	<div class = centerbox2><div class = fixation>+</div></div>	none	500.0	test	n/a	n/a	n/a	n/a	n/a	n/a	n/a	n/a	n/a	n/a	n/a	n/a	n/a	n/a	n/a	n/a	n/a	n/a	fixation
