onset	duration	text	rt	key_press	block_duration	timing_post_trial	trial_id	trial_type	trial_index	time_elapsed	internal_node_id	exp_id	subject_id	trigger_times	triggers	stimulus	possible_responses	stim_duration	exp_stage	SS_stimulus	SS_trial_type	SS_duration	load	trial_num	stop_trial_type	adaptive_trial_type	stim	yes_response_key	no_response_key	SSD_target	SSD_non_target	SSTarget	SSNonTarget	go_acc	SS_delay	adaptive_acc	stop_acc	new_trial_type
test	10880	n/a	-1	-1	10880	0.0	practice-no-stop-feedback	poldrack-single-stim	200	623746	0.0-12.0	beast_fmri_test	349	612870,/,613547,/,614228,/,614907,/,615587,/,616265,/,616946,/,617624,/,618306,/,618984,/,619664,/,620344,/,621025,/,621704,/,622384,/,623063,/,623743,/	t,t,t,t,t,t,t,t,t,t,t,t,t,t,t,t,t	"<div class = ""centerbox""><p class = ""block-text"">Your delay is 2 trials.</p><p class = block-text>Please wait for the scanner to start the block</p></div>"	77	10880.0	n/a	n/a	n/a	n/a	n/a	n/a	n/a	n/a	n/a	n/a	n/a	n/a	n/a	n/a	n/a	n/a	n/a	n/a	n/a	start_functional_block
11378	500	n/a	-1	-1	500	0.0	fixation	poldrack-single-stim	201	624248	0.0-13.0-0.0	beast_fmri_test	349	n/a	n/a	<div class = centerbox2><div class = fixation>+</div></div>	none	500.0	test	n/a	n/a	n/a	n/a	n/a	n/a	n/a	n/a	n/a	n/a	n/a	n/a	n/a	n/a	n/a	n/a	n/a	n/a	fixation
10787.629397213226	2750	n/a	1624	71	2750	592.370602787	stim	stop-signal	202	627000	0.0-13.0-1.0	beast_fmri_test	349	624423,/,625102,/,625782,/,626460,/,627142,/	t,t,t,t,t	<img class = center src='/static/experiments/beast_fmri_test/images/T.png'></img>	89,71	2750.0	test	<img class = center src='/static/experiments/beast_fmri_test/images/redT.png'></img>	go	-1.0	2.0	0.0	go	temp-non-target	T	89,Middle Finger	71,Index Finger	700.0	500.0	2100.0	2250.0	0.0	n/a	n/a	n/a	go_stim
13537.629397213226	592.37060278681781	n/a	1624	71	2750	592.370602787	stim	stop-signal	202	627000	0.0-13.0-1.0	beast_fmri_test	349	624423,/,625102,/,625782,/,626460,/,627142,/	t,t,t,t,t	<img class = center src='/static/experiments/beast_fmri_test/images/T.png'></img>	89,71	2750.0	test	<img class = center src='/static/experiments/beast_fmri_test/images/redT.png'></img>	go	-1.0	2.0	0.0	go	temp-non-target	T	89,Middle Finger	71,Index Finger	700.0	500.0	2100.0	2250.0	0.0	n/a	n/a	n/a	ITI
15248	500	n/a	-1	-1	500	0.0	fixation	poldrack-single-stim	203	628118	0.0-13.1-0.1	beast_fmri_test	349	627820,/	t	<div class = centerbox2><div class = fixation>+</div></div>	none	500.0	test	n/a	n/a	n/a	n/a	n/a	n/a	n/a	n/a	n/a	n/a	n/a	n/a	n/a	n/a	n/a	n/a	n/a	n/a	fixation
15078.416723593837	temp_go_duration	n/a	1019	71	2750	171.583276406	stim	stop-signal	204	630870	0.0-13.1-1.1	beast_fmri_test	349	628501,/,629179,/,629859,/,630538,/	t,t,t,t	<img class = center src='/static/experiments/beast_fmri_test/images/D.png'></img>	89,71	2750.0	test	<img class = center src='/static/experiments/beast_fmri_test/images/redD.png'></img>	stop	-1.0	2.0	1.0	stop	temp-non-target	D	89,Middle Finger	71,Index Finger	700.0	500.0	2100.0	2250.0	0.0	n/a	n/a	0.0	go_stim
temp-non-target	temp_stop_duration	n/a	1019	71	2750	171.583276406	stim	stop-signal	204	630870	0.0-13.1-1.1	beast_fmri_test	349	628501,/,629179,/,629859,/,630538,/	t,t,t,t	<img class = center src='/static/experiments/beast_fmri_test/images/D.png'></img>	89,71	2750.0	test	<img class = center src='/static/experiments/beast_fmri_test/images/redD.png'></img>	stop	-1.0	2.0	1.0	stop	temp-non-target	D	89,Middle Finger	71,Index Finger	700.0	500.0	2100.0	2250.0	0.0	n/a	n/a	0.0	stop_stim
17828.416723593837	171.58327640615084	n/a	1019	71	2750	171.583276406	stim	stop-signal	204	630870	0.0-13.1-1.1	beast_fmri_test	349	628501,/,629179,/,629859,/,630538,/	t,t,t,t	<img class = center src='/static/experiments/beast_fmri_test/images/D.png'></img>	89,71	2750.0	test	<img class = center src='/static/experiments/beast_fmri_test/images/redD.png'></img>	stop	-1.0	2.0	1.0	stop	temp-non-target	D	89,Middle Finger	71,Index Finger	700.0	500.0	2100.0	2250.0	0.0	n/a	n/a	0.0	ITI
18697	500	n/a	-1	-1	500	0.0	fixation	poldrack-single-stim	205	631567	0.0-13.2-0.2	beast_fmri_test	349	631219,/	t	<div class = centerbox2><div class = fixation>+</div></div>	none	500.0	test	n/a	n/a	n/a	n/a	n/a	n/a	n/a	n/a	n/a	n/a	n/a	n/a	n/a	n/a	n/a	n/a	n/a	n/a	fixation
16895.098902634461	2750	n/a	704	89	2750	1802.90109737	stim	stop-signal	206	634318	0.0-13.2-1.2	beast_fmri_test	349	631898,/,632578,/,633258,/,633939,/,634616,/,635297,/,635977,/	t,t,t,t,t,t,t	<img class = center src='/static/experiments/beast_fmri_test/images/T.png'></img>	89,71	2750.0	test	<img class = center src='/static/experiments/beast_fmri_test/images/redT.png'></img>	go	2050.0	2.0	2.0	go	target	T	89,Middle Finger	71,Index Finger	700.0	500.0	2050.0	2250.0	1.0	700.0	1.0	n/a	go_stim
19645.098902634461	1802.9010973654968	n/a	704	89	2750	1802.90109737	stim	stop-signal	206	634318	0.0-13.2-1.2	beast_fmri_test	349	631898,/,632578,/,633258,/,633939,/,634616,/,635297,/,635977,/	t,t,t,t,t,t,t	<img class = center src='/static/experiments/beast_fmri_test/images/T.png'></img>	89,71	2750.0	test	<img class = center src='/static/experiments/beast_fmri_test/images/redT.png'></img>	go	2050.0	2.0	2.0	go	target	T	89,Middle Finger	71,Index Finger	700.0	500.0	2050.0	2250.0	1.0	700.0	1.0	n/a	ITI
23774	500	n/a	-1	-1	500	0.0	fixation	poldrack-single-stim	207	636644	0.0-13.3-0.3	beast_fmri_test	349	n/a	n/a	<div class = centerbox2><div class = fixation>+</div></div>	none	500.0	test	n/a	n/a	n/a	n/a	n/a	n/a	n/a	n/a	n/a	n/a	n/a	n/a	n/a	n/a	n/a	n/a	n/a	n/a	fixation
23499.643879251089	700.0	n/a	860	89	2750	275.356120749	stim	stop-signal	208	639395	0.0-13.3-1.3	beast_fmri_test	349	636657,/,637337,/,638015,/,638696,/,639375,/	t,t,t,t,t	<img class = center src='/static/experiments/beast_fmri_test/images/D.png'></img>	89,71	2750.0	test	<img class = center src='/static/experiments/beast_fmri_test/images/redD.png'></img>	stop	2050.0	2.0	3.0	stop	target	D	89,Middle Finger	71,Index Finger	700.0	500.0	2050.0	2250.0	0.0	700.0	n/a	0.0	go_stim
25549.643879251089	2050.0	n/a	860	89	2750	275.356120749	stim	stop-signal	208	639395	0.0-13.3-1.3	beast_fmri_test	349	636657,/,637337,/,638015,/,638696,/,639375,/	t,t,t,t,t	<img class = center src='/static/experiments/beast_fmri_test/images/D.png'></img>	89,71	2750.0	test	<img class = center src='/static/experiments/beast_fmri_test/images/redD.png'></img>	stop	2050.0	2.0	3.0	stop	target	D	89,Middle Finger	71,Index Finger	700.0	500.0	2050.0	2250.0	0.0	700.0	n/a	0.0	stop_stim
26249.643879251089	275.35612074887825	n/a	860	89	2750	275.356120749	stim	stop-signal	208	639395	0.0-13.3-1.3	beast_fmri_test	349	636657,/,637337,/,638015,/,638696,/,639375,/	t,t,t,t,t	<img class = center src='/static/experiments/beast_fmri_test/images/D.png'></img>	89,71	2750.0	test	<img class = center src='/static/experiments/beast_fmri_test/images/redD.png'></img>	stop	2050.0	2.0	3.0	stop	target	D	89,Middle Finger	71,Index Finger	700.0	500.0	2050.0	2250.0	0.0	700.0	n/a	0.0	ITI
27321	500	n/a	-1	-1	500	0.0	fixation	poldrack-single-stim	209	640191	0.0-13.4-0.4	beast_fmri_test	349	640056,/	t	<div class = centerbox2><div class = fixation>+</div></div>	none	500.0	test	n/a	n/a	n/a	n/a	n/a	n/a	n/a	n/a	n/a	n/a	n/a	n/a	n/a	n/a	n/a	n/a	n/a	n/a	fixation
25581.040818865527	2750	n/a	1358	71	2750	1741.95918113	stim	stop-signal	210	642943	0.0-13.4-1.4	beast_fmri_test	349	640734,/,641415,/,642095,/,642774,/,643454,/,644132,/	t,t,t,t,t,t	<img class = center src='/static/experiments/beast_fmri_test/images/P.png'></img>	89,71	2750.0	test	<img class = center src='/static/experiments/beast_fmri_test/images/redP.png'></img>	go	2250.0	2.0	4.0	go	non-target	P	89,Middle Finger	71,Index Finger	650.0	500.0	2050.0	2250.0	1.0	500.0	1.0	n/a	go_stim
28331.040818865527	1741.9591811344558	n/a	1358	71	2750	1741.95918113	stim	stop-signal	210	642943	0.0-13.4-1.4	beast_fmri_test	349	640734,/,641415,/,642095,/,642774,/,643454,/,644132,/	t,t,t,t,t,t	<img class = center src='/static/experiments/beast_fmri_test/images/P.png'></img>	89,71	2750.0	test	<img class = center src='/static/experiments/beast_fmri_test/images/redP.png'></img>	go	2250.0	2.0	4.0	go	non-target	P	89,Middle Finger	71,Index Finger	650.0	500.0	2050.0	2250.0	1.0	500.0	1.0	n/a	ITI
32337	500	n/a	-1	-1	500	0.0	fixation	poldrack-single-stim	211	645207	0.0-13.5-0.5	beast_fmri_test	349	644814,/	t	<div class = centerbox2><div class = fixation>+</div></div>	none	500.0	test	n/a	n/a	n/a	n/a	n/a	n/a	n/a	n/a	n/a	n/a	n/a	n/a	n/a	n/a	n/a	n/a	n/a	n/a	fixation
31306.107186952839	2750	n/a	1179	89	2750	1031.89281305	stim	stop-signal	212	647958	0.0-13.5-1.5	beast_fmri_test	349	645492,/,646173,/,646851,/,647532,/,648211,/,648891,/	t,t,t,t,t,t	<img class = center src='/static/experiments/beast_fmri_test/images/D.png'></img>	89,71	2750.0	test	<img class = center src='/static/experiments/beast_fmri_test/images/redD.png'></img>	go	2100.0	2.0	5.0	go	target	D	89,Middle Finger	71,Index Finger	650.0	500.0	2100.0	2250.0	1.0	650.0	1.0	n/a	go_stim
34056.107186952839	1031.8928130472098	n/a	1179	89	2750	1031.89281305	stim	stop-signal	212	647958	0.0-13.5-1.5	beast_fmri_test	349	645492,/,646173,/,646851,/,647532,/,648211,/,648891,/	t,t,t,t,t,t	<img class = center src='/static/experiments/beast_fmri_test/images/D.png'></img>	89,71	2750.0	test	<img class = center src='/static/experiments/beast_fmri_test/images/redD.png'></img>	go	2100.0	2.0	5.0	go	target	D	89,Middle Finger	71,Index Finger	650.0	500.0	2100.0	2250.0	1.0	650.0	1.0	n/a	ITI
36643	500	n/a	-1	-1	500	0.0	fixation	poldrack-single-stim	213	649513	0.0-13.6-0.6	beast_fmri_test	349	n/a	n/a	<div class = centerbox2><div class = fixation>+</div></div>	none	500.0	test	n/a	n/a	n/a	n/a	n/a	n/a	n/a	n/a	n/a	n/a	n/a	n/a	n/a	n/a	n/a	n/a	n/a	n/a	fixation
34903.82700941537	500.0	n/a	-1	-1	2750	1740.17299058	stim	stop-signal	214	652264	0.0-13.6-1.6	beast_fmri_test	349	649570,/,650251,/,650929,/,651610,/,652291,/,652969,/,653649,/	t,t,t,t,t,t,t	<img class = center src='/static/experiments/beast_fmri_test/images/D.png'></img>	89,71	2750.0	test	<img class = center src='/static/experiments/beast_fmri_test/images/redD.png'></img>	stop	2250.0	2.0	6.0	stop	non-target	D	89,Middle Finger	71,Index Finger	650.0	500.0	2100.0	2250.0	0.0	500.0	n/a	1.0	go_stim
37153.82700941537	2250.0	n/a	-1	-1	2750	1740.17299058	stim	stop-signal	214	652264	0.0-13.6-1.6	beast_fmri_test	349	649570,/,650251,/,650929,/,651610,/,652291,/,652969,/,653649,/	t,t,t,t,t,t,t	<img class = center src='/static/experiments/beast_fmri_test/images/D.png'></img>	89,71	2750.0	test	<img class = center src='/static/experiments/beast_fmri_test/images/redD.png'></img>	stop	2250.0	2.0	6.0	stop	non-target	D	89,Middle Finger	71,Index Finger	650.0	500.0	2100.0	2250.0	0.0	500.0	n/a	1.0	stop_stim
37653.82700941537	1740.1729905846287	n/a	-1	-1	2750	1740.17299058	stim	stop-signal	214	652264	0.0-13.6-1.6	beast_fmri_test	349	649570,/,650251,/,650929,/,651610,/,652291,/,652969,/,653649,/	t,t,t,t,t,t,t	<img class = center src='/static/experiments/beast_fmri_test/images/D.png'></img>	89,71	2750.0	test	<img class = center src='/static/experiments/beast_fmri_test/images/redD.png'></img>	stop	2250.0	2.0	6.0	stop	non-target	D	89,Middle Finger	71,Index Finger	650.0	500.0	2100.0	2250.0	0.0	500.0	n/a	1.0	ITI
41660	500	n/a	-1	-1	500	0.0	fixation	poldrack-single-stim	215	654530	0.0-13.7-0.7	beast_fmri_test	349	654328,/	t	<div class = centerbox2><div class = fixation>+</div></div>	none	500.0	test	n/a	n/a	n/a	n/a	n/a	n/a	n/a	n/a	n/a	n/a	n/a	n/a	n/a	n/a	n/a	n/a	n/a	n/a	fixation
40526.163826344884	2750	n/a	1378	71	2750	1133.83617366	stim	stop-signal	216	657280	0.0-13.7-1.7	beast_fmri_test	349	655009,/,655688,/,656368,/,657047,/,657725,/,658406,/	t,t,t,t,t,t	<img class = center src='/static/experiments/beast_fmri_test/images/B.png'></img>	89,71	2750.0	test	<img class = center src='/static/experiments/beast_fmri_test/images/redB.png'></img>	go	2200.0	2.0	7.0	go	non-target	B	89,Middle Finger	71,Index Finger	650.0	550.0	2100.0	2200.0	1.0	550.0	1.0	n/a	go_stim
43276.163826344884	1133.8361736551069	n/a	1378	71	2750	1133.83617366	stim	stop-signal	216	657280	0.0-13.7-1.7	beast_fmri_test	349	655009,/,655688,/,656368,/,657047,/,657725,/,658406,/	t,t,t,t,t,t	<img class = center src='/static/experiments/beast_fmri_test/images/B.png'></img>	89,71	2750.0	test	<img class = center src='/static/experiments/beast_fmri_test/images/redB.png'></img>	go	2200.0	2.0	7.0	go	non-target	B	89,Middle Finger	71,Index Finger	650.0	550.0	2100.0	2200.0	1.0	550.0	1.0	n/a	ITI
46067	500	n/a	-1	-1	500	0.0	fixation	poldrack-single-stim	217	658937	0.0-13.8-0.8	beast_fmri_test	349	n/a	n/a	<div class = centerbox2><div class = fixation>+</div></div>	none	500.0	test	n/a	n/a	n/a	n/a	n/a	n/a	n/a	n/a	n/a	n/a	n/a	n/a	n/a	n/a	n/a	n/a	n/a	n/a	fixation
46041.846343861893	550.0	n/a	-1	-1	2750	27.1536561381	stim	stop-signal	218	661689	0.0-13.8-1.8	beast_fmri_test	349	659087,/,659765,/,660446,/,661126,/	t,t,t,t	<img class = center src='/static/experiments/beast_fmri_test/images/T.png'></img>	89,71	2750.0	test	<img class = center src='/static/experiments/beast_fmri_test/images/redT.png'></img>	stop	2200.0	2.0	8.0	stop	non-target	T	89,Middle Finger	71,Index Finger	650.0	550.0	2100.0	2200.0	0.0	550.0	n/a	1.0	go_stim
48241.846343861893	2200.0	n/a	-1	-1	2750	27.1536561381	stim	stop-signal	218	661689	0.0-13.8-1.8	beast_fmri_test	349	659087,/,659765,/,660446,/,661126,/	t,t,t,t	<img class = center src='/static/experiments/beast_fmri_test/images/T.png'></img>	89,71	2750.0	test	<img class = center src='/static/experiments/beast_fmri_test/images/redT.png'></img>	stop	2200.0	2.0	8.0	stop	non-target	T	89,Middle Finger	71,Index Finger	650.0	550.0	2100.0	2200.0	0.0	550.0	n/a	1.0	stop_stim
48791.846343861893	27.153656138122354	n/a	-1	-1	2750	27.1536561381	stim	stop-signal	218	661689	0.0-13.8-1.8	beast_fmri_test	349	659087,/,659765,/,660446,/,661126,/	t,t,t,t	<img class = center src='/static/experiments/beast_fmri_test/images/T.png'></img>	89,71	2750.0	test	<img class = center src='/static/experiments/beast_fmri_test/images/redT.png'></img>	stop	2200.0	2.0	8.0	stop	non-target	T	89,Middle Finger	71,Index Finger	650.0	550.0	2100.0	2200.0	0.0	550.0	n/a	1.0	ITI
49370	500	n/a	-1	-1	500	0.0	fixation	poldrack-single-stim	219	662240	0.0-13.9-0.9	beast_fmri_test	349	661803,/	t	<div class = centerbox2><div class = fixation>+</div></div>	none	500.0	test	n/a	n/a	n/a	n/a	n/a	n/a	n/a	n/a	n/a	n/a	n/a	n/a	n/a	n/a	n/a	n/a	n/a	n/a	fixation
47343.770691948361	600.0	n/a	-1	-1	2750	2028.22930805	stim	stop-signal	220	664992	0.0-13.9-1.9	beast_fmri_test	349	662486,/,663163,/,663844,/,664525,/,665204,/,665882,/,666562,/	t,t,t,t,t,t,t	<img class = center src='/static/experiments/beast_fmri_test/images/D.png'></img>	89,71	2750.0	test	<img class = center src='/static/experiments/beast_fmri_test/images/redD.png'></img>	stop	2150.0	2.0	9.0	stop	non-target	D	89,Middle Finger	71,Index Finger	650.0	600.0	2100.0	2150.0	0.0	600.0	n/a	1.0	go_stim
49493.770691948361	2150.0	n/a	-1	-1	2750	2028.22930805	stim	stop-signal	220	664992	0.0-13.9-1.9	beast_fmri_test	349	662486,/,663163,/,663844,/,664525,/,665204,/,665882,/,666562,/	t,t,t,t,t,t,t	<img class = center src='/static/experiments/beast_fmri_test/images/D.png'></img>	89,71	2750.0	test	<img class = center src='/static/experiments/beast_fmri_test/images/redD.png'></img>	stop	2150.0	2.0	9.0	stop	non-target	D	89,Middle Finger	71,Index Finger	650.0	600.0	2100.0	2150.0	0.0	600.0	n/a	1.0	stop_stim
50093.770691948361	2028.2293080516367	n/a	-1	-1	2750	2028.22930805	stim	stop-signal	220	664992	0.0-13.9-1.9	beast_fmri_test	349	662486,/,663163,/,663844,/,664525,/,665204,/,665882,/,666562,/	t,t,t,t,t,t,t	<img class = center src='/static/experiments/beast_fmri_test/images/D.png'></img>	89,71	2750.0	test	<img class = center src='/static/experiments/beast_fmri_test/images/redD.png'></img>	stop	2150.0	2.0	9.0	stop	non-target	D	89,Middle Finger	71,Index Finger	650.0	600.0	2100.0	2150.0	0.0	600.0	n/a	1.0	ITI
54676	500	n/a	-1	-1	500	0.0	fixation	poldrack-single-stim	221	667546	0.0-13.10-0.10	beast_fmri_test	349	667242,/	t	<div class = centerbox2><div class = fixation>+</div></div>	none	500.0	test	n/a	n/a	n/a	n/a	n/a	n/a	n/a	n/a	n/a	n/a	n/a	n/a	n/a	n/a	n/a	n/a	n/a	n/a	fixation
53878.117357949959	2750	n/a	1797	71	2750	798.88264205	stim	stop-signal	222	670297	0.0-13.10-1.10	beast_fmri_test	349	667923,/,668603,/,669282,/,669961,/,670641,/	t,t,t,t,t	<img class = center src='/static/experiments/beast_fmri_test/images/V.png'></img>	89,71	2750.0	test	<img class = center src='/static/experiments/beast_fmri_test/images/redV.png'></img>	go	2100.0	2.0	10.0	go	non-target	V	89,Middle Finger	71,Index Finger	650.0	650.0	2100.0	2100.0	1.0	650.0	1.0	n/a	go_stim
56628.117357949959	798.8826420499887	n/a	1797	71	2750	798.88264205	stim	stop-signal	222	670297	0.0-13.10-1.10	beast_fmri_test	349	667923,/,668603,/,669282,/,669961,/,670641,/	t,t,t,t,t	<img class = center src='/static/experiments/beast_fmri_test/images/V.png'></img>	89,71	2750.0	test	<img class = center src='/static/experiments/beast_fmri_test/images/redV.png'></img>	go	2100.0	2.0	10.0	go	non-target	V	89,Middle Finger	71,Index Finger	650.0	650.0	2100.0	2100.0	1.0	650.0	1.0	n/a	ITI
58752	500	n/a	-1	-1	500	0.0	fixation	poldrack-single-stim	223	671622	0.0-13.11-0.11	beast_fmri_test	349	671321,/	t	<div class = centerbox2><div class = fixation>+</div></div>	none	500.0	test	n/a	n/a	n/a	n/a	n/a	n/a	n/a	n/a	n/a	n/a	n/a	n/a	n/a	n/a	n/a	n/a	n/a	n/a	fixation
58627.423833623179	650.0	n/a	-1	-1	2750	126.576166377	stim	stop-signal	224	674374	0.0-13.11-1.11	beast_fmri_test	349	672001,/,672681,/,673359,/,674040,/	t,t,t,t	<img class = center src='/static/experiments/beast_fmri_test/images/V.png'></img>	89,71	2750.0	test	<img class = center src='/static/experiments/beast_fmri_test/images/redV.png'></img>	stop	2100.0	2.0	11.0	stop	non-target	V	89,Middle Finger	71,Index Finger	650.0	650.0	2100.0	2100.0	0.0	650.0	n/a	1.0	go_stim
60727.423833623179	2100.0	n/a	-1	-1	2750	126.576166377	stim	stop-signal	224	674374	0.0-13.11-1.11	beast_fmri_test	349	672001,/,672681,/,673359,/,674040,/	t,t,t,t	<img class = center src='/static/experiments/beast_fmri_test/images/V.png'></img>	89,71	2750.0	test	<img class = center src='/static/experiments/beast_fmri_test/images/redV.png'></img>	stop	2100.0	2.0	11.0	stop	non-target	V	89,Middle Finger	71,Index Finger	650.0	650.0	2100.0	2100.0	0.0	650.0	n/a	1.0	stop_stim
61377.423833623179	126.57616637676894	n/a	-1	-1	2750	126.576166377	stim	stop-signal	224	674374	0.0-13.11-1.11	beast_fmri_test	349	672001,/,672681,/,673359,/,674040,/	t,t,t,t	<img class = center src='/static/experiments/beast_fmri_test/images/V.png'></img>	89,71	2750.0	test	<img class = center src='/static/experiments/beast_fmri_test/images/redV.png'></img>	stop	2100.0	2.0	11.0	stop	non-target	V	89,Middle Finger	71,Index Finger	650.0	650.0	2100.0	2100.0	0.0	650.0	n/a	1.0	ITI
62155	500	n/a	-1	-1	500	0.0	fixation	poldrack-single-stim	225	675025	0.0-13.12-0.12	beast_fmri_test	349	674718,/	t	<div class = centerbox2><div class = fixation>+</div></div>	none	500.0	test	n/a	n/a	n/a	n/a	n/a	n/a	n/a	n/a	n/a	n/a	n/a	n/a	n/a	n/a	n/a	n/a	n/a	n/a	fixation
61323.861882889178	2750	n/a	1404	89	2750	832.138117111	stim	stop-signal	226	677776	0.0-13.12-1.12	beast_fmri_test	349	675399,/,676078,/,676758,/,677437,/,678118,/	t,t,t,t,t	<img class = center src='/static/experiments/beast_fmri_test/images/V.png'></img>	89,71	2750.0	test	<img class = center src='/static/experiments/beast_fmri_test/images/redV.png'></img>	go	2100.0	2.0	12.0	go	target	V	89,Middle Finger	71,Index Finger	650.0	700.0	2100.0	2100.0	1.0	650.0	1.0	n/a	go_stim
64073.861882889178	832.13811711083952	n/a	1404	89	2750	832.138117111	stim	stop-signal	226	677776	0.0-13.12-1.12	beast_fmri_test	349	675399,/,676078,/,676758,/,677437,/,678118,/	t,t,t,t,t	<img class = center src='/static/experiments/beast_fmri_test/images/V.png'></img>	89,71	2750.0	test	<img class = center src='/static/experiments/beast_fmri_test/images/redV.png'></img>	go	2100.0	2.0	12.0	go	target	V	89,Middle Finger	71,Index Finger	650.0	700.0	2100.0	2100.0	1.0	650.0	1.0	n/a	ITI
66263	500	n/a	-1	-1	500	0.0	fixation	poldrack-single-stim	227	679133	0.0-13.13-0.13	beast_fmri_test	349	678798,/	t	<div class = centerbox2><div class = fixation>+</div></div>	none	500.0	test	n/a	n/a	n/a	n/a	n/a	n/a	n/a	n/a	n/a	n/a	n/a	n/a	n/a	n/a	n/a	n/a	n/a	n/a	fixation
64516.466097937897	2750	n/a	1660	89	2750	1747.53390206	stim	stop-signal	228	681884	0.0-13.13-1.13	beast_fmri_test	349	679477,/,680157,/,680835,/,681516,/,682196,/,682875,/,683554,/	t,t,t,t,t,t,t	<img class = center src='/static/experiments/beast_fmri_test/images/V.png'></img>	89,71	2750.0	test	<img class = center src='/static/experiments/beast_fmri_test/images/redV.png'></img>	go	2100.0	2.0	13.0	go	target	V	89,Middle Finger	71,Index Finger	650.0	700.0	2100.0	2100.0	1.0	650.0	1.0	n/a	go_stim
67266.466097937897	1747.5339020620734	n/a	1660	89	2750	1747.53390206	stim	stop-signal	228	681884	0.0-13.13-1.13	beast_fmri_test	349	679477,/,680157,/,680835,/,681516,/,682196,/,682875,/,683554,/	t,t,t,t,t,t,t	<img class = center src='/static/experiments/beast_fmri_test/images/V.png'></img>	89,71	2750.0	test	<img class = center src='/static/experiments/beast_fmri_test/images/redV.png'></img>	go	2100.0	2.0	13.0	go	target	V	89,Middle Finger	71,Index Finger	650.0	700.0	2100.0	2100.0	1.0	650.0	1.0	n/a	ITI
71288	500	n/a	-1	-1	500	0.0	fixation	poldrack-single-stim	229	684158	0.0-13.14-0.14	beast_fmri_test	349	n/a	n/a	<div class = centerbox2><div class = fixation>+</div></div>	none	500.0	test	n/a	n/a	n/a	n/a	n/a	n/a	n/a	n/a	n/a	n/a	n/a	n/a	n/a	n/a	n/a	n/a	n/a	n/a	fixation
71118.906198204029	650.0	n/a	877	89	2750	170.093801796	stim	stop-signal	230	686909	0.0-13.14-1.14	beast_fmri_test	349	684235,/,684913,/,685594,/,686272,/,686954,/	t,t,t,t,t	<img class = center src='/static/experiments/beast_fmri_test/images/V.png'></img>	89,71	2750.0	test	<img class = center src='/static/experiments/beast_fmri_test/images/redV.png'></img>	stop	2100.0	2.0	14.0	stop	target	V	89,Middle Finger	71,Index Finger	650.0	700.0	2100.0	2100.0	0.0	650.0	n/a	0.0	go_stim
73218.906198204029	2100.0	n/a	877	89	2750	170.093801796	stim	stop-signal	230	686909	0.0-13.14-1.14	beast_fmri_test	349	684235,/,684913,/,685594,/,686272,/,686954,/	t,t,t,t,t	<img class = center src='/static/experiments/beast_fmri_test/images/V.png'></img>	89,71	2750.0	test	<img class = center src='/static/experiments/beast_fmri_test/images/redV.png'></img>	stop	2100.0	2.0	14.0	stop	target	V	89,Middle Finger	71,Index Finger	650.0	700.0	2100.0	2100.0	0.0	650.0	n/a	0.0	stop_stim
73868.906198204029	170.0938017959856	n/a	877	89	2750	170.093801796	stim	stop-signal	230	686909	0.0-13.14-1.14	beast_fmri_test	349	684235,/,684913,/,685594,/,686272,/,686954,/	t,t,t,t,t	<img class = center src='/static/experiments/beast_fmri_test/images/V.png'></img>	89,71	2750.0	test	<img class = center src='/static/experiments/beast_fmri_test/images/redV.png'></img>	stop	2100.0	2.0	14.0	stop	target	V	89,Middle Finger	71,Index Finger	650.0	700.0	2100.0	2100.0	0.0	650.0	n/a	0.0	ITI
74740	500	n/a	-1	-1	500	0.0	fixation	poldrack-single-stim	231	687610	0.0-13.15-0.15	beast_fmri_test	349	n/a	n/a	<div class = centerbox2><div class = fixation>+</div></div>	none	500.0	test	n/a	n/a	n/a	n/a	n/a	n/a	n/a	n/a	n/a	n/a	n/a	n/a	n/a	n/a	n/a	n/a	n/a	n/a	fixation
74558.644343141234	2750	n/a	2040	89	2750	181.355656859	stim	stop-signal	232	690360	0.0-13.15-1.15	beast_fmri_test	349	687634,/,688313,/,688992,/,689671,/,690353,/	t,t,t,t,t	<img class = center src='/static/experiments/beast_fmri_test/images/V.png'></img>	89,71	2750.0	test	<img class = center src='/static/experiments/beast_fmri_test/images/redV.png'></img>	go	2150.0	2.0	15.0	go	target	V	89,Middle Finger	71,Index Finger	600.0	700.0	2150.0	2100.0	1.0	600.0	1.0	n/a	go_stim
77308.644343141234	181.35565685880709	n/a	2040	89	2750	181.355656859	stim	stop-signal	232	690360	0.0-13.15-1.15	beast_fmri_test	349	687634,/,688313,/,688992,/,689671,/,690353,/	t,t,t,t,t	<img class = center src='/static/experiments/beast_fmri_test/images/V.png'></img>	89,71	2750.0	test	<img class = center src='/static/experiments/beast_fmri_test/images/redV.png'></img>	go	2150.0	2.0	15.0	go	target	V	89,Middle Finger	71,Index Finger	600.0	700.0	2150.0	2100.0	1.0	600.0	1.0	n/a	ITI
78199	500	n/a	-1	-1	500	0.0	fixation	poldrack-single-stim	233	691069	0.0-13.16-0.16	beast_fmri_test	349	691031,/	t	<div class = centerbox2><div class = fixation>+</div></div>	none	500.0	test	n/a	n/a	n/a	n/a	n/a	n/a	n/a	n/a	n/a	n/a	n/a	n/a	n/a	n/a	n/a	n/a	n/a	n/a	fixation
77873.604886831599	600.0	n/a	-1	-1	2750	326.395113168	stim	stop-signal	234	693820	0.0-13.16-1.16	beast_fmri_test	349	691712,/,692391,/,693071,/,693750,/	t,t,t,t	<img class = center src='/static/experiments/beast_fmri_test/images/V.png'></img>	89,71	2750.0	test	<img class = center src='/static/experiments/beast_fmri_test/images/redV.png'></img>	stop	2150.0	2.0	16.0	stop	target	V	89,Middle Finger	71,Index Finger	600.0	700.0	2150.0	2100.0	0.0	600.0	n/a	1.0	go_stim
80023.604886831599	2150.0	n/a	-1	-1	2750	326.395113168	stim	stop-signal	234	693820	0.0-13.16-1.16	beast_fmri_test	349	691712,/,692391,/,693071,/,693750,/	t,t,t,t	<img class = center src='/static/experiments/beast_fmri_test/images/V.png'></img>	89,71	2750.0	test	<img class = center src='/static/experiments/beast_fmri_test/images/redV.png'></img>	stop	2150.0	2.0	16.0	stop	target	V	89,Middle Finger	71,Index Finger	600.0	700.0	2150.0	2100.0	0.0	600.0	n/a	1.0	stop_stim
80623.604886831599	326.39511316839452	n/a	-1	-1	2750	326.395113168	stim	stop-signal	234	693820	0.0-13.16-1.16	beast_fmri_test	349	691712,/,692391,/,693071,/,693750,/	t,t,t,t	<img class = center src='/static/experiments/beast_fmri_test/images/V.png'></img>	89,71	2750.0	test	<img class = center src='/static/experiments/beast_fmri_test/images/redV.png'></img>	stop	2150.0	2.0	16.0	stop	target	V	89,Middle Finger	71,Index Finger	600.0	700.0	2150.0	2100.0	0.0	600.0	n/a	1.0	ITI
81803	500	n/a	-1	-1	500	0.0	fixation	poldrack-single-stim	235	694673	0.0-13.17-0.17	beast_fmri_test	349	694431,/	t	<div class = centerbox2><div class = fixation>+</div></div>	none	500.0	test	n/a	n/a	n/a	n/a	n/a	n/a	n/a	n/a	n/a	n/a	n/a	n/a	n/a	n/a	n/a	n/a	n/a	n/a	fixation
80386.391220943071	2750	n/a	1450	71	2750	1418.60877906	stim	stop-signal	236	697425	0.0-13.17-1.17	beast_fmri_test	349	695109,/,695790,/,696469,/,697149,/,697829,/,698509,/	t,t,t,t,t,t	<img class = center src='/static/experiments/beast_fmri_test/images/T.png'></img>	89,71	2750.0	test	<img class = center src='/static/experiments/beast_fmri_test/images/redT.png'></img>	go	2050.0	2.0	17.0	go	non-target	T	89,Middle Finger	71,Index Finger	650.0	700.0	2150.0	2050.0	1.0	700.0	1.0	n/a	go_stim
83136.391220943071	1418.608779056962	n/a	1450	71	2750	1418.60877906	stim	stop-signal	236	697425	0.0-13.17-1.17	beast_fmri_test	349	695109,/,695790,/,696469,/,697149,/,697829,/,698509,/	t,t,t,t,t,t	<img class = center src='/static/experiments/beast_fmri_test/images/T.png'></img>	89,71	2750.0	test	<img class = center src='/static/experiments/beast_fmri_test/images/redT.png'></img>	go	2050.0	2.0	17.0	go	non-target	T	89,Middle Finger	71,Index Finger	650.0	700.0	2150.0	2050.0	1.0	700.0	1.0	n/a	ITI
86498	500	n/a	-1	-1	500	0.0	fixation	poldrack-single-stim	237	699368	0.0-13.18-0.18	beast_fmri_test	349	699188,/	t	<div class = centerbox2><div class = fixation>+</div></div>	none	500.0	test	n/a	n/a	n/a	n/a	n/a	n/a	n/a	n/a	n/a	n/a	n/a	n/a	n/a	n/a	n/a	n/a	n/a	n/a	fixation
86279.528301518294	700.0	n/a	2015	89	2750	221.471698482	stim	stop-signal	238	702121	0.0-13.18-1.18	beast_fmri_test	349	699866,/,700548,/,701227,/,701907,/	t,t,t,t	<img class = center src='/static/experiments/beast_fmri_test/images/T.png'></img>	89,71	2750.0	test	<img class = center src='/static/experiments/beast_fmri_test/images/redT.png'></img>	stop	2050.0	2.0	18.0	stop	non-target	T	89,Middle Finger	71,Index Finger	650.0	700.0	2150.0	2050.0	0.0	700.0	n/a	0.0	go_stim
88329.528301518294	2050.0	n/a	2015	89	2750	221.471698482	stim	stop-signal	238	702121	0.0-13.18-1.18	beast_fmri_test	349	699866,/,700548,/,701227,/,701907,/	t,t,t,t	<img class = center src='/static/experiments/beast_fmri_test/images/T.png'></img>	89,71	2750.0	test	<img class = center src='/static/experiments/beast_fmri_test/images/redT.png'></img>	stop	2050.0	2.0	18.0	stop	non-target	T	89,Middle Finger	71,Index Finger	650.0	700.0	2150.0	2050.0	0.0	700.0	n/a	0.0	stop_stim
89029.528301518294	221.4716984816861	n/a	2015	89	2750	221.471698482	stim	stop-signal	238	702121	0.0-13.18-1.18	beast_fmri_test	349	699866,/,700548,/,701227,/,701907,/	t,t,t,t	<img class = center src='/static/experiments/beast_fmri_test/images/T.png'></img>	89,71	2750.0	test	<img class = center src='/static/experiments/beast_fmri_test/images/redT.png'></img>	stop	2050.0	2.0	18.0	stop	non-target	T	89,Middle Finger	71,Index Finger	650.0	700.0	2150.0	2050.0	0.0	700.0	n/a	0.0	ITI
89999	500	n/a	-1	-1	500	0.0	fixation	poldrack-single-stim	239	702869	0.0-13.19-0.19	beast_fmri_test	349	702586,/	t	<div class = centerbox2><div class = fixation>+</div></div>	none	500.0	test	n/a	n/a	n/a	n/a	n/a	n/a	n/a	n/a	n/a	n/a	n/a	n/a	n/a	n/a	n/a	n/a	n/a	n/a	fixation
86831.032158259419	2750	n/a	1090	89	2750	3168.96784174	stim	stop-signal	240	705620	0.0-13.19-1.19	beast_fmri_test	349	703266,/,703944,/,704625,/,705304,/,705985,/,706663,/,707343,/,708023,/,708703,/	t,t,t,t,t,t,t,t,t	<img class = center src='/static/experiments/beast_fmri_test/images/T.png'></img>	89,71	2750.0	test	<img class = center src='/static/experiments/beast_fmri_test/images/redT.png'></img>	go	2100.0	2.0	19.0	go	target	T	89,Middle Finger	71,Index Finger	650.0	650.0	2100.0	2050.0	1.0	650.0	1.0	n/a	go_stim
89581.032158259419	3168.9678417405794	n/a	1090	89	2750	3168.96784174	stim	stop-signal	240	705620	0.0-13.19-1.19	beast_fmri_test	349	703266,/,703944,/,704625,/,705304,/,705985,/,706663,/,707343,/,708023,/,708703,/	t,t,t,t,t,t,t,t,t	<img class = center src='/static/experiments/beast_fmri_test/images/T.png'></img>	89,71	2750.0	test	<img class = center src='/static/experiments/beast_fmri_test/images/redT.png'></img>	go	2100.0	2.0	19.0	go	target	T	89,Middle Finger	71,Index Finger	650.0	650.0	2100.0	2050.0	1.0	650.0	1.0	n/a	ITI
96445	500	n/a	-1	-1	500	0.0	fixation	poldrack-single-stim	241	709315	0.0-13.20-0.20	beast_fmri_test	349	n/a	n/a	<div class = centerbox2><div class = fixation>+</div></div>	none	500.0	test	n/a	n/a	n/a	n/a	n/a	n/a	n/a	n/a	n/a	n/a	n/a	n/a	n/a	n/a	n/a	n/a	n/a	n/a	fixation
92257.753095858381	2750	n/a	1259	71	2750	4188.24690414	stim	stop-signal	242	712066	0.0-13.20-1.20	beast_fmri_test	349	709383,/,710063,/,710742,/,711421,/,712102,/,712781,/,713461,/,714141,/,714820,/,715499,/,716180,/	t,t,t,t,t,t,t,t,t,t,t	<img class = center src='/static/experiments/beast_fmri_test/images/P.png'></img>	89,71	2750.0	test	<img class = center src='/static/experiments/beast_fmri_test/images/redP.png'></img>	go	2100.0	2.0	20.0	go	non-target	P	89,Middle Finger	71,Index Finger	650.0	650.0	2100.0	2100.0	1.0	650.0	1.0	n/a	go_stim
95007.753095858381	4188.2469041416525	n/a	1259	71	2750	4188.24690414	stim	stop-signal	242	712066	0.0-13.20-1.20	beast_fmri_test	349	709383,/,710063,/,710742,/,711421,/,712102,/,712781,/,713461,/,714141,/,714820,/,715499,/,716180,/	t,t,t,t,t,t,t,t,t,t,t	<img class = center src='/static/experiments/beast_fmri_test/images/P.png'></img>	89,71	2750.0	test	<img class = center src='/static/experiments/beast_fmri_test/images/redP.png'></img>	go	2100.0	2.0	20.0	go	non-target	P	89,Middle Finger	71,Index Finger	650.0	650.0	2100.0	2100.0	1.0	650.0	1.0	n/a	ITI
103911	500	n/a	-1	-1	500	0.0	fixation	poldrack-single-stim	243	716781	0.0-13.21-0.21	beast_fmri_test	349	n/a	n/a	<div class = centerbox2><div class = fixation>+</div></div>	none	500.0	test	n/a	n/a	n/a	n/a	n/a	n/a	n/a	n/a	n/a	n/a	n/a	n/a	n/a	n/a	n/a	n/a	n/a	n/a	fixation
100564.15845007403	2750	n/a	1444	71	2750	3348.84154993	stim	stop-signal	244	719533	0.0-13.21-1.21	beast_fmri_test	349	716859,/,717539,/,718218,/,718898,/,719576,/,720258,/,720937,/,721617,/,722298,/	t,t,t,t,t,t,t,t,t	<img class = center src='/static/experiments/beast_fmri_test/images/D.png'></img>	89,71	2750.0	test	<img class = center src='/static/experiments/beast_fmri_test/images/redD.png'></img>	go	2100.0	2.0	21.0	go	non-target	D	89,Middle Finger	71,Index Finger	650.0	650.0	2100.0	2100.0	1.0	650.0	1.0	n/a	go_stim
103314.15845007403	3348.8415499260273	n/a	1444	71	2750	3348.84154993	stim	stop-signal	244	719533	0.0-13.21-1.21	beast_fmri_test	349	716859,/,717539,/,718218,/,718898,/,719576,/,720258,/,720937,/,721617,/,722298,/	t,t,t,t,t,t,t,t,t	<img class = center src='/static/experiments/beast_fmri_test/images/D.png'></img>	89,71	2750.0	test	<img class = center src='/static/experiments/beast_fmri_test/images/redD.png'></img>	go	2100.0	2.0	21.0	go	non-target	D	89,Middle Finger	71,Index Finger	650.0	650.0	2100.0	2100.0	1.0	650.0	1.0	n/a	ITI
110538	500	n/a	-1	-1	500	0.0	fixation	poldrack-single-stim	245	723408	0.0-13.22-0.22	beast_fmri_test	349	722976,/	t	<div class = centerbox2><div class = fixation>+</div></div>	none	500.0	test	n/a	n/a	n/a	n/a	n/a	n/a	n/a	n/a	n/a	n/a	n/a	n/a	n/a	n/a	n/a	n/a	n/a	n/a	fixation
108837.06396433001	2750	n/a	1099	89	2750	1701.93603567	stim	stop-signal	246	726159	0.0-13.22-1.22	beast_fmri_test	349	723657,/,724336,/,725016,/,725695,/,726376,/,727054,/,727735,/	t,t,t,t,t,t,t	<img class = center src='/static/experiments/beast_fmri_test/images/P.png'></img>	89,71	2750.0	test	<img class = center src='/static/experiments/beast_fmri_test/images/redP.png'></img>	go	2100.0	2.0	22.0	go	target	P	89,Middle Finger	71,Index Finger	650.0	650.0	2100.0	2100.0	1.0	650.0	1.0	n/a	go_stim
111587.06396433001	1701.9360356699883	n/a	1099	89	2750	1701.93603567	stim	stop-signal	246	726159	0.0-13.22-1.22	beast_fmri_test	349	723657,/,724336,/,725016,/,725695,/,726376,/,727054,/,727735,/	t,t,t,t,t,t,t	<img class = center src='/static/experiments/beast_fmri_test/images/P.png'></img>	89,71	2750.0	test	<img class = center src='/static/experiments/beast_fmri_test/images/redP.png'></img>	go	2100.0	2.0	22.0	go	target	P	89,Middle Finger	71,Index Finger	650.0	650.0	2100.0	2100.0	1.0	650.0	1.0	n/a	ITI
115516	500	n/a	-1	-1	500	0.0	fixation	poldrack-single-stim	247	728386	0.0-13.23-0.23	beast_fmri_test	349	n/a	n/a	<div class = centerbox2><div class = fixation>+</div></div>	none	500.0	test	n/a	n/a	n/a	n/a	n/a	n/a	n/a	n/a	n/a	n/a	n/a	n/a	n/a	n/a	n/a	n/a	n/a	n/a	fixation
114573.84994741471	2750	n/a	1266	71	2750	942.150052585	stim	stop-signal	248	731136	0.0-13.23-1.23	beast_fmri_test	349	728414,/,729095,/,729774,/,730454,/,731133,/,731813,/	t,t,t,t,t,t	<img class = center src='/static/experiments/beast_fmri_test/images/P.png'></img>	89,71	2750.0	test	<img class = center src='/static/experiments/beast_fmri_test/images/redP.png'></img>	go	2100.0	2.0	23.0	go	non-target	P	89,Middle Finger	71,Index Finger	650.0	650.0	2100.0	2100.0	1.0	650.0	1.0	n/a	go_stim
117323.84994741471	942.15005258527162	n/a	1266	71	2750	942.150052585	stim	stop-signal	248	731136	0.0-13.23-1.23	beast_fmri_test	349	728414,/,729095,/,729774,/,730454,/,731133,/,731813,/	t,t,t,t,t,t	<img class = center src='/static/experiments/beast_fmri_test/images/P.png'></img>	89,71	2750.0	test	<img class = center src='/static/experiments/beast_fmri_test/images/redP.png'></img>	go	2100.0	2.0	23.0	go	non-target	P	89,Middle Finger	71,Index Finger	650.0	650.0	2100.0	2100.0	1.0	650.0	1.0	n/a	ITI
119733	500	n/a	-1	-1	500	0.0	fixation	poldrack-single-stim	249	732603	0.0-13.24-0.24	beast_fmri_test	349	732493,/	t	<div class = centerbox2><div class = fixation>+</div></div>	none	500.0	test	n/a	n/a	n/a	n/a	n/a	n/a	n/a	n/a	n/a	n/a	n/a	n/a	n/a	n/a	n/a	n/a	n/a	n/a	fixation
119597.38606853993	2750	n/a	1085	71	2750	138.61393146	stim	stop-signal	250	735356	0.0-13.24-1.24	beast_fmri_test	349	733171,/,733852,/,734531,/,735212,/	t,t,t,t	<img class = center src='/static/experiments/beast_fmri_test/images/B.png'></img>	89,71	2750.0	test	<img class = center src='/static/experiments/beast_fmri_test/images/redB.png'></img>	go	2100.0	2.0	24.0	go	non-target	B	89,Middle Finger	71,Index Finger	650.0	650.0	2100.0	2100.0	1.0	650.0	1.0	n/a	go_stim
122347.38606853993	138.61393146012151	n/a	1085	71	2750	138.61393146	stim	stop-signal	250	735356	0.0-13.24-1.24	beast_fmri_test	349	733171,/,733852,/,734531,/,735212,/	t,t,t,t	<img class = center src='/static/experiments/beast_fmri_test/images/B.png'></img>	89,71	2750.0	test	<img class = center src='/static/experiments/beast_fmri_test/images/redB.png'></img>	go	2100.0	2.0	24.0	go	non-target	B	89,Middle Finger	71,Index Finger	650.0	650.0	2100.0	2100.0	1.0	650.0	1.0	n/a	ITI
123149	500	n/a	-1	-1	500	0.0	fixation	poldrack-single-stim	251	736019	0.0-13.25-0.25	beast_fmri_test	349	735890,/	t	<div class = centerbox2><div class = fixation>+</div></div>	none	500.0	test	n/a	n/a	n/a	n/a	n/a	n/a	n/a	n/a	n/a	n/a	n/a	n/a	n/a	n/a	n/a	n/a	n/a	n/a	fixation
122119.4676347432	2750	n/a	1882	71	2750	1030.53236526	stim	stop-signal	252	738770	0.0-13.25-1.25	beast_fmri_test	349	736570,/,737250,/,737930,/,738608,/,739290,/	t,t,t,t,t	<img class = center src='/static/experiments/beast_fmri_test/images/V.png'></img>	89,71	2750.0	test	<img class = center src='/static/experiments/beast_fmri_test/images/redV.png'></img>	go	2100.0	2.0	25.0	go	non-target	V	89,Middle Finger	71,Index Finger	650.0	650.0	2100.0	2100.0	1.0	650.0	1.0	n/a	go_stim
124869.4676347432	1030.5323652567538	n/a	1882	71	2750	1030.53236526	stim	stop-signal	252	738770	0.0-13.25-1.25	beast_fmri_test	349	736570,/,737250,/,737930,/,738608,/,739290,/	t,t,t,t,t	<img class = center src='/static/experiments/beast_fmri_test/images/V.png'></img>	89,71	2750.0	test	<img class = center src='/static/experiments/beast_fmri_test/images/redV.png'></img>	go	2100.0	2.0	25.0	go	non-target	V	89,Middle Finger	71,Index Finger	650.0	650.0	2100.0	2100.0	1.0	650.0	1.0	n/a	ITI
127454	500	n/a	-1	-1	500	0.0	fixation	poldrack-single-stim	253	740324	0.0-13.26-0.26	beast_fmri_test	349	739968,/	t	<div class = centerbox2><div class = fixation>+</div></div>	none	500.0	test	n/a	n/a	n/a	n/a	n/a	n/a	n/a	n/a	n/a	n/a	n/a	n/a	n/a	n/a	n/a	n/a	n/a	n/a	fixation
126997.31546582701	650.0	n/a	-1	-1	2750	457.684534173	stim	stop-signal	254	743075	0.0-13.26-1.26	beast_fmri_test	349	740648,/,741327,/,742007,/,742688,/,743366,/	t,t,t,t,t	<img class = center src='/static/experiments/beast_fmri_test/images/P.png'></img>	89,71	2750.0	test	<img class = center src='/static/experiments/beast_fmri_test/images/redP.png'></img>	stop	2100.0	2.0	26.0	stop	non-target	P	89,Middle Finger	71,Index Finger	650.0	650.0	2100.0	2100.0	0.0	650.0	n/a	1.0	go_stim
129097.31546582701	2100.0	n/a	-1	-1	2750	457.684534173	stim	stop-signal	254	743075	0.0-13.26-1.26	beast_fmri_test	349	740648,/,741327,/,742007,/,742688,/,743366,/	t,t,t,t,t	<img class = center src='/static/experiments/beast_fmri_test/images/P.png'></img>	89,71	2750.0	test	<img class = center src='/static/experiments/beast_fmri_test/images/redP.png'></img>	stop	2100.0	2.0	26.0	stop	non-target	P	89,Middle Finger	71,Index Finger	650.0	650.0	2100.0	2100.0	0.0	650.0	n/a	1.0	stop_stim
129747.31546582701	457.68453417298559	n/a	-1	-1	2750	457.684534173	stim	stop-signal	254	743075	0.0-13.26-1.26	beast_fmri_test	349	740648,/,741327,/,742007,/,742688,/,743366,/	t,t,t,t,t	<img class = center src='/static/experiments/beast_fmri_test/images/P.png'></img>	89,71	2750.0	test	<img class = center src='/static/experiments/beast_fmri_test/images/redP.png'></img>	stop	2100.0	2.0	26.0	stop	non-target	P	89,Middle Finger	71,Index Finger	650.0	650.0	2100.0	2100.0	0.0	650.0	n/a	1.0	ITI
131191	500	n/a	-1	-1	500	0.0	fixation	poldrack-single-stim	255	744061	0.0-13.27-0.27	beast_fmri_test	349	744047,/	t	<div class = centerbox2><div class = fixation>+</div></div>	none	500.0	test	n/a	n/a	n/a	n/a	n/a	n/a	n/a	n/a	n/a	n/a	n/a	n/a	n/a	n/a	n/a	n/a	n/a	n/a	fixation
130362.75622276089	2750	n/a	2212	71	2750	829.243777239	stim	stop-signal	256	746812	0.0-13.27-1.27	beast_fmri_test	349	744726,/,745407,/,746085,/,746765,/,747444,/	t,t,t,t,t	<img class = center src='/static/experiments/beast_fmri_test/images/P.png'></img>	89,71	2750.0	test	<img class = center src='/static/experiments/beast_fmri_test/images/redP.png'></img>	go	2050.0	2.0	27.0	go	non-target	P	89,Middle Finger	71,Index Finger	650.0	700.0	2100.0	2050.0	1.0	700.0	1.0	n/a	go_stim
133112.75622276089	829.24377723913574	n/a	2212	71	2750	829.243777239	stim	stop-signal	256	746812	0.0-13.27-1.27	beast_fmri_test	349	744726,/,745407,/,746085,/,746765,/,747444,/	t,t,t,t,t	<img class = center src='/static/experiments/beast_fmri_test/images/P.png'></img>	89,71	2750.0	test	<img class = center src='/static/experiments/beast_fmri_test/images/redP.png'></img>	go	2050.0	2.0	27.0	go	non-target	P	89,Middle Finger	71,Index Finger	650.0	700.0	2100.0	2050.0	1.0	700.0	1.0	n/a	ITI
135300	500	n/a	-1	-1	500	0.0	fixation	poldrack-single-stim	257	748170	0.0-13.28-0.28	beast_fmri_test	349	748125,/	t	<div class = centerbox2><div class = fixation>+</div></div>	none	500.0	test	n/a	n/a	n/a	n/a	n/a	n/a	n/a	n/a	n/a	n/a	n/a	n/a	n/a	n/a	n/a	n/a	n/a	n/a	fixation
134625.92387981585	2750	n/a	1685	71	2750	675.076120184	stim	stop-signal	258	750921	0.0-13.28-1.28	beast_fmri_test	349	748805,/,749485,/,750165,/,750842,/,751524,/	t,t,t,t,t	<img class = center src='/static/experiments/beast_fmri_test/images/B.png'></img>	89,71	2750.0	test	<img class = center src='/static/experiments/beast_fmri_test/images/redB.png'></img>	go	2050.0	2.0	28.0	go	non-target	B	89,Middle Finger	71,Index Finger	650.0	700.0	2100.0	2050.0	1.0	700.0	1.0	n/a	go_stim
137375.92387981585	675.07612018412931	n/a	1685	71	2750	675.076120184	stim	stop-signal	258	750921	0.0-13.28-1.28	beast_fmri_test	349	748805,/,749485,/,750165,/,750842,/,751524,/	t,t,t,t,t	<img class = center src='/static/experiments/beast_fmri_test/images/B.png'></img>	89,71	2750.0	test	<img class = center src='/static/experiments/beast_fmri_test/images/redB.png'></img>	go	2050.0	2.0	28.0	go	non-target	B	89,Middle Finger	71,Index Finger	650.0	700.0	2100.0	2050.0	1.0	700.0	1.0	n/a	ITI
139256	500	n/a	-1	-1	500	0.0	fixation	poldrack-single-stim	259	752126	0.0-13.29-0.29	beast_fmri_test	349	n/a	n/a	<div class = centerbox2><div class = fixation>+</div></div>	none	500.0	test	n/a	n/a	n/a	n/a	n/a	n/a	n/a	n/a	n/a	n/a	n/a	n/a	n/a	n/a	n/a	n/a	n/a	n/a	fixation
138972.06774040835	2750	n/a	1793	71	2750	284.932259592	stim	stop-signal	260	754877	0.0-13.29-1.29	beast_fmri_test	349	752203,/,752883,/,753562,/,754243,/,754921,/	t,t,t,t,t	<img class = center src='/static/experiments/beast_fmri_test/images/V.png'></img>	89,71	2750.0	test	<img class = center src='/static/experiments/beast_fmri_test/images/redV.png'></img>	go	2050.0	2.0	29.0	go	non-target	V	89,Middle Finger	71,Index Finger	650.0	700.0	2100.0	2050.0	1.0	700.0	1.0	n/a	go_stim
141722.06774040835	284.93225959166284	n/a	1793	71	2750	284.932259592	stim	stop-signal	260	754877	0.0-13.29-1.29	beast_fmri_test	349	752203,/,752883,/,753562,/,754243,/,754921,/	t,t,t,t,t	<img class = center src='/static/experiments/beast_fmri_test/images/V.png'></img>	89,71	2750.0	test	<img class = center src='/static/experiments/beast_fmri_test/images/redV.png'></img>	go	2050.0	2.0	29.0	go	non-target	V	89,Middle Finger	71,Index Finger	650.0	700.0	2100.0	2050.0	1.0	700.0	1.0	n/a	ITI
142821	500	n/a	-1	-1	500	0.0	fixation	poldrack-single-stim	261	755691	0.0-13.30-0.30	beast_fmri_test	349	755602,/	t	<div class = centerbox2><div class = fixation>+</div></div>	none	500.0	test	n/a	n/a	n/a	n/a	n/a	n/a	n/a	n/a	n/a	n/a	n/a	n/a	n/a	n/a	n/a	n/a	n/a	n/a	fixation
142565.79760817136	650.0	n/a	-1	-1	2750	257.202391829	stim	stop-signal	262	758443	0.0-13.30-1.30	beast_fmri_test	349	756281,/,756962,/,757640,/,758322,/	t,t,t,t	<img class = center src='/static/experiments/beast_fmri_test/images/B.png'></img>	89,71	2750.0	test	<img class = center src='/static/experiments/beast_fmri_test/images/redB.png'></img>	stop	2100.0	2.0	30.0	stop	target	B	89,Middle Finger	71,Index Finger	650.0	700.0	2100.0	2050.0	0.0	650.0	n/a	1.0	go_stim
144665.79760817136	2100.0	n/a	-1	-1	2750	257.202391829	stim	stop-signal	262	758443	0.0-13.30-1.30	beast_fmri_test	349	756281,/,756962,/,757640,/,758322,/	t,t,t,t	<img class = center src='/static/experiments/beast_fmri_test/images/B.png'></img>	89,71	2750.0	test	<img class = center src='/static/experiments/beast_fmri_test/images/redB.png'></img>	stop	2100.0	2.0	30.0	stop	target	B	89,Middle Finger	71,Index Finger	650.0	700.0	2100.0	2050.0	0.0	650.0	n/a	1.0	stop_stim
145315.79760817136	257.20239182867169	n/a	-1	-1	2750	257.202391829	stim	stop-signal	262	758443	0.0-13.30-1.30	beast_fmri_test	349	756281,/,756962,/,757640,/,758322,/	t,t,t,t	<img class = center src='/static/experiments/beast_fmri_test/images/B.png'></img>	89,71	2750.0	test	<img class = center src='/static/experiments/beast_fmri_test/images/redB.png'></img>	stop	2100.0	2.0	30.0	stop	target	B	89,Middle Finger	71,Index Finger	650.0	700.0	2100.0	2050.0	0.0	650.0	n/a	1.0	ITI
146360	500	n/a	-1	-1	500	0.0	fixation	poldrack-single-stim	263	759230	0.0-13.31-0.31	beast_fmri_test	349	758999,/	t	<div class = centerbox2><div class = fixation>+</div></div>	none	500.0	test	n/a	n/a	n/a	n/a	n/a	n/a	n/a	n/a	n/a	n/a	n/a	n/a	n/a	n/a	n/a	n/a	n/a	n/a	fixation
146352.61481076945	700.0	n/a	-1	-1	2750	9.38518923059	stim	stop-signal	264	761982	0.0-13.31-1.31	beast_fmri_test	349	759680,/,760359,/,761038,/,761719,/	t,t,t,t	<img class = center src='/static/experiments/beast_fmri_test/images/T.png'></img>	89,71	2750.0	test	<img class = center src='/static/experiments/beast_fmri_test/images/redT.png'></img>	stop	2050.0	2.0	31.0	stop	non-target	T	89,Middle Finger	71,Index Finger	700.0	700.0	2100.0	2050.0	0.0	700.0	n/a	1.0	go_stim
148402.61481076945	2050.0	n/a	-1	-1	2750	9.38518923059	stim	stop-signal	264	761982	0.0-13.31-1.31	beast_fmri_test	349	759680,/,760359,/,761038,/,761719,/	t,t,t,t	<img class = center src='/static/experiments/beast_fmri_test/images/T.png'></img>	89,71	2750.0	test	<img class = center src='/static/experiments/beast_fmri_test/images/redT.png'></img>	stop	2050.0	2.0	31.0	stop	non-target	T	89,Middle Finger	71,Index Finger	700.0	700.0	2100.0	2050.0	0.0	700.0	n/a	1.0	stop_stim
149102.61481076945	9.3851892305864624	n/a	-1	-1	2750	9.38518923059	stim	stop-signal	264	761982	0.0-13.31-1.31	beast_fmri_test	349	759680,/,760359,/,761038,/,761719,/	t,t,t,t	<img class = center src='/static/experiments/beast_fmri_test/images/T.png'></img>	89,71	2750.0	test	<img class = center src='/static/experiments/beast_fmri_test/images/redT.png'></img>	stop	2050.0	2.0	31.0	stop	non-target	T	89,Middle Finger	71,Index Finger	700.0	700.0	2100.0	2050.0	0.0	700.0	n/a	1.0	ITI
149648	500	n/a	-1	-1	500	0.0	fixation	poldrack-single-stim	265	762518	0.0-13.32-0.32	beast_fmri_test	349	762399,/	t	<div class = centerbox2><div class = fixation>+</div></div>	none	500.0	test	n/a	n/a	n/a	n/a	n/a	n/a	n/a	n/a	n/a	n/a	n/a	n/a	n/a	n/a	n/a	n/a	n/a	n/a	fixation
148127.36066619761	2750	n/a	2616	71	2750	1522.6393338	stim	stop-signal	266	765270	0.0-13.32-1.32	beast_fmri_test	349	763079,/,763757,/,764437,/,765118,/,765797,/,766477,/	t,t,t,t,t,t	<img class = center src='/static/experiments/beast_fmri_test/images/P.png'></img>	89,71	2750.0	test	<img class = center src='/static/experiments/beast_fmri_test/images/redP.png'></img>	go	2000.0	2.0	32.0	go	non-target	P	89,Middle Finger	71,Index Finger	700.0	750.0	2100.0	2000.0	1.0	750.0	1.0	n/a	go_stim
150877.36066619761	1522.6393338023902	n/a	2616	71	2750	1522.6393338	stim	stop-signal	266	765270	0.0-13.32-1.32	beast_fmri_test	349	763079,/,763757,/,764437,/,765118,/,765797,/,766477,/	t,t,t,t,t,t	<img class = center src='/static/experiments/beast_fmri_test/images/P.png'></img>	89,71	2750.0	test	<img class = center src='/static/experiments/beast_fmri_test/images/redP.png'></img>	go	2000.0	2.0	32.0	go	non-target	P	89,Middle Finger	71,Index Finger	700.0	750.0	2100.0	2000.0	1.0	750.0	1.0	n/a	ITI
154451	500	n/a	-1	-1	500	0.0	fixation	poldrack-single-stim	267	767321	0.0-13.33-0.33	beast_fmri_test	349	767157,/	t	<div class = centerbox2><div class = fixation>+</div></div>	none	500.0	test	n/a	n/a	n/a	n/a	n/a	n/a	n/a	n/a	n/a	n/a	n/a	n/a	n/a	n/a	n/a	n/a	n/a	n/a	fixation
153631.77438151592	2750	n/a	1381	71	2750	821.225618484	stim	stop-signal	268	770073	0.0-13.33-1.33	beast_fmri_test	349	767835,/,768516,/,769194,/,769875,/,770553,/	t,t,t,t,t	<img class = center src='/static/experiments/beast_fmri_test/images/B.png'></img>	89,71	2750.0	test	<img class = center src='/static/experiments/beast_fmri_test/images/redB.png'></img>	go	2000.0	2.0	33.0	go	non-target	B	89,Middle Finger	71,Index Finger	700.0	750.0	2100.0	2000.0	1.0	750.0	1.0	n/a	go_stim
156381.77438151592	821.22561848413648	n/a	1381	71	2750	821.225618484	stim	stop-signal	268	770073	0.0-13.33-1.33	beast_fmri_test	349	767835,/,768516,/,769194,/,769875,/,770553,/	t,t,t,t,t	<img class = center src='/static/experiments/beast_fmri_test/images/B.png'></img>	89,71	2750.0	test	<img class = center src='/static/experiments/beast_fmri_test/images/redB.png'></img>	go	2000.0	2.0	33.0	go	non-target	B	89,Middle Finger	71,Index Finger	700.0	750.0	2100.0	2000.0	1.0	750.0	1.0	n/a	ITI
158554	500	n/a	-1	-1	500	0.0	fixation	poldrack-single-stim	269	771424	0.0-13.34-0.34	beast_fmri_test	349	771235,/	t	<div class = centerbox2><div class = fixation>+</div></div>	none	500.0	test	n/a	n/a	n/a	n/a	n/a	n/a	n/a	n/a	n/a	n/a	n/a	n/a	n/a	n/a	n/a	n/a	n/a	n/a	fixation
154266.76529714861	750.0	n/a	1113	71	2750	4288.23470285	stim	stop-signal	270	774175	0.0-13.34-1.34	beast_fmri_test	349	771913,/,772593,/,773274,/,773952,/,774632,/,775313,/,775992,/,776670,/,777351,/,778030,/	t,t,t,t,t,t,t,t,t,t	<img class = center src='/static/experiments/beast_fmri_test/images/V.png'></img>	89,71	2750.0	test	<img class = center src='/static/experiments/beast_fmri_test/images/redV.png'></img>	stop	2000.0	2.0	34.0	stop	non-target	V	89,Middle Finger	71,Index Finger	700.0	750.0	2100.0	2000.0	0.0	750.0	n/a	0.0	go_stim
156266.76529714861	2000.0	n/a	1113	71	2750	4288.23470285	stim	stop-signal	270	774175	0.0-13.34-1.34	beast_fmri_test	349	771913,/,772593,/,773274,/,773952,/,774632,/,775313,/,775992,/,776670,/,777351,/,778030,/	t,t,t,t,t,t,t,t,t,t	<img class = center src='/static/experiments/beast_fmri_test/images/V.png'></img>	89,71	2750.0	test	<img class = center src='/static/experiments/beast_fmri_test/images/redV.png'></img>	stop	2000.0	2.0	34.0	stop	non-target	V	89,Middle Finger	71,Index Finger	700.0	750.0	2100.0	2000.0	0.0	750.0	n/a	0.0	stop_stim
157016.76529714861	4288.2347028513423	n/a	1113	71	2750	4288.23470285	stim	stop-signal	270	774175	0.0-13.34-1.34	beast_fmri_test	349	771913,/,772593,/,773274,/,773952,/,774632,/,775313,/,775992,/,776670,/,777351,/,778030,/	t,t,t,t,t,t,t,t,t,t	<img class = center src='/static/experiments/beast_fmri_test/images/V.png'></img>	89,71	2750.0	test	<img class = center src='/static/experiments/beast_fmri_test/images/redV.png'></img>	stop	2000.0	2.0	34.0	stop	non-target	V	89,Middle Finger	71,Index Finger	700.0	750.0	2100.0	2000.0	0.0	750.0	n/a	0.0	ITI
166121	500	n/a	-1	-1	500	0.0	fixation	poldrack-single-stim	271	778991	0.0-13.35-0.35	beast_fmri_test	349	778711,/	t	<div class = centerbox2><div class = fixation>+</div></div>	none	500.0	test	n/a	n/a	n/a	n/a	n/a	n/a	n/a	n/a	n/a	n/a	n/a	n/a	n/a	n/a	n/a	n/a	n/a	n/a	fixation
165228.08822676237	2750	n/a	960	89	2750	894.911773238	stim	stop-signal	272	781743	0.0-13.35-1.35	beast_fmri_test	349	779391,/,780071,/,780749,/,781431,/,782109,/	t,t,t,t,t	<img class = center src='/static/experiments/beast_fmri_test/images/B.png'></img>	89,71	2750.0	test	<img class = center src='/static/experiments/beast_fmri_test/images/redB.png'></img>	go	2050.0	2.0	35.0	go	target	B	89,Middle Finger	71,Index Finger	700.0	700.0	2050.0	2000.0	1.0	700.0	1.0	n/a	go_stim
167978.08822676237	894.91177323766874	n/a	960	89	2750	894.911773238	stim	stop-signal	272	781743	0.0-13.35-1.35	beast_fmri_test	349	779391,/,780071,/,780749,/,781431,/,782109,/	t,t,t,t,t	<img class = center src='/static/experiments/beast_fmri_test/images/B.png'></img>	89,71	2750.0	test	<img class = center src='/static/experiments/beast_fmri_test/images/redB.png'></img>	go	2050.0	2.0	35.0	go	target	B	89,Middle Finger	71,Index Finger	700.0	700.0	2050.0	2000.0	1.0	700.0	1.0	n/a	ITI
170298	500	n/a	-1	-1	500	0.0	fixation	poldrack-single-stim	273	783168	0.0-13.36-0.36	beast_fmri_test	349	782790,/	t	<div class = centerbox2><div class = fixation>+</div></div>	none	500.0	test	n/a	n/a	n/a	n/a	n/a	n/a	n/a	n/a	n/a	n/a	n/a	n/a	n/a	n/a	n/a	n/a	n/a	n/a	fixation
170160.07676705543	2750	n/a	1317	71	2750	140.923232945	stim	stop-signal	274	785921	0.0-13.36-1.36	beast_fmri_test	349	783470,/,784149,/,784829,/,785509,/	t,t,t,t	<img class = center src='/static/experiments/beast_fmri_test/images/D.png'></img>	89,71	2750.0	test	<img class = center src='/static/experiments/beast_fmri_test/images/redD.png'></img>	go	2050.0	2.0	36.0	go	non-target	D	89,Middle Finger	71,Index Finger	700.0	700.0	2050.0	2050.0	1.0	700.0	1.0	n/a	go_stim
172910.07676705543	140.92323294454292	n/a	1317	71	2750	140.923232945	stim	stop-signal	274	785921	0.0-13.36-1.36	beast_fmri_test	349	783470,/,784149,/,784829,/,785509,/	t,t,t,t	<img class = center src='/static/experiments/beast_fmri_test/images/D.png'></img>	89,71	2750.0	test	<img class = center src='/static/experiments/beast_fmri_test/images/redD.png'></img>	go	2050.0	2.0	36.0	go	non-target	D	89,Middle Finger	71,Index Finger	700.0	700.0	2050.0	2050.0	1.0	700.0	1.0	n/a	ITI
173721	500	n/a	-1	-1	500	0.0	fixation	poldrack-single-stim	275	786591	0.0-13.37-0.37	beast_fmri_test	349	786188,/	t	<div class = centerbox2><div class = fixation>+</div></div>	none	500.0	test	n/a	n/a	n/a	n/a	n/a	n/a	n/a	n/a	n/a	n/a	n/a	n/a	n/a	n/a	n/a	n/a	n/a	n/a	fixation
173692.71198228549	2750	n/a	1187	71	2750	30.2880177145	stim	stop-signal	276	789343	0.0-13.37-1.37	beast_fmri_test	349	786867,/,787547,/,788226,/,788907,/	t,t,t,t	<img class = center src='/static/experiments/beast_fmri_test/images/T.png'></img>	89,71	2750.0	test	<img class = center src='/static/experiments/beast_fmri_test/images/redT.png'></img>	go	2050.0	2.0	37.0	go	non-target	T	89,Middle Finger	71,Index Finger	700.0	700.0	2050.0	2050.0	1.0	700.0	1.0	n/a	go_stim
176442.71198228549	30.288017714501489	n/a	1187	71	2750	30.2880177145	stim	stop-signal	276	789343	0.0-13.37-1.37	beast_fmri_test	349	786867,/,787547,/,788226,/,788907,/	t,t,t,t	<img class = center src='/static/experiments/beast_fmri_test/images/T.png'></img>	89,71	2750.0	test	<img class = center src='/static/experiments/beast_fmri_test/images/redT.png'></img>	go	2050.0	2.0	37.0	go	non-target	T	89,Middle Finger	71,Index Finger	700.0	700.0	2050.0	2050.0	1.0	700.0	1.0	n/a	ITI
177031	500	n/a	-1	-1	500	0.0	fixation	poldrack-single-stim	277	789901	0.0-13.38-0.38	beast_fmri_test	349	789585,/	t	<div class = centerbox2><div class = fixation>+</div></div>	none	500.0	test	n/a	n/a	n/a	n/a	n/a	n/a	n/a	n/a	n/a	n/a	n/a	n/a	n/a	n/a	n/a	n/a	n/a	n/a	fixation
176275.8904381881	700.0	n/a	-1	-1	2750	757.109561812	stim	stop-signal	278	792653	0.0-13.38-1.38	beast_fmri_test	349	790267,/,790945,/,791624,/,792305,/,792985,/	t,t,t,t,t	<img class = center src='/static/experiments/beast_fmri_test/images/B.png'></img>	89,71	2750.0	test	<img class = center src='/static/experiments/beast_fmri_test/images/redB.png'></img>	stop	2050.0	2.0	38.0	stop	non-target	B	89,Middle Finger	71,Index Finger	700.0	700.0	2050.0	2050.0	0.0	700.0	n/a	1.0	go_stim
178325.8904381881	2050.0	n/a	-1	-1	2750	757.109561812	stim	stop-signal	278	792653	0.0-13.38-1.38	beast_fmri_test	349	790267,/,790945,/,791624,/,792305,/,792985,/	t,t,t,t,t	<img class = center src='/static/experiments/beast_fmri_test/images/B.png'></img>	89,71	2750.0	test	<img class = center src='/static/experiments/beast_fmri_test/images/redB.png'></img>	stop	2050.0	2.0	38.0	stop	non-target	B	89,Middle Finger	71,Index Finger	700.0	700.0	2050.0	2050.0	0.0	700.0	n/a	1.0	stop_stim
179025.8904381881	757.10956181186907	n/a	-1	-1	2750	757.109561812	stim	stop-signal	278	792653	0.0-13.38-1.38	beast_fmri_test	349	790267,/,790945,/,791624,/,792305,/,792985,/	t,t,t,t,t	<img class = center src='/static/experiments/beast_fmri_test/images/B.png'></img>	89,71	2750.0	test	<img class = center src='/static/experiments/beast_fmri_test/images/redB.png'></img>	stop	2050.0	2.0	38.0	stop	non-target	B	89,Middle Finger	71,Index Finger	700.0	700.0	2050.0	2050.0	0.0	700.0	n/a	1.0	ITI
181070	500	n/a	-1	-1	500	0.0	fixation	poldrack-single-stim	279	793940	0.0-13.39-0.39	beast_fmri_test	349	793664,/	t	<div class = centerbox2><div class = fixation>+</div></div>	none	500.0	test	n/a	n/a	n/a	n/a	n/a	n/a	n/a	n/a	n/a	n/a	n/a	n/a	n/a	n/a	n/a	n/a	n/a	n/a	fixation
180342.25279173057	2750	n/a	924	89	2750	727.747208269	stim	stop-signal	280	796690	0.0-13.39-1.39	beast_fmri_test	349	794343,/,795023,/,795702,/,796383,/,797061,/	t,t,t,t,t	<img class = center src='/static/experiments/beast_fmri_test/images/T.png'></img>	89,71	2750.0	test	<img class = center src='/static/experiments/beast_fmri_test/images/redT.png'></img>	go	2050.0	2.0	39.0	go	target	T	89,Middle Finger	71,Index Finger	700.0	750.0	2050.0	2050.0	1.0	700.0	1.0	n/a	go_stim
183092.25279173057	727.74720826941973	n/a	924	89	2750	727.747208269	stim	stop-signal	280	796690	0.0-13.39-1.39	beast_fmri_test	349	794343,/,795023,/,795702,/,796383,/,797061,/	t,t,t,t,t	<img class = center src='/static/experiments/beast_fmri_test/images/T.png'></img>	89,71	2750.0	test	<img class = center src='/static/experiments/beast_fmri_test/images/redT.png'></img>	go	2050.0	2.0	39.0	go	target	T	89,Middle Finger	71,Index Finger	700.0	750.0	2050.0	2050.0	1.0	700.0	1.0	n/a	ITI
185075	500	n/a	-1	-1	500	0.0	fixation	poldrack-single-stim	281	797945	0.0-13.40-0.40	beast_fmri_test	349	797742,/	t	<div class = centerbox2><div class = fixation>+</div></div>	none	500.0	test	n/a	n/a	n/a	n/a	n/a	n/a	n/a	n/a	n/a	n/a	n/a	n/a	n/a	n/a	n/a	n/a	n/a	n/a	fixation
184234.88146240497	2750	n/a	1842	71	2750	842.118537595	stim	stop-signal	282	800697	0.0-13.40-1.40	beast_fmri_test	349	798421,/,799102,/,799780,/,800460,/,801141,/	t,t,t,t,t	<img class = center src='/static/experiments/beast_fmri_test/images/P.png'></img>	89,71	2750.0	test	<img class = center src='/static/experiments/beast_fmri_test/images/redP.png'></img>	go	2000.0	2.0	40.0	go	non-target	P	89,Middle Finger	71,Index Finger	700.0	750.0	2050.0	2000.0	1.0	750.0	1.0	n/a	go_stim
186984.88146240497	842.11853759503413	n/a	1842	71	2750	842.118537595	stim	stop-signal	282	800697	0.0-13.40-1.40	beast_fmri_test	349	798421,/,799102,/,799780,/,800460,/,801141,/	t,t,t,t,t	<img class = center src='/static/experiments/beast_fmri_test/images/P.png'></img>	89,71	2750.0	test	<img class = center src='/static/experiments/beast_fmri_test/images/redP.png'></img>	go	2000.0	2.0	40.0	go	non-target	P	89,Middle Finger	71,Index Finger	700.0	750.0	2050.0	2000.0	1.0	750.0	1.0	n/a	ITI
189199	500	n/a	-1	-1	500	0.0	fixation	poldrack-single-stim	283	802069	0.0-13.41-0.41	beast_fmri_test	349	801819,/	t	<div class = centerbox2><div class = fixation>+</div></div>	none	500.0	test	n/a	n/a	n/a	n/a	n/a	n/a	n/a	n/a	n/a	n/a	n/a	n/a	n/a	n/a	n/a	n/a	n/a	n/a	fixation
188627.64728637261	2750	n/a	2097	71	2750	572.352713627	stim	stop-signal	284	804820	0.0-13.41-1.41	beast_fmri_test	349	802499,/,803178,/,803859,/,804539,/,805219,/	t,t,t,t,t	<img class = center src='/static/experiments/beast_fmri_test/images/P.png'></img>	89,71	2750.0	test	<img class = center src='/static/experiments/beast_fmri_test/images/redP.png'></img>	go	2000.0	2.0	41.0	go	non-target	P	89,Middle Finger	71,Index Finger	700.0	750.0	2050.0	2000.0	1.0	750.0	1.0	n/a	go_stim
191377.64728637261	572.35271362742697	n/a	2097	71	2750	572.352713627	stim	stop-signal	284	804820	0.0-13.41-1.41	beast_fmri_test	349	802499,/,803178,/,803859,/,804539,/,805219,/	t,t,t,t,t	<img class = center src='/static/experiments/beast_fmri_test/images/P.png'></img>	89,71	2750.0	test	<img class = center src='/static/experiments/beast_fmri_test/images/redP.png'></img>	go	2000.0	2.0	41.0	go	non-target	P	89,Middle Finger	71,Index Finger	700.0	750.0	2050.0	2000.0	1.0	750.0	1.0	n/a	ITI
193052	500	n/a	-1	-1	500	0.0	fixation	poldrack-single-stim	285	805922	0.0-13.42-0.42	beast_fmri_test	349	805897,/	t	<div class = centerbox2><div class = fixation>+</div></div>	none	500.0	test	n/a	n/a	n/a	n/a	n/a	n/a	n/a	n/a	n/a	n/a	n/a	n/a	n/a	n/a	n/a	n/a	n/a	n/a	fixation
192279.91282485204	2750	n/a	950	89	2750	773.087175148	stim	stop-signal	286	808673	0.0-13.42-1.42	beast_fmri_test	349	806578,/,807257,/,807937,/,808616,/,809298,/	t,t,t,t,t	<img class = center src='/static/experiments/beast_fmri_test/images/P.png'></img>	89,71	2750.0	test	<img class = center src='/static/experiments/beast_fmri_test/images/redP.png'></img>	go	2050.0	2.0	42.0	go	target	P	89,Middle Finger	71,Index Finger	700.0	750.0	2050.0	2000.0	1.0	700.0	1.0	n/a	go_stim
195029.91282485204	773.0871751479292	n/a	950	89	2750	773.087175148	stim	stop-signal	286	808673	0.0-13.42-1.42	beast_fmri_test	349	806578,/,807257,/,807937,/,808616,/,809298,/	t,t,t,t,t	<img class = center src='/static/experiments/beast_fmri_test/images/P.png'></img>	89,71	2750.0	test	<img class = center src='/static/experiments/beast_fmri_test/images/redP.png'></img>	go	2050.0	2.0	42.0	go	target	P	89,Middle Finger	71,Index Finger	700.0	750.0	2050.0	2000.0	1.0	700.0	1.0	n/a	ITI
197107	500	n/a	-1	-1	500	0.0	fixation	poldrack-single-stim	287	809977	0.0-13.43-0.43	beast_fmri_test	349	809976,/	t	<div class = centerbox2><div class = fixation>+</div></div>	none	500.0	test	n/a	n/a	n/a	n/a	n/a	n/a	n/a	n/a	n/a	n/a	n/a	n/a	n/a	n/a	n/a	n/a	n/a	n/a	fixation
195789.89654465567	2750	n/a	1308	71	2750	1319.10345534	stim	stop-signal	288	812729	0.0-13.43-1.43	beast_fmri_test	349	810657,/,811337,/,812016,/,812695,/,813375,/	t,t,t,t,t	<img class = center src='/static/experiments/beast_fmri_test/images/V.png'></img>	89,71	2750.0	test	<img class = center src='/static/experiments/beast_fmri_test/images/redV.png'></img>	go	2000.0	2.0	43.0	go	non-target	V	89,Middle Finger	71,Index Finger	700.0	750.0	2050.0	2000.0	1.0	750.0	1.0	n/a	go_stim
198539.89654465567	1319.1034553443296	n/a	1308	71	2750	1319.10345534	stim	stop-signal	288	812729	0.0-13.43-1.43	beast_fmri_test	349	810657,/,811337,/,812016,/,812695,/,813375,/	t,t,t,t,t	<img class = center src='/static/experiments/beast_fmri_test/images/V.png'></img>	89,71	2750.0	test	<img class = center src='/static/experiments/beast_fmri_test/images/redV.png'></img>	go	2000.0	2.0	43.0	go	non-target	V	89,Middle Finger	71,Index Finger	700.0	750.0	2050.0	2000.0	1.0	750.0	1.0	n/a	ITI
201710	500	n/a	-1	-1	500	0.0	fixation	poldrack-single-stim	289	814580	0.0-13.44-0.44	beast_fmri_test	349	814079,/	t	<div class = centerbox2><div class = fixation>+</div></div>	none	500.0	test	n/a	n/a	n/a	n/a	n/a	n/a	n/a	n/a	n/a	n/a	n/a	n/a	n/a	n/a	n/a	n/a	n/a	n/a	fixation
201350.0910923091	700.0	n/a	1088	89	2750	362.908907691	stim	stop-signal	290	817333	0.0-13.44-1.44	beast_fmri_test	349	814735,/,815415,/,816093,/,816774,/,817453,/	t,t,t,t,t	<img class = center src='/static/experiments/beast_fmri_test/images/P.png'></img>	89,71	2750.0	test	<img class = center src='/static/experiments/beast_fmri_test/images/redP.png'></img>	stop	2050.0	2.0	44.0	stop	target	P	89,Middle Finger	71,Index Finger	700.0	750.0	2050.0	2000.0	0.0	700.0	n/a	0.0	go_stim
203400.0910923091	2050.0	n/a	1088	89	2750	362.908907691	stim	stop-signal	290	817333	0.0-13.44-1.44	beast_fmri_test	349	814735,/,815415,/,816093,/,816774,/,817453,/	t,t,t,t,t	<img class = center src='/static/experiments/beast_fmri_test/images/P.png'></img>	89,71	2750.0	test	<img class = center src='/static/experiments/beast_fmri_test/images/redP.png'></img>	stop	2050.0	2.0	44.0	stop	target	P	89,Middle Finger	71,Index Finger	700.0	750.0	2050.0	2000.0	0.0	700.0	n/a	0.0	stop_stim
204100.0910923091	362.90890769092397	n/a	1088	89	2750	362.908907691	stim	stop-signal	290	817333	0.0-13.44-1.44	beast_fmri_test	349	814735,/,815415,/,816093,/,816774,/,817453,/	t,t,t,t,t	<img class = center src='/static/experiments/beast_fmri_test/images/P.png'></img>	89,71	2750.0	test	<img class = center src='/static/experiments/beast_fmri_test/images/redP.png'></img>	stop	2050.0	2.0	44.0	stop	target	P	89,Middle Finger	71,Index Finger	700.0	750.0	2050.0	2000.0	0.0	700.0	n/a	0.0	ITI
205357	500	n/a	-1	-1	500	0.0	fixation	poldrack-single-stim	291	818227	0.0-13.45-0.45	beast_fmri_test	349	818134,/	t	<div class = centerbox2><div class = fixation>+</div></div>	none	500.0	test	n/a	n/a	n/a	n/a	n/a	n/a	n/a	n/a	n/a	n/a	n/a	n/a	n/a	n/a	n/a	n/a	n/a	n/a	fixation
201883.58624914743	750.0	n/a	1643	71	2750	3474.41375085	stim	stop-signal	292	820978	0.0-13.45-1.45	beast_fmri_test	349	818812,/,819492,/,820172,/,820852,/,821531,/,822211,/,822890,/,823570,/,824250,/	t,t,t,t,t,t,t,t,t	<img class = center src='/static/experiments/beast_fmri_test/images/D.png'></img>	89,71	2750.0	test	<img class = center src='/static/experiments/beast_fmri_test/images/redD.png'></img>	stop	2000.0	2.0	45.0	stop	non-target	D	89,Middle Finger	71,Index Finger	650.0	750.0	2050.0	2000.0	0.0	750.0	n/a	0.0	go_stim
203883.58624914743	2000.0	n/a	1643	71	2750	3474.41375085	stim	stop-signal	292	820978	0.0-13.45-1.45	beast_fmri_test	349	818812,/,819492,/,820172,/,820852,/,821531,/,822211,/,822890,/,823570,/,824250,/	t,t,t,t,t,t,t,t,t	<img class = center src='/static/experiments/beast_fmri_test/images/D.png'></img>	89,71	2750.0	test	<img class = center src='/static/experiments/beast_fmri_test/images/redD.png'></img>	stop	2000.0	2.0	45.0	stop	non-target	D	89,Middle Finger	71,Index Finger	650.0	750.0	2050.0	2000.0	0.0	750.0	n/a	0.0	stop_stim
204633.58624914743	3474.413750852525	n/a	1643	71	2750	3474.41375085	stim	stop-signal	292	820978	0.0-13.45-1.45	beast_fmri_test	349	818812,/,819492,/,820172,/,820852,/,821531,/,822211,/,822890,/,823570,/,824250,/	t,t,t,t,t,t,t,t,t	<img class = center src='/static/experiments/beast_fmri_test/images/D.png'></img>	89,71	2750.0	test	<img class = center src='/static/experiments/beast_fmri_test/images/redD.png'></img>	stop	2000.0	2.0	45.0	stop	non-target	D	89,Middle Finger	71,Index Finger	650.0	750.0	2050.0	2000.0	0.0	750.0	n/a	0.0	ITI
212115	500	n/a	-1	-1	500	0.0	fixation	poldrack-single-stim	293	824985	0.0-13.46-0.46	beast_fmri_test	349	824929,/	t	<div class = centerbox2><div class = fixation>+</div></div>	none	500.0	test	n/a	n/a	n/a	n/a	n/a	n/a	n/a	n/a	n/a	n/a	n/a	n/a	n/a	n/a	n/a	n/a	n/a	n/a	fixation
210503.07768973254	2750	n/a	2391	71	2750	1613.92231027	stim	stop-signal	294	827737	0.0-13.46-1.46	beast_fmri_test	349	825610,/,826288,/,826969,/,827647,/,828340,/,829008,/	t,t,t,t,t,t	<img class = center src='/static/experiments/beast_fmri_test/images/D.png'></img>	89,71	2750.0	test	<img class = center src='/static/experiments/beast_fmri_test/images/redD.png'></img>	go	2050.0	2.0	46.0	go	non-target	D	89,Middle Finger	71,Index Finger	650.0	700.0	2050.0	2050.0	1.0	700.0	1.0	n/a	go_stim
213253.07768973254	1613.922310267493	n/a	2391	71	2750	1613.92231027	stim	stop-signal	294	827737	0.0-13.46-1.46	beast_fmri_test	349	825610,/,826288,/,826969,/,827647,/,828340,/,829008,/	t,t,t,t,t,t	<img class = center src='/static/experiments/beast_fmri_test/images/D.png'></img>	89,71	2750.0	test	<img class = center src='/static/experiments/beast_fmri_test/images/redD.png'></img>	go	2050.0	2.0	46.0	go	non-target	D	89,Middle Finger	71,Index Finger	650.0	700.0	2050.0	2050.0	1.0	700.0	1.0	n/a	ITI
231507	15000	n/a	-1	-1	15000	0.0	practice-no-stop-feedback	poldrack-single-stim	295	844377	0.0-14.0	beast_fmri_test	349	829687,/,830367,/,831046,/,831726,/,832405,/,833086,/,833764,/,834446,/,835124,/,835805,/,836484,/,837164,/,837843,/,838524,/,839203,/,839883,/,840563,/,841243,/,841923,/,842601,/,843283,/,843962,/	t,t,t,t,t,t,t,t,t,t,t,t,t,t,t,t,t,t,t,t,t,t	"<div class = ""centerbox""><p class = ""block-text"">Your delay is 3 trials.</p><p class = block-text>Please wait for the scanner to start the block</p></div>"	77	15000.0	n/a	n/a	n/a	n/a	n/a	n/a	n/a	n/a	n/a	n/a	n/a	n/a	n/a	n/a	n/a	n/a	n/a	n/a	n/a	practice-no-stop-feedback
232008	500	n/a	-1	-1	500	0.0	fixation	poldrack-single-stim	296	844878	0.0-15.0-0.0	beast_fmri_test	349	844641,/	t	<div class = centerbox2><div class = fixation>+</div></div>	none	500.0	test	n/a	n/a	n/a	n/a	n/a	n/a	n/a	n/a	n/a	n/a	n/a	n/a	n/a	n/a	n/a	n/a	n/a	n/a	fixation
231215.30451134907	2750	n/a	1106	71	2750	793.695488651	stim	stop-signal	297	847629	0.0-15.0-1.0	beast_fmri_test	349	845320,/,846000,/,846679,/,847360,/,848038,/	t,t,t,t,t	<img class = center src='/static/experiments/beast_fmri_test/images/D.png'></img>	89,71	2750.0	test	<img class = center src='/static/experiments/beast_fmri_test/images/redD.png'></img>	go	-1.0	3.0	0.0	go	temp-non-target	D	89,Middle Finger	71,Index Finger	650.0	700.0	2050.0	2050.0	0.0	n/a	n/a	n/a	go_stim
233965.30451134907	793.69548865096465	n/a	1106	71	2750	793.695488651	stim	stop-signal	297	847629	0.0-15.0-1.0	beast_fmri_test	349	845320,/,846000,/,846679,/,847360,/,848038,/	t,t,t,t,t	<img class = center src='/static/experiments/beast_fmri_test/images/D.png'></img>	89,71	2750.0	test	<img class = center src='/static/experiments/beast_fmri_test/images/redD.png'></img>	go	-1.0	3.0	0.0	go	temp-non-target	D	89,Middle Finger	71,Index Finger	650.0	700.0	2050.0	2050.0	0.0	n/a	n/a	n/a	ITI
236085	500	n/a	-1	-1	500	0.0	fixation	poldrack-single-stim	298	848955	0.0-15.1-0.1	beast_fmri_test	349	848719,/	t	<div class = centerbox2><div class = fixation>+</div></div>	none	500.0	test	n/a	n/a	n/a	n/a	n/a	n/a	n/a	n/a	n/a	n/a	n/a	n/a	n/a	n/a	n/a	n/a	n/a	n/a	fixation
235791.39546222682	2750	n/a	1004	71	2750	294.604537773	stim	stop-signal	299	851706	0.0-15.1-1.1	beast_fmri_test	349	849398,/,850078,/,850757,/,851438,/	t,t,t,t	<img class = center src='/static/experiments/beast_fmri_test/images/D.png'></img>	89,71	2750.0	test	<img class = center src='/static/experiments/beast_fmri_test/images/redD.png'></img>	go	-1.0	3.0	1.0	go	temp-non-target	D	89,Middle Finger	71,Index Finger	650.0	700.0	2050.0	2050.0	0.0	n/a	n/a	n/a	go_stim
238541.39546222682	294.60453777316263	n/a	1004	71	2750	294.604537773	stim	stop-signal	299	851706	0.0-15.1-1.1	beast_fmri_test	349	849398,/,850078,/,850757,/,851438,/	t,t,t,t	<img class = center src='/static/experiments/beast_fmri_test/images/D.png'></img>	89,71	2750.0	test	<img class = center src='/static/experiments/beast_fmri_test/images/redD.png'></img>	go	-1.0	3.0	1.0	go	temp-non-target	D	89,Middle Finger	71,Index Finger	650.0	700.0	2050.0	2050.0	0.0	n/a	n/a	n/a	ITI
239662	500	n/a	-1	-1	500	0.0	fixation	poldrack-single-stim	300	852532	0.0-15.2-0.2	beast_fmri_test	349	852117,/	t	<div class = centerbox2><div class = fixation>+</div></div>	none	500.0	test	n/a	n/a	n/a	n/a	n/a	n/a	n/a	n/a	n/a	n/a	n/a	n/a	n/a	n/a	n/a	n/a	n/a	n/a	fixation
238399.57417360845	2750	n/a	1787	71	2750	1263.42582639	stim	stop-signal	301	855283	0.0-15.2-1.2	beast_fmri_test	349	852797,/,853477,/,854156,/,854835,/,855514,/,856196,/	t,t,t,t,t,t	<img class = center src='/static/experiments/beast_fmri_test/images/T.png'></img>	89,71	2750.0	test	<img class = center src='/static/experiments/beast_fmri_test/images/redT.png'></img>	go	-1.0	3.0	2.0	go	temp-non-target	T	89,Middle Finger	71,Index Finger	650.0	700.0	2050.0	2050.0	0.0	n/a	n/a	n/a	go_stim
241149.57417360845	1263.4258263915713	n/a	1787	71	2750	1263.42582639	stim	stop-signal	301	855283	0.0-15.2-1.2	beast_fmri_test	349	852797,/,853477,/,854156,/,854835,/,855514,/,856196,/	t,t,t,t,t,t	<img class = center src='/static/experiments/beast_fmri_test/images/T.png'></img>	89,71	2750.0	test	<img class = center src='/static/experiments/beast_fmri_test/images/redT.png'></img>	go	-1.0	3.0	2.0	go	temp-non-target	T	89,Middle Finger	71,Index Finger	650.0	700.0	2050.0	2050.0	0.0	n/a	n/a	n/a	ITI
244212	500	n/a	-1	-1	500	0.0	fixation	poldrack-single-stim	302	857082	0.0-15.3-0.3	beast_fmri_test	349	856874,/	t	<div class = centerbox2><div class = fixation>+</div></div>	none	500.0	test	n/a	n/a	n/a	n/a	n/a	n/a	n/a	n/a	n/a	n/a	n/a	n/a	n/a	n/a	n/a	n/a	n/a	n/a	fixation
243644.71389730566	2750	n/a	727	89	2750	569.286102694	stim	stop-signal	303	859834	0.0-15.3-1.3	beast_fmri_test	349	857553,/,858234,/,858914,/,859592,/,860273,/	t,t,t,t,t	<img class = center src='/static/experiments/beast_fmri_test/images/D.png'></img>	89,71	2750.0	test	<img class = center src='/static/experiments/beast_fmri_test/images/redD.png'></img>	go	2100.0	3.0	3.0	go	target	D	89,Middle Finger	71,Index Finger	650.0	700.0	2100.0	2050.0	1.0	650.0	1.0	n/a	go_stim
246394.71389730566	569.28610269432875	n/a	727	89	2750	569.286102694	stim	stop-signal	303	859834	0.0-15.3-1.3	beast_fmri_test	349	857553,/,858234,/,858914,/,859592,/,860273,/	t,t,t,t,t	<img class = center src='/static/experiments/beast_fmri_test/images/D.png'></img>	89,71	2750.0	test	<img class = center src='/static/experiments/beast_fmri_test/images/redD.png'></img>	go	2100.0	3.0	3.0	go	target	D	89,Middle Finger	71,Index Finger	650.0	700.0	2100.0	2050.0	1.0	650.0	1.0	n/a	ITI
248067	500	n/a	-1	-1	500	0.0	fixation	poldrack-single-stim	304	860937	0.0-15.4-0.4	beast_fmri_test	349	n/a	n/a	<div class = centerbox2><div class = fixation>+</div></div>	none	500.0	test	n/a	n/a	n/a	n/a	n/a	n/a	n/a	n/a	n/a	n/a	n/a	n/a	n/a	n/a	n/a	n/a	n/a	n/a	fixation
247521.11550159543	2750	n/a	843	89	2750	546.884498405	stim	stop-signal	305	863688	0.0-15.4-1.4	beast_fmri_test	349	860952,/,861633,/,862312,/,862992,/,863671,/	t,t,t,t,t	<img class = center src='/static/experiments/beast_fmri_test/images/D.png'></img>	89,71	2750.0	test	<img class = center src='/static/experiments/beast_fmri_test/images/redD.png'></img>	go	2100.0	3.0	4.0	go	target	D	89,Middle Finger	71,Index Finger	650.0	700.0	2100.0	2050.0	1.0	650.0	1.0	n/a	go_stim
250271.11550159543	546.88449840455883	n/a	843	89	2750	546.884498405	stim	stop-signal	305	863688	0.0-15.4-1.4	beast_fmri_test	349	860952,/,861633,/,862312,/,862992,/,863671,/	t,t,t,t,t	<img class = center src='/static/experiments/beast_fmri_test/images/D.png'></img>	89,71	2750.0	test	<img class = center src='/static/experiments/beast_fmri_test/images/redD.png'></img>	go	2100.0	3.0	4.0	go	target	D	89,Middle Finger	71,Index Finger	650.0	700.0	2100.0	2050.0	1.0	650.0	1.0	n/a	ITI
251900	500	n/a	-1	-1	500	0.0	fixation	poldrack-single-stim	306	864770	0.0-15.5-0.5	beast_fmri_test	349	864351,/	t	<div class = centerbox2><div class = fixation>+</div></div>	none	500.0	test	n/a	n/a	n/a	n/a	n/a	n/a	n/a	n/a	n/a	n/a	n/a	n/a	n/a	n/a	n/a	n/a	n/a	n/a	fixation
249739.73388493049	700.0	n/a	-1	-1	2750	2161.26611507	stim	stop-signal	307	867521	0.0-15.5-1.5	beast_fmri_test	349	865031,/,865710,/,866391,/,867070,/,867750,/,868430,/,869110,/	t,t,t,t,t,t,t	<img class = center src='/static/experiments/beast_fmri_test/images/B.png'></img>	89,71	2750.0	test	<img class = center src='/static/experiments/beast_fmri_test/images/redB.png'></img>	stop	2050.0	3.0	5.0	stop	non-target	B	89,Middle Finger	71,Index Finger	650.0	700.0	2100.0	2050.0	0.0	700.0	n/a	1.0	go_stim
251789.73388493049	2050.0	n/a	-1	-1	2750	2161.26611507	stim	stop-signal	307	867521	0.0-15.5-1.5	beast_fmri_test	349	865031,/,865710,/,866391,/,867070,/,867750,/,868430,/,869110,/	t,t,t,t,t,t,t	<img class = center src='/static/experiments/beast_fmri_test/images/B.png'></img>	89,71	2750.0	test	<img class = center src='/static/experiments/beast_fmri_test/images/redB.png'></img>	stop	2050.0	3.0	5.0	stop	non-target	B	89,Middle Finger	71,Index Finger	650.0	700.0	2100.0	2050.0	0.0	700.0	n/a	1.0	stop_stim
252489.73388493049	2161.2661150695421	n/a	-1	-1	2750	2161.26611507	stim	stop-signal	307	867521	0.0-15.5-1.5	beast_fmri_test	349	865031,/,865710,/,866391,/,867070,/,867750,/,868430,/,869110,/	t,t,t,t,t,t,t	<img class = center src='/static/experiments/beast_fmri_test/images/B.png'></img>	89,71	2750.0	test	<img class = center src='/static/experiments/beast_fmri_test/images/redB.png'></img>	stop	2050.0	3.0	5.0	stop	non-target	B	89,Middle Finger	71,Index Finger	650.0	700.0	2100.0	2050.0	0.0	700.0	n/a	1.0	ITI
257344	500	n/a	-1	-1	500	0.0	fixation	poldrack-single-stim	308	870214	0.0-15.6-0.6	beast_fmri_test	349	869790,/	t	<div class = centerbox2><div class = fixation>+</div></div>	none	500.0	test	n/a	n/a	n/a	n/a	n/a	n/a	n/a	n/a	n/a	n/a	n/a	n/a	n/a	n/a	n/a	n/a	n/a	n/a	fixation
256613.65796784894	2750	n/a	2629	71	2750	732.342032151	stim	stop-signal	309	872966	0.0-15.6-1.6	beast_fmri_test	349	870468,/,871148,/,871827,/,872508,/,873187,/	t,t,t,t,t	<img class = center src='/static/experiments/beast_fmri_test/images/B.png'></img>	89,71	2750.0	test	<img class = center src='/static/experiments/beast_fmri_test/images/redB.png'></img>	go	2000.0	3.0	6.0	go	non-target	B	89,Middle Finger	71,Index Finger	650.0	750.0	2100.0	2000.0	1.0	750.0	1.0	n/a	go_stim
259363.65796784894	732.34203215106527	n/a	2629	71	2750	732.342032151	stim	stop-signal	309	872966	0.0-15.6-1.6	beast_fmri_test	349	870468,/,871148,/,871827,/,872508,/,873187,/	t,t,t,t,t	<img class = center src='/static/experiments/beast_fmri_test/images/B.png'></img>	89,71	2750.0	test	<img class = center src='/static/experiments/beast_fmri_test/images/redB.png'></img>	go	2000.0	3.0	6.0	go	non-target	B	89,Middle Finger	71,Index Finger	650.0	750.0	2100.0	2000.0	1.0	750.0	1.0	n/a	ITI
261360	500	n/a	-1	-1	500	0.0	fixation	poldrack-single-stim	310	874230	0.0-15.7-0.7	beast_fmri_test	349	873867,/	t	<div class = centerbox2><div class = fixation>+</div></div>	none	500.0	test	n/a	n/a	n/a	n/a	n/a	n/a	n/a	n/a	n/a	n/a	n/a	n/a	n/a	n/a	n/a	n/a	n/a	n/a	fixation
260262.62327559956	2750	n/a	1678	71	2750	1098.3767244	stim	stop-signal	311	876981	0.0-15.7-1.7	beast_fmri_test	349	874546,/,875227,/,875906,/,876586,/,877265,/,877944,/	t,t,t,t,t,t	<img class = center src='/static/experiments/beast_fmri_test/images/V.png'></img>	89,71	2750.0	test	<img class = center src='/static/experiments/beast_fmri_test/images/redV.png'></img>	go	2000.0	3.0	7.0	go	non-target	V	89,Middle Finger	71,Index Finger	650.0	750.0	2100.0	2000.0	1.0	750.0	1.0	n/a	go_stim
263012.62327559956	1098.376724400463	n/a	1678	71	2750	1098.3767244	stim	stop-signal	311	876981	0.0-15.7-1.7	beast_fmri_test	349	874546,/,875227,/,875906,/,876586,/,877265,/,877944,/	t,t,t,t,t,t	<img class = center src='/static/experiments/beast_fmri_test/images/V.png'></img>	89,71	2750.0	test	<img class = center src='/static/experiments/beast_fmri_test/images/redV.png'></img>	go	2000.0	3.0	7.0	go	non-target	V	89,Middle Finger	71,Index Finger	650.0	750.0	2100.0	2000.0	1.0	750.0	1.0	n/a	ITI
265745	500	n/a	-1	-1	500	0.0	fixation	poldrack-single-stim	312	878615	0.0-15.8-0.8	beast_fmri_test	349	n/a	n/a	<div class = centerbox2><div class = fixation>+</div></div>	none	500.0	test	n/a	n/a	n/a	n/a	n/a	n/a	n/a	n/a	n/a	n/a	n/a	n/a	n/a	n/a	n/a	n/a	n/a	n/a	fixation
264926.11297591066	2750	n/a	1106	89	2750	819.887024089	stim	stop-signal	313	881366	0.0-15.8-1.8	beast_fmri_test	349	878625,/,879305,/,879984,/,880663,/,881344,/,882023,/	t,t,t,t,t,t	<img class = center src='/static/experiments/beast_fmri_test/images/B.png'></img>	89,71	2750.0	test	<img class = center src='/static/experiments/beast_fmri_test/images/redB.png'></img>	go	2100.0	3.0	8.0	go	target	B	89,Middle Finger	71,Index Finger	650.0	750.0	2100.0	2000.0	1.0	650.0	1.0	n/a	go_stim
267676.11297591066	819.88702408932409	n/a	1106	89	2750	819.887024089	stim	stop-signal	313	881366	0.0-15.8-1.8	beast_fmri_test	349	878625,/,879305,/,879984,/,880663,/,881344,/,882023,/	t,t,t,t,t,t	<img class = center src='/static/experiments/beast_fmri_test/images/B.png'></img>	89,71	2750.0	test	<img class = center src='/static/experiments/beast_fmri_test/images/redB.png'></img>	go	2100.0	3.0	8.0	go	target	B	89,Middle Finger	71,Index Finger	650.0	750.0	2100.0	2000.0	1.0	650.0	1.0	n/a	ITI
269848	500	n/a	-1	-1	500	0.0	fixation	poldrack-single-stim	314	882718	0.0-15.9-0.9	beast_fmri_test	349	882703,/	t	<div class = centerbox2><div class = fixation>+</div></div>	none	500.0	test	n/a	n/a	n/a	n/a	n/a	n/a	n/a	n/a	n/a	n/a	n/a	n/a	n/a	n/a	n/a	n/a	n/a	n/a	fixation
267118.31578197039	750.0	n/a	1174	71	2750	2731.68421803	stim	stop-signal	315	885470	0.0-15.9-1.9	beast_fmri_test	349	883382,/,884063,/,884741,/,885422,/,886100,/,886781,/,887460,/,888140,/	t,t,t,t,t,t,t,t	<img class = center src='/static/experiments/beast_fmri_test/images/D.png'></img>	89,71	2750.0	test	<img class = center src='/static/experiments/beast_fmri_test/images/redD.png'></img>	stop	2000.0	3.0	9.0	stop	non-target	D	89,Middle Finger	71,Index Finger	650.0	750.0	2100.0	2000.0	0.0	750.0	n/a	0.0	go_stim
269118.31578197039	2000.0	n/a	1174	71	2750	2731.68421803	stim	stop-signal	315	885470	0.0-15.9-1.9	beast_fmri_test	349	883382,/,884063,/,884741,/,885422,/,886100,/,886781,/,887460,/,888140,/	t,t,t,t,t,t,t,t	<img class = center src='/static/experiments/beast_fmri_test/images/D.png'></img>	89,71	2750.0	test	<img class = center src='/static/experiments/beast_fmri_test/images/redD.png'></img>	stop	2000.0	3.0	9.0	stop	non-target	D	89,Middle Finger	71,Index Finger	650.0	750.0	2100.0	2000.0	0.0	750.0	n/a	0.0	stop_stim
269868.31578197039	2731.6842180295957	n/a	1174	71	2750	2731.68421803	stim	stop-signal	315	885470	0.0-15.9-1.9	beast_fmri_test	349	883382,/,884063,/,884741,/,885422,/,886100,/,886781,/,887460,/,888140,/	t,t,t,t,t,t,t,t	<img class = center src='/static/experiments/beast_fmri_test/images/D.png'></img>	89,71	2750.0	test	<img class = center src='/static/experiments/beast_fmri_test/images/redD.png'></img>	stop	2000.0	3.0	9.0	stop	non-target	D	89,Middle Finger	71,Index Finger	650.0	750.0	2100.0	2000.0	0.0	750.0	n/a	0.0	ITI
275861	500	n/a	-1	-1	500	0.0	fixation	poldrack-single-stim	316	888731	0.0-15.10-0.10	beast_fmri_test	349	n/a	n/a	<div class = centerbox2><div class = fixation>+</div></div>	none	500.0	test	n/a	n/a	n/a	n/a	n/a	n/a	n/a	n/a	n/a	n/a	n/a	n/a	n/a	n/a	n/a	n/a	n/a	n/a	fixation
275828.26578082331	2750	n/a	1728	71	2750	34.7342191767	stim	stop-signal	317	891483	0.0-15.10-1.10	beast_fmri_test	349	888819,/,889498,/,890180,/,890858,/	t,t,t,t	<img class = center src='/static/experiments/beast_fmri_test/images/T.png'></img>	89,71	2750.0	test	<img class = center src='/static/experiments/beast_fmri_test/images/redT.png'></img>	go	2050.0	3.0	10.0	go	non-target	T	89,Middle Finger	71,Index Finger	650.0	700.0	2100.0	2050.0	1.0	700.0	1.0	n/a	go_stim
278578.26578082331	34.734219176666635	n/a	1728	71	2750	34.7342191767	stim	stop-signal	317	891483	0.0-15.10-1.10	beast_fmri_test	349	888819,/,889498,/,890180,/,890858,/	t,t,t,t	<img class = center src='/static/experiments/beast_fmri_test/images/T.png'></img>	89,71	2750.0	test	<img class = center src='/static/experiments/beast_fmri_test/images/redT.png'></img>	go	2050.0	3.0	10.0	go	non-target	T	89,Middle Finger	71,Index Finger	650.0	700.0	2100.0	2050.0	1.0	700.0	1.0	n/a	ITI
279184	500	n/a	-1	-1	500	0.0	fixation	poldrack-single-stim	318	892054	0.0-15.11-0.11	beast_fmri_test	349	891552,/	t	<div class = centerbox2><div class = fixation>+</div></div>	none	500.0	test	n/a	n/a	n/a	n/a	n/a	n/a	n/a	n/a	n/a	n/a	n/a	n/a	n/a	n/a	n/a	n/a	n/a	n/a	fixation
279162.48183195514	700.0	n/a	-1	-1	2750	22.5181680449	stim	stop-signal	319	894805	0.0-15.11-1.11	beast_fmri_test	349	892217,/,892897,/,893576,/,894258,/	t,t,t,t	<img class = center src='/static/experiments/beast_fmri_test/images/P.png'></img>	89,71	2750.0	test	<img class = center src='/static/experiments/beast_fmri_test/images/redP.png'></img>	stop	2050.0	3.0	11.0	stop	non-target	P	89,Middle Finger	71,Index Finger	650.0	700.0	2100.0	2050.0	0.0	700.0	n/a	1.0	go_stim
281212.48183195514	2050.0	n/a	-1	-1	2750	22.5181680449	stim	stop-signal	319	894805	0.0-15.11-1.11	beast_fmri_test	349	892217,/,892897,/,893576,/,894258,/	t,t,t,t	<img class = center src='/static/experiments/beast_fmri_test/images/P.png'></img>	89,71	2750.0	test	<img class = center src='/static/experiments/beast_fmri_test/images/redP.png'></img>	stop	2050.0	3.0	11.0	stop	non-target	P	89,Middle Finger	71,Index Finger	650.0	700.0	2100.0	2050.0	0.0	700.0	n/a	1.0	stop_stim
281912.48183195514	22.518168044910368	n/a	-1	-1	2750	22.5181680449	stim	stop-signal	319	894805	0.0-15.11-1.11	beast_fmri_test	349	892217,/,892897,/,893576,/,894258,/	t,t,t,t	<img class = center src='/static/experiments/beast_fmri_test/images/P.png'></img>	89,71	2750.0	test	<img class = center src='/static/experiments/beast_fmri_test/images/redP.png'></img>	stop	2050.0	3.0	11.0	stop	non-target	P	89,Middle Finger	71,Index Finger	650.0	700.0	2100.0	2050.0	0.0	700.0	n/a	1.0	ITI
282488	500	n/a	-1	-1	500	0.0	fixation	poldrack-single-stim	320	895358	0.0-15.12-0.12	beast_fmri_test	349	894937,/	t	<div class = centerbox2><div class = fixation>+</div></div>	none	500.0	test	n/a	n/a	n/a	n/a	n/a	n/a	n/a	n/a	n/a	n/a	n/a	n/a	n/a	n/a	n/a	n/a	n/a	n/a	fixation
281019.81396062777	2750	n/a	1851	71	2750	1469.18603937	stim	stop-signal	321	898109	0.0-15.12-1.12	beast_fmri_test	349	895616,/,896296,/,896976,/,897656,/,898336,/,899017,/	t,t,t,t,t,t	<img class = center src='/static/experiments/beast_fmri_test/images/P.png'></img>	89,71	2750.0	test	<img class = center src='/static/experiments/beast_fmri_test/images/redP.png'></img>	go	2000.0	3.0	12.0	go	non-target	P	89,Middle Finger	71,Index Finger	650.0	750.0	2100.0	2000.0	1.0	750.0	1.0	n/a	go_stim
283769.81396062777	1469.1860393721836	n/a	1851	71	2750	1469.18603937	stim	stop-signal	321	898109	0.0-15.12-1.12	beast_fmri_test	349	895616,/,896296,/,896976,/,897656,/,898336,/,899017,/	t,t,t,t,t,t	<img class = center src='/static/experiments/beast_fmri_test/images/P.png'></img>	89,71	2750.0	test	<img class = center src='/static/experiments/beast_fmri_test/images/redP.png'></img>	go	2000.0	3.0	12.0	go	non-target	P	89,Middle Finger	71,Index Finger	650.0	750.0	2100.0	2000.0	1.0	750.0	1.0	n/a	ITI
287245	500	n/a	-1	-1	500	0.0	fixation	poldrack-single-stim	322	900115	0.0-15.13-0.13	beast_fmri_test	349	899695,/	t	<div class = centerbox2><div class = fixation>+</div></div>	none	500.0	test	n/a	n/a	n/a	n/a	n/a	n/a	n/a	n/a	n/a	n/a	n/a	n/a	n/a	n/a	n/a	n/a	n/a	n/a	fixation
286298.8621306594	2750	n/a	2005	71	2750	948.137869341	stim	stop-signal	323	902867	0.0-15.13-1.13	beast_fmri_test	349	900376,/,901055,/,901735,/,902415,/,903094,/,903773,/	t,t,t,t,t,t	<img class = center src='/static/experiments/beast_fmri_test/images/B.png'></img>	89,71	2750.0	test	<img class = center src='/static/experiments/beast_fmri_test/images/redB.png'></img>	go	2000.0	3.0	13.0	go	non-target	B	89,Middle Finger	71,Index Finger	650.0	750.0	2100.0	2000.0	1.0	750.0	1.0	n/a	go_stim
289048.8621306594	948.13786934063125	n/a	2005	71	2750	948.137869341	stim	stop-signal	323	902867	0.0-15.13-1.13	beast_fmri_test	349	900376,/,901055,/,901735,/,902415,/,903094,/,903773,/	t,t,t,t,t,t	<img class = center src='/static/experiments/beast_fmri_test/images/B.png'></img>	89,71	2750.0	test	<img class = center src='/static/experiments/beast_fmri_test/images/redB.png'></img>	go	2000.0	3.0	13.0	go	non-target	B	89,Middle Finger	71,Index Finger	650.0	750.0	2100.0	2000.0	1.0	750.0	1.0	n/a	ITI
291484	500	n/a	-1	-1	500	0.0	fixation	poldrack-single-stim	324	904354	0.0-15.14-0.14	beast_fmri_test	349	n/a	n/a	<div class = centerbox2><div class = fixation>+</div></div>	none	500.0	test	n/a	n/a	n/a	n/a	n/a	n/a	n/a	n/a	n/a	n/a	n/a	n/a	n/a	n/a	n/a	n/a	n/a	n/a	fixation
290740.25526609132	750.0	n/a	-1	-1	2750	745.744733909	stim	stop-signal	325	907106	0.0-15.14-1.14	beast_fmri_test	349	904453,/,905132,/,905813,/,906491,/,907171,/,907850,/	t,t,t,t,t,t	<img class = center src='/static/experiments/beast_fmri_test/images/B.png'></img>	89,71	2750.0	test	<img class = center src='/static/experiments/beast_fmri_test/images/redB.png'></img>	stop	2000.0	3.0	14.0	stop	non-target	B	89,Middle Finger	71,Index Finger	650.0	750.0	2100.0	2000.0	0.0	750.0	n/a	1.0	go_stim
292740.25526609132	2000.0	n/a	-1	-1	2750	745.744733909	stim	stop-signal	325	907106	0.0-15.14-1.14	beast_fmri_test	349	904453,/,905132,/,905813,/,906491,/,907171,/,907850,/	t,t,t,t,t,t	<img class = center src='/static/experiments/beast_fmri_test/images/B.png'></img>	89,71	2750.0	test	<img class = center src='/static/experiments/beast_fmri_test/images/redB.png'></img>	stop	2000.0	3.0	14.0	stop	non-target	B	89,Middle Finger	71,Index Finger	650.0	750.0	2100.0	2000.0	0.0	750.0	n/a	1.0	stop_stim
293490.25526609132	745.74473390864398	n/a	-1	-1	2750	745.744733909	stim	stop-signal	325	907106	0.0-15.14-1.14	beast_fmri_test	349	904453,/,905132,/,905813,/,906491,/,907171,/,907850,/	t,t,t,t,t,t	<img class = center src='/static/experiments/beast_fmri_test/images/B.png'></img>	89,71	2750.0	test	<img class = center src='/static/experiments/beast_fmri_test/images/redB.png'></img>	stop	2000.0	3.0	14.0	stop	non-target	B	89,Middle Finger	71,Index Finger	650.0	750.0	2100.0	2000.0	0.0	750.0	n/a	1.0	ITI
295515	500	n/a	-1	-1	500	0.0	fixation	poldrack-single-stim	326	908385	0.0-15.15-0.15	beast_fmri_test	349	n/a	n/a	<div class = centerbox2><div class = fixation>+</div></div>	none	500.0	test	n/a	n/a	n/a	n/a	n/a	n/a	n/a	n/a	n/a	n/a	n/a	n/a	n/a	n/a	n/a	n/a	n/a	n/a	fixation
295222.89181235572	800.0	n/a	1434	71	2750	294.108187644	stim	stop-signal	327	911137	0.0-15.15-1.15	beast_fmri_test	349	908531,/,909210,/,909891,/,910570,/,911257,/	t,t,t,t,t	<img class = center src='/static/experiments/beast_fmri_test/images/V.png'></img>	89,71	2750.0	test	<img class = center src='/static/experiments/beast_fmri_test/images/redV.png'></img>	stop	1950.0	3.0	15.0	stop	non-target	V	89,Middle Finger	71,Index Finger	650.0	800.0	2100.0	1950.0	0.0	800.0	n/a	0.0	go_stim
297172.89181235572	1950.0	n/a	1434	71	2750	294.108187644	stim	stop-signal	327	911137	0.0-15.15-1.15	beast_fmri_test	349	908531,/,909210,/,909891,/,910570,/,911257,/	t,t,t,t,t	<img class = center src='/static/experiments/beast_fmri_test/images/V.png'></img>	89,71	2750.0	test	<img class = center src='/static/experiments/beast_fmri_test/images/redV.png'></img>	stop	1950.0	3.0	15.0	stop	non-target	V	89,Middle Finger	71,Index Finger	650.0	800.0	2100.0	1950.0	0.0	800.0	n/a	0.0	stop_stim
297972.89181235572	294.10818764426534	n/a	1434	71	2750	294.108187644	stim	stop-signal	327	911137	0.0-15.15-1.15	beast_fmri_test	349	908531,/,909210,/,909891,/,910570,/,911257,/	t,t,t,t,t	<img class = center src='/static/experiments/beast_fmri_test/images/V.png'></img>	89,71	2750.0	test	<img class = center src='/static/experiments/beast_fmri_test/images/redV.png'></img>	stop	1950.0	3.0	15.0	stop	non-target	V	89,Middle Finger	71,Index Finger	650.0	800.0	2100.0	1950.0	0.0	800.0	n/a	0.0	ITI
299095	500	n/a	-1	-1	500	0.0	fixation	poldrack-single-stim	328	911965	0.0-15.16-0.16	beast_fmri_test	349	911930,/	t	<div class = centerbox2><div class = fixation>+</div></div>	none	500.0	test	n/a	n/a	n/a	n/a	n/a	n/a	n/a	n/a	n/a	n/a	n/a	n/a	n/a	n/a	n/a	n/a	n/a	n/a	fixation
299028.72003103734	650.0	n/a	-1	-1	2750	67.2799689627	stim	stop-signal	329	914716	0.0-15.16-1.16	beast_fmri_test	349	912609,/,913289,/,913968,/,914648,/	t,t,t,t	<img class = center src='/static/experiments/beast_fmri_test/images/B.png'></img>	89,71	2750.0	test	<img class = center src='/static/experiments/beast_fmri_test/images/redB.png'></img>	stop	2100.0	3.0	16.0	stop	target	B	89,Middle Finger	71,Index Finger	650.0	750.0	2100.0	1950.0	0.0	650.0	n/a	1.0	go_stim
301128.72003103734	2100.0	n/a	-1	-1	2750	67.2799689627	stim	stop-signal	329	914716	0.0-15.16-1.16	beast_fmri_test	349	912609,/,913289,/,913968,/,914648,/	t,t,t,t	<img class = center src='/static/experiments/beast_fmri_test/images/B.png'></img>	89,71	2750.0	test	<img class = center src='/static/experiments/beast_fmri_test/images/redB.png'></img>	stop	2100.0	3.0	16.0	stop	target	B	89,Middle Finger	71,Index Finger	650.0	750.0	2100.0	1950.0	0.0	650.0	n/a	1.0	stop_stim
301778.72003103734	67.279968962701787	n/a	-1	-1	2750	67.2799689627	stim	stop-signal	329	914716	0.0-15.16-1.16	beast_fmri_test	349	912609,/,913289,/,913968,/,914648,/	t,t,t,t	<img class = center src='/static/experiments/beast_fmri_test/images/B.png'></img>	89,71	2750.0	test	<img class = center src='/static/experiments/beast_fmri_test/images/redB.png'></img>	stop	2100.0	3.0	16.0	stop	target	B	89,Middle Finger	71,Index Finger	650.0	750.0	2100.0	1950.0	0.0	650.0	n/a	1.0	ITI
302452	500	n/a	-1	-1	500	0.0	fixation	poldrack-single-stim	330	915322	0.0-15.17-0.17	beast_fmri_test	349	n/a	n/a	<div class = centerbox2><div class = fixation>+</div></div>	none	500.0	test	n/a	n/a	n/a	n/a	n/a	n/a	n/a	n/a	n/a	n/a	n/a	n/a	n/a	n/a	n/a	n/a	n/a	n/a	fixation
302273.16962930537	700.0	n/a	939	89	2750	179.830370695	stim	stop-signal	331	918073	0.0-15.17-1.17	beast_fmri_test	349	915330,/,916008,/,916686,/,917367,/,918045,/	t,t,t,t,t	<img class = center src='/static/experiments/beast_fmri_test/images/B.png'></img>	89,71	2750.0	test	<img class = center src='/static/experiments/beast_fmri_test/images/redB.png'></img>	stop	2050.0	3.0	17.0	stop	target	B	89,Middle Finger	71,Index Finger	700.0	750.0	2050.0	1950.0	0.0	700.0	n/a	0.0	go_stim
304323.16962930537	2050.0	n/a	939	89	2750	179.830370695	stim	stop-signal	331	918073	0.0-15.17-1.17	beast_fmri_test	349	915330,/,916008,/,916686,/,917367,/,918045,/	t,t,t,t,t	<img class = center src='/static/experiments/beast_fmri_test/images/B.png'></img>	89,71	2750.0	test	<img class = center src='/static/experiments/beast_fmri_test/images/redB.png'></img>	stop	2050.0	3.0	17.0	stop	target	B	89,Middle Finger	71,Index Finger	700.0	750.0	2050.0	1950.0	0.0	700.0	n/a	0.0	stop_stim
305023.16962930537	179.83037069457495	n/a	939	89	2750	179.830370695	stim	stop-signal	331	918073	0.0-15.17-1.17	beast_fmri_test	349	915330,/,916008,/,916686,/,917367,/,918045,/	t,t,t,t,t	<img class = center src='/static/experiments/beast_fmri_test/images/B.png'></img>	89,71	2750.0	test	<img class = center src='/static/experiments/beast_fmri_test/images/redB.png'></img>	stop	2050.0	3.0	17.0	stop	target	B	89,Middle Finger	71,Index Finger	700.0	750.0	2050.0	1950.0	0.0	700.0	n/a	0.0	ITI
305922	500	n/a	-1	-1	500	0.0	fixation	poldrack-single-stim	332	918792	0.0-15.18-0.18	beast_fmri_test	349	918727,/	t	<div class = centerbox2><div class = fixation>+</div></div>	none	500.0	test	n/a	n/a	n/a	n/a	n/a	n/a	n/a	n/a	n/a	n/a	n/a	n/a	n/a	n/a	n/a	n/a	n/a	n/a	fixation
305225.78114822926	750.0	n/a	-1	-1	2750	698.218851771	stim	stop-signal	333	921544	0.0-15.18-1.18	beast_fmri_test	349	919405,/,920086,/,920764,/,921445,/,922125,/	t,t,t,t,t	<img class = center src='/static/experiments/beast_fmri_test/images/D.png'></img>	89,71	2750.0	test	<img class = center src='/static/experiments/beast_fmri_test/images/redD.png'></img>	stop	2000.0	3.0	18.0	stop	non-target	D	89,Middle Finger	71,Index Finger	650.0	750.0	2050.0	2000.0	0.0	750.0	n/a	1.0	go_stim
307225.78114822926	2000.0	n/a	-1	-1	2750	698.218851771	stim	stop-signal	333	921544	0.0-15.18-1.18	beast_fmri_test	349	919405,/,920086,/,920764,/,921445,/,922125,/	t,t,t,t,t	<img class = center src='/static/experiments/beast_fmri_test/images/D.png'></img>	89,71	2750.0	test	<img class = center src='/static/experiments/beast_fmri_test/images/redD.png'></img>	stop	2000.0	3.0	18.0	stop	non-target	D	89,Middle Finger	71,Index Finger	650.0	750.0	2050.0	2000.0	0.0	750.0	n/a	1.0	stop_stim
307975.78114822926	698.21885177073409	n/a	-1	-1	2750	698.218851771	stim	stop-signal	333	921544	0.0-15.18-1.18	beast_fmri_test	349	919405,/,920086,/,920764,/,921445,/,922125,/	t,t,t,t,t	<img class = center src='/static/experiments/beast_fmri_test/images/D.png'></img>	89,71	2750.0	test	<img class = center src='/static/experiments/beast_fmri_test/images/redD.png'></img>	stop	2000.0	3.0	18.0	stop	non-target	D	89,Middle Finger	71,Index Finger	650.0	750.0	2050.0	2000.0	0.0	750.0	n/a	1.0	ITI
309911	500	n/a	-1	-1	500	0.0	fixation	poldrack-single-stim	334	922781	0.0-15.19-0.19	beast_fmri_test	349	n/a	n/a	<div class = centerbox2><div class = fixation>+</div></div>	none	500.0	test	n/a	n/a	n/a	n/a	n/a	n/a	n/a	n/a	n/a	n/a	n/a	n/a	n/a	n/a	n/a	n/a	n/a	n/a	fixation
309644.29184146645	2750	n/a	2463	71	2750	266.708158534	stim	stop-signal	335	925531	0.0-15.19-1.19	beast_fmri_test	349	922805,/,923485,/,924162,/,924843,/,925522,/	t,t,t,t,t	<img class = center src='/static/experiments/beast_fmri_test/images/P.png'></img>	89,71	2750.0	test	<img class = center src='/static/experiments/beast_fmri_test/images/redP.png'></img>	go	1950.0	3.0	19.0	go	non-target	P	89,Middle Finger	71,Index Finger	650.0	800.0	2050.0	1950.0	1.0	800.0	1.0	n/a	go_stim
312394.29184146645	266.7081585335834	n/a	2463	71	2750	266.708158534	stim	stop-signal	335	925531	0.0-15.19-1.19	beast_fmri_test	349	922805,/,923485,/,924162,/,924843,/,925522,/	t,t,t,t,t	<img class = center src='/static/experiments/beast_fmri_test/images/P.png'></img>	89,71	2750.0	test	<img class = center src='/static/experiments/beast_fmri_test/images/redP.png'></img>	go	1950.0	3.0	19.0	go	non-target	P	89,Middle Finger	71,Index Finger	650.0	800.0	2050.0	1950.0	1.0	800.0	1.0	n/a	ITI
313462	500	n/a	-1	-1	500	0.0	fixation	poldrack-single-stim	336	926332	0.0-15.20-0.20	beast_fmri_test	349	926203,/	t	<div class = centerbox2><div class = fixation>+</div></div>	none	500.0	test	n/a	n/a	n/a	n/a	n/a	n/a	n/a	n/a	n/a	n/a	n/a	n/a	n/a	n/a	n/a	n/a	n/a	n/a	fixation
313168.3347341374	2750	n/a	-1	-1	2750	295.665265863	stim	stop-signal	337	929084	0.0-15.20-1.20	beast_fmri_test	349	926882,/,927563,/,928242,/,928922,/	t,t,t,t	<img class = center src='/static/experiments/beast_fmri_test/images/T.png'></img>	89,71	2750.0	test	<img class = center src='/static/experiments/beast_fmri_test/images/redT.png'></img>	go	1950.0	3.0	20.0	go	non-target	T	89,Middle Finger	71,Index Finger	650.0	800.0	2050.0	1950.0	0.0	800.0	0.0	n/a	go_stim
315918.3347341374	295.66526586255281	n/a	-1	-1	2750	295.665265863	stim	stop-signal	337	929084	0.0-15.20-1.20	beast_fmri_test	349	926882,/,927563,/,928242,/,928922,/	t,t,t,t	<img class = center src='/static/experiments/beast_fmri_test/images/T.png'></img>	89,71	2750.0	test	<img class = center src='/static/experiments/beast_fmri_test/images/redT.png'></img>	go	1950.0	3.0	20.0	go	non-target	T	89,Middle Finger	71,Index Finger	650.0	800.0	2050.0	1950.0	0.0	800.0	0.0	n/a	ITI
317045	500	n/a	-1	-1	500	0.0	fixation	poldrack-single-stim	338	929915	0.0-15.21-0.21	beast_fmri_test	349	929602,/	t	<div class = centerbox2><div class = fixation>+</div></div>	none	500.0	test	n/a	n/a	n/a	n/a	n/a	n/a	n/a	n/a	n/a	n/a	n/a	n/a	n/a	n/a	n/a	n/a	n/a	n/a	fixation
316983.10888414667	650.0	n/a	2167	89	2750	63.8911158533	stim	stop-signal	339	932667	0.0-15.21-1.21	beast_fmri_test	349	930282,/,930961,/,931640,/,932321,/	t,t,t,t	<img class = center src='/static/experiments/beast_fmri_test/images/D.png'></img>	89,71	2750.0	test	<img class = center src='/static/experiments/beast_fmri_test/images/redD.png'></img>	stop	2100.0	3.0	21.0	stop	target	D	89,Middle Finger	71,Index Finger	650.0	800.0	2100.0	1950.0	0.0	650.0	n/a	0.0	go_stim
319083.10888414667	2100.0	n/a	2167	89	2750	63.8911158533	stim	stop-signal	339	932667	0.0-15.21-1.21	beast_fmri_test	349	930282,/,930961,/,931640,/,932321,/	t,t,t,t	<img class = center src='/static/experiments/beast_fmri_test/images/D.png'></img>	89,71	2750.0	test	<img class = center src='/static/experiments/beast_fmri_test/images/redD.png'></img>	stop	2100.0	3.0	21.0	stop	target	D	89,Middle Finger	71,Index Finger	650.0	800.0	2100.0	1950.0	0.0	650.0	n/a	0.0	stop_stim
319733.10888414667	63.891115853306964	n/a	2167	89	2750	63.8911158533	stim	stop-signal	339	932667	0.0-15.21-1.21	beast_fmri_test	349	930282,/,930961,/,931640,/,932321,/	t,t,t,t	<img class = center src='/static/experiments/beast_fmri_test/images/D.png'></img>	89,71	2750.0	test	<img class = center src='/static/experiments/beast_fmri_test/images/redD.png'></img>	stop	2100.0	3.0	21.0	stop	target	D	89,Middle Finger	71,Index Finger	650.0	800.0	2100.0	1950.0	0.0	650.0	n/a	0.0	ITI
