onset	duration	text	rt	key_press	block_duration	timing_post_trial	trial_id	trial_type	trial_index	time_elapsed	internal_node_id	exp_id	subject_id	trigger_times	triggers	stimulus	possible_responses	stim_duration	exp_stage	SS_stimulus	SS_trial_type	SS_duration	load	trial_num	stop_trial_type	adaptive_trial_type	stim	yes_response_key	no_response_key	SSD_target	SSD_non_target	SSTarget	SSNonTarget	go_acc	SS_delay	adaptive_acc	stop_acc	new_trial_type
test	10880.0	n/a	-1	-1	10880	0.0	practice-no-stop-feedback	poldrack-single-stim	6	102370	0.0-6.0	beast_fmri_test	349	91492,/,92172,/,92851,/,93532,/,94210,/,94889,/,95570,/,96250,/,96929,/,97610,/,98289,/,98968,/,99649,/,100328,/,101007,/,101686,/,102367,/	t,t,t,t,t,t,t,t,t,t,t,t,t,t,t,t,t	"<div class = ""centerbox""><p class = ""block-text"">Your delay is 2 trials.</p><p class = block-text>Please wait for the scanner to start the block</p></div>"	77	10880.0	n/a	n/a	n/a	n/a	n/a	n/a	n/a	n/a	n/a	n/a	n/a	n/a	n/a	n/a	n/a	n/a	n/a	n/a	n/a	start_functional_block
11381	500.0	n/a	-1	-1	500	0.0	fixation	poldrack-single-stim	7	102873	0.0-7.0-0.0	beast_fmri_test	349	n/a	n/a	<div class = centerbox2><div class = fixation>+</div></div>	none	500.0	test	n/a	n/a	n/a	n/a	n/a	n/a	n/a	n/a	n/a	n/a	n/a	n/a	n/a	n/a	n/a	n/a	n/a	n/a	fixation
9881.3675547664316	2750.0	n/a	2194	89	2750	1504.63244523	stim	stop-signal	8	105628	0.0-7.0-1.0	beast_fmri_test	349	103045,/,103727,/,104405,/,105084,/,105764,/,106445,/,107125,/	t,t,t,t,t,t,t	<img class = center src='/static/experiments/beast_fmri_test/images/P.png'></img>	89,71	2750.0	test	<img class = center src='/static/experiments/beast_fmri_test/images/redP.png'></img>	go	-1.0	2.0	0.0	go	temp-non-target	P	89,Middle Finger	71,Index Finger	500.0	500.0	0.0	0.0	0.0	n/a	n/a	n/a	go_stim
12631.367554766432	1504.63244523	n/a	2194	89	2750	1504.63244523	stim	stop-signal	8	105628	0.0-7.0-1.0	beast_fmri_test	349	103045,/,103727,/,104405,/,105084,/,105764,/,106445,/,107125,/	t,t,t,t,t,t,t	<img class = center src='/static/experiments/beast_fmri_test/images/P.png'></img>	89,71	2750.0	test	<img class = center src='/static/experiments/beast_fmri_test/images/redP.png'></img>	go	-1.0	2.0	0.0	go	temp-non-target	P	89,Middle Finger	71,Index Finger	500.0	500.0	0.0	0.0	0.0	n/a	n/a	n/a	ITI
16148	500.0	n/a	-1	-1	500	0.0	fixation	poldrack-single-stim	9	107640	0.0-7.1-0.1	beast_fmri_test	349	n/a	n/a	<div class = centerbox2><div class = fixation>+</div></div>	none	500.0	test	n/a	n/a	n/a	n/a	n/a	n/a	n/a	n/a	n/a	n/a	n/a	n/a	n/a	n/a	n/a	n/a	n/a	n/a	fixation
15991.827766731207	2750.0	n/a	756	71	2750	158.172233269	stim	stop-signal	10	110392	0.0-7.1-1.1	beast_fmri_test	349	107804,/,108484,/,109164,/,109844,/,110523,/	t,t,t,t,t	<img class = center src='/static/experiments/beast_fmri_test/images/V.png'></img>	89,71	2750.0	test	<img class = center src='/static/experiments/beast_fmri_test/images/redV.png'></img>	go	-1.0	2.0	1.0	go	temp-non-target	V	89,Middle Finger	71,Index Finger	500.0	500.0	0.0	0.0	0.0	n/a	n/a	n/a	go_stim
18741.827766731207	158.172233269	n/a	756	71	2750	158.172233269	stim	stop-signal	10	110392	0.0-7.1-1.1	beast_fmri_test	349	107804,/,108484,/,109164,/,109844,/,110523,/	t,t,t,t,t	<img class = center src='/static/experiments/beast_fmri_test/images/V.png'></img>	89,71	2750.0	test	<img class = center src='/static/experiments/beast_fmri_test/images/redV.png'></img>	go	-1.0	2.0	1.0	go	temp-non-target	V	89,Middle Finger	71,Index Finger	500.0	500.0	0.0	0.0	0.0	n/a	n/a	n/a	ITI
19566	500.0	n/a	-1	-1	500	0.0	fixation	poldrack-single-stim	11	111058	0.0-7.2-0.2	beast_fmri_test	349	n/a	n/a	<div class = centerbox2><div class = fixation>+</div></div>	none	500.0	test	n/a	n/a	n/a	n/a	n/a	n/a	n/a	n/a	n/a	n/a	n/a	n/a	n/a	n/a	n/a	n/a	n/a	n/a	fixation
17408.21829035558	2750.0	n/a	772	71	2750	2160.78170964	stim	stop-signal	12	113811	0.0-7.2-1.2	beast_fmri_test	349	111204,/,111883,/,112563,/,113241,/,113922,/,114601,/,115282,/,115960,/	t,t,t,t,t,t,t,t	<img class = center src='/static/experiments/beast_fmri_test/images/V.png'></img>	89,71	2750.0	test	<img class = center src='/static/experiments/beast_fmri_test/images/redV.png'></img>	go	2250.0	2.0	2.0	go	non-target	V	89,Middle Finger	71,Index Finger	500.0	500.0	0.0	2250.0	1.0	500.0	1.0	n/a	go_stim
20158.21829035558	2160.78170964	n/a	772	71	2750	2160.78170964	stim	stop-signal	12	113811	0.0-7.2-1.2	beast_fmri_test	349	111204,/,111883,/,112563,/,113241,/,113922,/,114601,/,115282,/,115960,/	t,t,t,t,t,t,t,t	<img class = center src='/static/experiments/beast_fmri_test/images/V.png'></img>	89,71	2750.0	test	<img class = center src='/static/experiments/beast_fmri_test/images/redV.png'></img>	go	2250.0	2.0	2.0	go	non-target	V	89,Middle Finger	71,Index Finger	500.0	500.0	0.0	2250.0	1.0	500.0	1.0	n/a	ITI
24984	500.0	n/a	-1	-1	500	0.0	fixation	poldrack-single-stim	13	116476	0.0-7.3-0.3	beast_fmri_test	349	n/a	n/a	<div class = centerbox2><div class = fixation>+</div></div>	none	500.0	test	n/a	n/a	n/a	n/a	n/a	n/a	n/a	n/a	n/a	n/a	n/a	n/a	n/a	n/a	n/a	n/a	n/a	n/a	fixation
24691.65401587465	500.0	n/a	821	71	2750	294.345984125	stim	stop-signal	14	119228	0.0-7.3-1.3	beast_fmri_test	349	116640,/,117320,/,118000,/,118679,/,119359,/	t,t,t,t,t	<img class = center src='/static/experiments/beast_fmri_test/images/B.png'></img>	89,71	2750.0	test	<img class = center src='/static/experiments/beast_fmri_test/images/redB.png'></img>	stop	2250.0	2.0	3.0	stop	non-target	B	89,Middle Finger	71,Index Finger	500.0	500.0	0.0	2250.0	0.0	500.0	n/a	0.0	go_stim
26941.65401587465	2250.0	n/a	821	71	2750	294.345984125	stim	stop-signal	14	119228	0.0-7.3-1.3	beast_fmri_test	349	116640,/,117320,/,118000,/,118679,/,119359,/	t,t,t,t,t	<img class = center src='/static/experiments/beast_fmri_test/images/B.png'></img>	89,71	2750.0	test	<img class = center src='/static/experiments/beast_fmri_test/images/redB.png'></img>	stop	2250.0	2.0	3.0	stop	non-target	B	89,Middle Finger	71,Index Finger	500.0	500.0	0.0	2250.0	0.0	500.0	n/a	0.0	stop_stim
27441.65401587465	294.345984125	n/a	821	71	2750	294.345984125	stim	stop-signal	14	119228	0.0-7.3-1.3	beast_fmri_test	349	116640,/,117320,/,118000,/,118679,/,119359,/	t,t,t,t,t	<img class = center src='/static/experiments/beast_fmri_test/images/B.png'></img>	89,71	2750.0	test	<img class = center src='/static/experiments/beast_fmri_test/images/redB.png'></img>	stop	2250.0	2.0	3.0	stop	non-target	B	89,Middle Finger	71,Index Finger	500.0	500.0	0.0	2250.0	0.0	500.0	n/a	0.0	ITI
28542	500.0	n/a	-1	-1	500	0.0	fixation	poldrack-single-stim	15	120034	0.0-7.4-0.4	beast_fmri_test	349	n/a	n/a	<div class = centerbox2><div class = fixation>+</div></div>	none	500.0	test	n/a	n/a	n/a	n/a	n/a	n/a	n/a	n/a	n/a	n/a	n/a	n/a	n/a	n/a	n/a	n/a	n/a	n/a	fixation
28250.578995920427	2750.0	n/a	1142	89	2750	293.42100408	stim	stop-signal	16	122786	0.0-7.4-1.4	beast_fmri_test	349	120038,/,120718,/,121399,/,122077,/,122757,/	t,t,t,t,t	<img class = center src='/static/experiments/beast_fmri_test/images/V.png'></img>	89,71	2750.0	test	<img class = center src='/static/experiments/beast_fmri_test/images/redV.png'></img>	go	2250.0	2.0	4.0	go	target	V	89,Middle Finger	71,Index Finger	500.0	450.0	2250.0	2250.0	1.0	500.0	1.0	n/a	go_stim
31000.578995920427	293.42100408	n/a	1142	89	2750	293.42100408	stim	stop-signal	16	122786	0.0-7.4-1.4	beast_fmri_test	349	120038,/,120718,/,121399,/,122077,/,122757,/	t,t,t,t,t	<img class = center src='/static/experiments/beast_fmri_test/images/V.png'></img>	89,71	2750.0	test	<img class = center src='/static/experiments/beast_fmri_test/images/redV.png'></img>	go	2250.0	2.0	4.0	go	target	V	89,Middle Finger	71,Index Finger	500.0	450.0	2250.0	2250.0	1.0	500.0	1.0	n/a	ITI
32093	500.0	n/a	-1	-1	500	0.0	fixation	poldrack-single-stim	17	123585	0.0-7.5-0.5	beast_fmri_test	349	123437,/	t	<div class = centerbox2><div class = fixation>+</div></div>	none	500.0	test	n/a	n/a	n/a	n/a	n/a	n/a	n/a	n/a	n/a	n/a	n/a	n/a	n/a	n/a	n/a	n/a	n/a	n/a	fixation
31259.954738041793	2750.0	n/a	882	71	2750	834.045261958	stim	stop-signal	18	126336	0.0-7.5-1.5	beast_fmri_test	349	124117,/,124796,/,125477,/,126156,/,126836,/	t,t,t,t,t	<img class = center src='/static/experiments/beast_fmri_test/images/T.png'></img>	89,71	2750.0	test	<img class = center src='/static/experiments/beast_fmri_test/images/redT.png'></img>	go	2300.0	2.0	5.0	go	non-target	T	89,Middle Finger	71,Index Finger	500.0	450.0	2250.0	2300.0	1.0	450.0	1.0	n/a	go_stim
34009.954738041793	834.045261958	n/a	882	71	2750	834.045261958	stim	stop-signal	18	126336	0.0-7.5-1.5	beast_fmri_test	349	124117,/,124796,/,125477,/,126156,/,126836,/	t,t,t,t,t	<img class = center src='/static/experiments/beast_fmri_test/images/T.png'></img>	89,71	2750.0	test	<img class = center src='/static/experiments/beast_fmri_test/images/redT.png'></img>	go	2300.0	2.0	5.0	go	non-target	T	89,Middle Finger	71,Index Finger	500.0	450.0	2250.0	2300.0	1.0	450.0	1.0	n/a	ITI
36185	500.0	n/a	-1	-1	500	0.0	fixation	poldrack-single-stim	19	127677	0.0-7.6-0.6	beast_fmri_test	349	127515,/	t	<div class = centerbox2><div class = fixation>+</div></div>	none	500.0	test	n/a	n/a	n/a	n/a	n/a	n/a	n/a	n/a	n/a	n/a	n/a	n/a	n/a	n/a	n/a	n/a	n/a	n/a	fixation
33971.196243423998	2750.0	n/a	1719	89	2750	2214.80375658	stim	stop-signal	20	130428	0.0-7.6-1.6	beast_fmri_test	349	128195,/,128874,/,129555,/,130234,/,130914,/,131594,/,132273,/	t,t,t,t,t,t,t	<img class = center src='/static/experiments/beast_fmri_test/images/V.png'></img>	89,71	2750.0	test	<img class = center src='/static/experiments/beast_fmri_test/images/redV.png'></img>	go	2250.0	2.0	6.0	go	target	V	89,Middle Finger	71,Index Finger	500.0	450.0	2250.0	2300.0	1.0	500.0	1.0	n/a	go_stim
36721.196243423998	2214.80375658	n/a	1719	89	2750	2214.80375658	stim	stop-signal	20	130428	0.0-7.6-1.6	beast_fmri_test	349	128195,/,128874,/,129555,/,130234,/,130914,/,131594,/,132273,/	t,t,t,t,t,t,t	<img class = center src='/static/experiments/beast_fmri_test/images/V.png'></img>	89,71	2750.0	test	<img class = center src='/static/experiments/beast_fmri_test/images/redV.png'></img>	go	2250.0	2.0	6.0	go	target	V	89,Middle Finger	71,Index Finger	500.0	450.0	2250.0	2300.0	1.0	500.0	1.0	n/a	ITI
41656	500.0	n/a	-1	-1	500	0.0	fixation	poldrack-single-stim	21	133148	0.0-7.7-0.7	beast_fmri_test	349	132953,/	t	<div class = centerbox2><div class = fixation>+</div></div>	none	500.0	test	n/a	n/a	n/a	n/a	n/a	n/a	n/a	n/a	n/a	n/a	n/a	n/a	n/a	n/a	n/a	n/a	n/a	n/a	fixation
41498.256423013721	2750.0	n/a	1619	71	2750	158.743576986	stim	stop-signal	22	135899	0.0-7.7-1.7	beast_fmri_test	349	133633,/,134313,/,134990,/,135672,/	t,t,t,t	<img class = center src='/static/experiments/beast_fmri_test/images/V.png'></img>	89,71	2750.0	test	<img class = center src='/static/experiments/beast_fmri_test/images/redV.png'></img>	go	2300.0	2.0	7.0	go	non-target	V	89,Middle Finger	71,Index Finger	500.0	450.0	2250.0	2300.0	1.0	450.0	1.0	n/a	go_stim
44248.256423013721	158.743576986	n/a	1619	71	2750	158.743576986	stim	stop-signal	22	135899	0.0-7.7-1.7	beast_fmri_test	349	133633,/,134313,/,134990,/,135672,/	t,t,t,t	<img class = center src='/static/experiments/beast_fmri_test/images/V.png'></img>	89,71	2750.0	test	<img class = center src='/static/experiments/beast_fmri_test/images/redV.png'></img>	go	2300.0	2.0	7.0	go	non-target	V	89,Middle Finger	71,Index Finger	500.0	450.0	2250.0	2300.0	1.0	450.0	1.0	n/a	ITI
45072	500.0	n/a	-1	-1	500	0.0	fixation	poldrack-single-stim	23	136564	0.0-7.8-0.8	beast_fmri_test	349	136351,/	t	<div class = centerbox2><div class = fixation>+</div></div>	none	500.0	test	n/a	n/a	n/a	n/a	n/a	n/a	n/a	n/a	n/a	n/a	n/a	n/a	n/a	n/a	n/a	n/a	n/a	n/a	fixation
44109.237578890956	2750.0	n/a	1736	71	2750	963.762421109	stim	stop-signal	24	139315	0.0-7.8-1.8	beast_fmri_test	349	137032,/,137710,/,138391,/,139069,/,139751,/	t,t,t,t,t	<img class = center src='/static/experiments/beast_fmri_test/images/P.png'></img>	89,71	2750.0	test	<img class = center src='/static/experiments/beast_fmri_test/images/redP.png'></img>	go	2300.0	2.0	8.0	go	non-target	P	89,Middle Finger	71,Index Finger	500.0	450.0	2250.0	2300.0	1.0	450.0	1.0	n/a	go_stim
46859.237578890956	963.762421109	n/a	1736	71	2750	963.762421109	stim	stop-signal	24	139315	0.0-7.8-1.8	beast_fmri_test	349	137032,/,137710,/,138391,/,139069,/,139751,/	t,t,t,t,t	<img class = center src='/static/experiments/beast_fmri_test/images/P.png'></img>	89,71	2750.0	test	<img class = center src='/static/experiments/beast_fmri_test/images/redP.png'></img>	go	2300.0	2.0	8.0	go	non-target	P	89,Middle Finger	71,Index Finger	500.0	450.0	2250.0	2300.0	1.0	450.0	1.0	n/a	ITI
49293	500.0	n/a	-1	-1	500	0.0	fixation	poldrack-single-stim	25	140785	0.0-7.9-0.9	beast_fmri_test	349	140430,/	t	<div class = centerbox2><div class = fixation>+</div></div>	none	500.0	test	n/a	n/a	n/a	n/a	n/a	n/a	n/a	n/a	n/a	n/a	n/a	n/a	n/a	n/a	n/a	n/a	n/a	n/a	fixation
48821.584732617426	450.0	n/a	1098	71	2750	472.415267383	stim	stop-signal	26	143536	0.0-7.9-1.9	beast_fmri_test	349	141110,/,141790,/,142468,/,143148,/,143829,/	t,t,t,t,t	<img class = center src='/static/experiments/beast_fmri_test/images/B.png'></img>	89,71	2750.0	test	<img class = center src='/static/experiments/beast_fmri_test/images/redB.png'></img>	stop	2300.0	2.0	9.0	stop	non-target	B	89,Middle Finger	71,Index Finger	500.0	450.0	2250.0	2300.0	0.0	450.0	n/a	0.0	go_stim
51121.584732617426	2300.0	n/a	1098	71	2750	472.415267383	stim	stop-signal	26	143536	0.0-7.9-1.9	beast_fmri_test	349	141110,/,141790,/,142468,/,143148,/,143829,/	t,t,t,t,t	<img class = center src='/static/experiments/beast_fmri_test/images/B.png'></img>	89,71	2750.0	test	<img class = center src='/static/experiments/beast_fmri_test/images/redB.png'></img>	stop	2300.0	2.0	9.0	stop	non-target	B	89,Middle Finger	71,Index Finger	500.0	450.0	2250.0	2300.0	0.0	450.0	n/a	0.0	stop_stim
51571.584732617426	472.415267383	n/a	1098	71	2750	472.415267383	stim	stop-signal	26	143536	0.0-7.9-1.9	beast_fmri_test	349	141110,/,141790,/,142468,/,143148,/,143829,/	t,t,t,t,t	<img class = center src='/static/experiments/beast_fmri_test/images/B.png'></img>	89,71	2750.0	test	<img class = center src='/static/experiments/beast_fmri_test/images/redB.png'></img>	stop	2300.0	2.0	9.0	stop	non-target	B	89,Middle Finger	71,Index Finger	500.0	450.0	2250.0	2300.0	0.0	450.0	n/a	0.0	ITI
53026	500.0	n/a	-1	-1	500	0.0	fixation	poldrack-single-stim	27	144518	0.0-7.10-0.10	beast_fmri_test	349	144508,/	t	<div class = centerbox2><div class = fixation>+</div></div>	none	500.0	test	n/a	n/a	n/a	n/a	n/a	n/a	n/a	n/a	n/a	n/a	n/a	n/a	n/a	n/a	n/a	n/a	n/a	n/a	fixation
51113.990706318204	2750.0	n/a	1162	71	2750	1914.00929368	stim	stop-signal	28	147270	0.0-7.10-1.10	beast_fmri_test	349	145188,/,145868,/,146547,/,147227,/,147905,/,148587,/	t,t,t,t,t,t	<img class = center src='/static/experiments/beast_fmri_test/images/D.png'></img>	89,71	2750.0	test	<img class = center src='/static/experiments/beast_fmri_test/images/redD.png'></img>	go	2350.0	2.0	10.0	go	non-target	D	89,Middle Finger	71,Index Finger	500.0	400.0	2250.0	2350.0	1.0	400.0	1.0	n/a	go_stim
53863.990706318204	1914.00929368	n/a	1162	71	2750	1914.00929368	stim	stop-signal	28	147270	0.0-7.10-1.10	beast_fmri_test	349	145188,/,145868,/,146547,/,147227,/,147905,/,148587,/	t,t,t,t,t,t	<img class = center src='/static/experiments/beast_fmri_test/images/D.png'></img>	89,71	2750.0	test	<img class = center src='/static/experiments/beast_fmri_test/images/redD.png'></img>	go	2350.0	2.0	10.0	go	non-target	D	89,Middle Finger	71,Index Finger	500.0	400.0	2250.0	2350.0	1.0	400.0	1.0	n/a	ITI
58198	500.0	n/a	-1	-1	500	0.0	fixation	poldrack-single-stim	29	149690	0.0-7.11-0.11	beast_fmri_test	349	149266,/	t	<div class = centerbox2><div class = fixation>+</div></div>	none	500.0	test	n/a	n/a	n/a	n/a	n/a	n/a	n/a	n/a	n/a	n/a	n/a	n/a	n/a	n/a	n/a	n/a	n/a	n/a	fixation
57828.410098970693	400.0	n/a	-1	-1	2750	370.589901029	stim	stop-signal	30	152441	0.0-7.11-1.11	beast_fmri_test	349	149946,/,150625,/,151304,/,151985,/,152664,/	t,t,t,t,t	<img class = center src='/static/experiments/beast_fmri_test/images/T.png'></img>	89,71	2750.0	test	<img class = center src='/static/experiments/beast_fmri_test/images/redT.png'></img>	stop	2350.0	2.0	11.0	stop	non-target	T	89,Middle Finger	71,Index Finger	500.0	400.0	2250.0	2350.0	0.0	400.0	n/a	1.0	go_stim
60178.410098970693	2350.0	n/a	-1	-1	2750	370.589901029	stim	stop-signal	30	152441	0.0-7.11-1.11	beast_fmri_test	349	149946,/,150625,/,151304,/,151985,/,152664,/	t,t,t,t,t	<img class = center src='/static/experiments/beast_fmri_test/images/T.png'></img>	89,71	2750.0	test	<img class = center src='/static/experiments/beast_fmri_test/images/redT.png'></img>	stop	2350.0	2.0	11.0	stop	non-target	T	89,Middle Finger	71,Index Finger	500.0	400.0	2250.0	2350.0	0.0	400.0	n/a	1.0	stop_stim
60578.410098970693	370.589901029	n/a	-1	-1	2750	370.589901029	stim	stop-signal	30	152441	0.0-7.11-1.11	beast_fmri_test	349	149946,/,150625,/,151304,/,151985,/,152664,/	t,t,t,t,t	<img class = center src='/static/experiments/beast_fmri_test/images/T.png'></img>	89,71	2750.0	test	<img class = center src='/static/experiments/beast_fmri_test/images/redT.png'></img>	stop	2350.0	2.0	11.0	stop	non-target	T	89,Middle Finger	71,Index Finger	500.0	400.0	2250.0	2350.0	0.0	400.0	n/a	1.0	ITI
61827	500.0	n/a	-1	-1	500	0.0	fixation	poldrack-single-stim	31	153319	0.0-7.12-0.12	beast_fmri_test	349	n/a	n/a	<div class = centerbox2><div class = fixation>+</div></div>	none	500.0	test	n/a	n/a	n/a	n/a	n/a	n/a	n/a	n/a	n/a	n/a	n/a	n/a	n/a	n/a	n/a	n/a	n/a	n/a	fixation
60804.493773134658	2750.0	n/a	1499	71	2750	1025.50622687	stim	stop-signal	32	156072	0.0-7.12-1.12	beast_fmri_test	349	153344,/,154023,/,154704,/,155383,/,156061,/,156741,/	t,t,t,t,t,t	<img class = center src='/static/experiments/beast_fmri_test/images/V.png'></img>	89,71	2750.0	test	<img class = center src='/static/experiments/beast_fmri_test/images/redV.png'></img>	go	2300.0	2.0	12.0	go	non-target	V	89,Middle Finger	71,Index Finger	500.0	450.0	2250.0	2300.0	1.0	450.0	1.0	n/a	go_stim
63554.493773134658	1025.50622687	n/a	1499	71	2750	1025.50622687	stim	stop-signal	32	156072	0.0-7.12-1.12	beast_fmri_test	349	153344,/,154023,/,154704,/,155383,/,156061,/,156741,/	t,t,t,t,t,t	<img class = center src='/static/experiments/beast_fmri_test/images/V.png'></img>	89,71	2750.0	test	<img class = center src='/static/experiments/beast_fmri_test/images/redV.png'></img>	go	2300.0	2.0	12.0	go	non-target	V	89,Middle Finger	71,Index Finger	500.0	450.0	2250.0	2300.0	1.0	450.0	1.0	n/a	ITI
66112	500.0	n/a	-1	-1	500	0.0	fixation	poldrack-single-stim	33	157604	0.0-7.13-0.13	beast_fmri_test	349	157422,/	t	<div class = centerbox2><div class = fixation>+</div></div>	none	500.0	test	n/a	n/a	n/a	n/a	n/a	n/a	n/a	n/a	n/a	n/a	n/a	n/a	n/a	n/a	n/a	n/a	n/a	n/a	fixation
65881.278620945319	2750.0	n/a	1251	71	2750	230.721379055	stim	stop-signal	34	160354	0.0-7.13-1.13	beast_fmri_test	349	158101,/,158782,/,159460,/,160140,/	t,t,t,t	<img class = center src='/static/experiments/beast_fmri_test/images/B.png'></img>	89,71	2750.0	test	<img class = center src='/static/experiments/beast_fmri_test/images/redB.png'></img>	go	2300.0	2.0	13.0	go	non-target	B	89,Middle Finger	71,Index Finger	500.0	450.0	2250.0	2300.0	1.0	450.0	1.0	n/a	go_stim
68631.278620945319	230.721379055	n/a	1251	71	2750	230.721379055	stim	stop-signal	34	160354	0.0-7.13-1.13	beast_fmri_test	349	158101,/,158782,/,159460,/,160140,/	t,t,t,t	<img class = center src='/static/experiments/beast_fmri_test/images/B.png'></img>	89,71	2750.0	test	<img class = center src='/static/experiments/beast_fmri_test/images/redB.png'></img>	go	2300.0	2.0	13.0	go	non-target	B	89,Middle Finger	71,Index Finger	500.0	450.0	2250.0	2300.0	1.0	450.0	1.0	n/a	ITI
69601	500.0	n/a	-1	-1	500	0.0	fixation	poldrack-single-stim	35	161093	0.0-7.14-0.14	beast_fmri_test	349	160819,/	t	<div class = centerbox2><div class = fixation>+</div></div>	none	500.0	test	n/a	n/a	n/a	n/a	n/a	n/a	n/a	n/a	n/a	n/a	n/a	n/a	n/a	n/a	n/a	n/a	n/a	n/a	fixation
68596.723185662238	2750.0	n/a	1478	89	2750	1005.27681434	stim	stop-signal	36	163844	0.0-7.14-1.14	beast_fmri_test	349	161500,/,162179,/,162859,/,163539,/,164218,/	t,t,t,t,t	<img class = center src='/static/experiments/beast_fmri_test/images/V.png'></img>	89,71	2750.0	test	<img class = center src='/static/experiments/beast_fmri_test/images/redV.png'></img>	go	2250.0	2.0	14.0	go	target	V	89,Middle Finger	71,Index Finger	500.0	450.0	2250.0	2300.0	1.0	500.0	1.0	n/a	go_stim
71346.723185662238	1005.27681434	n/a	1478	89	2750	1005.27681434	stim	stop-signal	36	163844	0.0-7.14-1.14	beast_fmri_test	349	161500,/,162179,/,162859,/,163539,/,164218,/	t,t,t,t,t	<img class = center src='/static/experiments/beast_fmri_test/images/V.png'></img>	89,71	2750.0	test	<img class = center src='/static/experiments/beast_fmri_test/images/redV.png'></img>	go	2250.0	2.0	14.0	go	target	V	89,Middle Finger	71,Index Finger	500.0	450.0	2250.0	2300.0	1.0	500.0	1.0	n/a	ITI
73867	500.0	n/a	-1	-1	500	0.0	fixation	poldrack-single-stim	37	165359	0.0-7.15-0.15	beast_fmri_test	349	164899,/	t	<div class = centerbox2><div class = fixation>+</div></div>	none	500.0	test	n/a	n/a	n/a	n/a	n/a	n/a	n/a	n/a	n/a	n/a	n/a	n/a	n/a	n/a	n/a	n/a	n/a	n/a	fixation
72957.249131766846	2750.0	n/a	1857	71	2750	910.750868233	stim	stop-signal	38	168110	0.0-7.15-1.15	beast_fmri_test	349	165578,/,166259,/,166937,/,167618,/,168298,/,168977,/	t,t,t,t,t,t	<img class = center src='/static/experiments/beast_fmri_test/images/T.png'></img>	89,71	2750.0	test	<img class = center src='/static/experiments/beast_fmri_test/images/redT.png'></img>	go	2300.0	2.0	15.0	go	non-target	T	89,Middle Finger	71,Index Finger	500.0	450.0	2250.0	2300.0	1.0	450.0	1.0	n/a	go_stim
75707.249131766846	910.750868233	n/a	1857	71	2750	910.750868233	stim	stop-signal	38	168110	0.0-7.15-1.15	beast_fmri_test	349	165578,/,166259,/,166937,/,167618,/,168298,/,168977,/	t,t,t,t,t,t	<img class = center src='/static/experiments/beast_fmri_test/images/T.png'></img>	89,71	2750.0	test	<img class = center src='/static/experiments/beast_fmri_test/images/redT.png'></img>	go	2300.0	2.0	15.0	go	non-target	T	89,Middle Finger	71,Index Finger	500.0	450.0	2250.0	2300.0	1.0	450.0	1.0	n/a	ITI
78039	500.0	n/a	-1	-1	500	0.0	fixation	poldrack-single-stim	39	169531	0.0-7.16-0.16	beast_fmri_test	349	n/a	n/a	<div class = centerbox2><div class = fixation>+</div></div>	none	500.0	test	n/a	n/a	n/a	n/a	n/a	n/a	n/a	n/a	n/a	n/a	n/a	n/a	n/a	n/a	n/a	n/a	n/a	n/a	fixation
75388.194795499265	500.0	n/a	-1	-1	2750	2651.8052045	stim	stop-signal	40	172282	0.0-7.16-1.16	beast_fmri_test	349	169656,/,170337,/,171015,/,171696,/,172375,/,173054,/,173735,/,174415,/	t,t,t,t,t,t,t,t	<img class = center src='/static/experiments/beast_fmri_test/images/V.png'></img>	89,71	2750.0	test	<img class = center src='/static/experiments/beast_fmri_test/images/redV.png'></img>	stop	2250.0	2.0	16.0	stop	target	V	89,Middle Finger	71,Index Finger	500.0	450.0	2250.0	2300.0	0.0	500.0	n/a	1.0	go_stim
77638.194795499265	2250.0	n/a	-1	-1	2750	2651.8052045	stim	stop-signal	40	172282	0.0-7.16-1.16	beast_fmri_test	349	169656,/,170337,/,171015,/,171696,/,172375,/,173054,/,173735,/,174415,/	t,t,t,t,t,t,t,t	<img class = center src='/static/experiments/beast_fmri_test/images/V.png'></img>	89,71	2750.0	test	<img class = center src='/static/experiments/beast_fmri_test/images/redV.png'></img>	stop	2250.0	2.0	16.0	stop	target	V	89,Middle Finger	71,Index Finger	500.0	450.0	2250.0	2300.0	0.0	500.0	n/a	1.0	stop_stim
78138.194795499265	2651.8052045	n/a	-1	-1	2750	2651.8052045	stim	stop-signal	40	172282	0.0-7.16-1.16	beast_fmri_test	349	169656,/,170337,/,171015,/,171696,/,172375,/,173054,/,173735,/,174415,/	t,t,t,t,t,t,t,t	<img class = center src='/static/experiments/beast_fmri_test/images/V.png'></img>	89,71	2750.0	test	<img class = center src='/static/experiments/beast_fmri_test/images/redV.png'></img>	stop	2250.0	2.0	16.0	stop	target	V	89,Middle Finger	71,Index Finger	500.0	450.0	2250.0	2300.0	0.0	500.0	n/a	1.0	ITI
83949	500.0	n/a	-1	-1	500	0.0	fixation	poldrack-single-stim	41	175441	0.0-7.17-0.17	beast_fmri_test	349	175094,/	t	<div class = centerbox2><div class = fixation>+</div></div>	none	500.0	test	n/a	n/a	n/a	n/a	n/a	n/a	n/a	n/a	n/a	n/a	n/a	n/a	n/a	n/a	n/a	n/a	n/a	n/a	fixation
83086.164942429954	2750.0	n/a	1024	89	2750	863.83505757	stim	stop-signal	42	178192	0.0-7.17-1.17	beast_fmri_test	349	175773,/,176454,/,177132,/,177814,/,178492,/	t,t,t,t,t	<img class = center src='/static/experiments/beast_fmri_test/images/T.png'></img>	89,71	2750.0	test	<img class = center src='/static/experiments/beast_fmri_test/images/redT.png'></img>	go	2200.0	2.0	17.0	go	target	T	89,Middle Finger	71,Index Finger	550.0	450.0	2200.0	2300.0	1.0	550.0	1.0	n/a	go_stim
85836.164942429954	863.83505757	n/a	1024	89	2750	863.83505757	stim	stop-signal	42	178192	0.0-7.17-1.17	beast_fmri_test	349	175773,/,176454,/,177132,/,177814,/,178492,/	t,t,t,t,t	<img class = center src='/static/experiments/beast_fmri_test/images/T.png'></img>	89,71	2750.0	test	<img class = center src='/static/experiments/beast_fmri_test/images/redT.png'></img>	go	2200.0	2.0	17.0	go	target	T	89,Middle Finger	71,Index Finger	550.0	450.0	2200.0	2300.0	1.0	550.0	1.0	n/a	ITI
88072	500.0	n/a	-1	-1	500	0.0	fixation	poldrack-single-stim	43	179564	0.0-7.18-0.18	beast_fmri_test	349	179172,/	t	<div class = centerbox2><div class = fixation>+</div></div>	none	500.0	test	n/a	n/a	n/a	n/a	n/a	n/a	n/a	n/a	n/a	n/a	n/a	n/a	n/a	n/a	n/a	n/a	n/a	n/a	fixation
87087.108663616935	2750.0	n/a	1344	89	2750	985.891336383	stim	stop-signal	44	182315	0.0-7.18-1.18	beast_fmri_test	349	179851,/,180532,/,181210,/,181889,/,182570,/,183250,/	t,t,t,t,t,t	<img class = center src='/static/experiments/beast_fmri_test/images/V.png'></img>	89,71	2750.0	test	<img class = center src='/static/experiments/beast_fmri_test/images/redV.png'></img>	go	2200.0	2.0	18.0	go	target	V	89,Middle Finger	71,Index Finger	550.0	450.0	2200.0	2300.0	1.0	550.0	1.0	n/a	go_stim
89837.108663616935	985.891336383	n/a	1344	89	2750	985.891336383	stim	stop-signal	44	182315	0.0-7.18-1.18	beast_fmri_test	349	179851,/,180532,/,181210,/,181889,/,182570,/,183250,/	t,t,t,t,t,t	<img class = center src='/static/experiments/beast_fmri_test/images/V.png'></img>	89,71	2750.0	test	<img class = center src='/static/experiments/beast_fmri_test/images/redV.png'></img>	go	2200.0	2.0	18.0	go	target	V	89,Middle Finger	71,Index Finger	550.0	450.0	2200.0	2300.0	1.0	550.0	1.0	n/a	ITI
92314	500.0	n/a	-1	-1	500	0.0	fixation	poldrack-single-stim	45	183806	0.0-7.19-0.19	beast_fmri_test	349	n/a	n/a	<div class = centerbox2><div class = fixation>+</div></div>	none	500.0	test	n/a	n/a	n/a	n/a	n/a	n/a	n/a	n/a	n/a	n/a	n/a	n/a	n/a	n/a	n/a	n/a	n/a	n/a	fixation
92181.111683897267	2750.0	n/a	981	71	2750	134.888316103	stim	stop-signal	46	186558	0.0-7.19-1.19	beast_fmri_test	349	183930,/,184610,/,185289,/,185969,/,186647,/	t,t,t,t,t	<img class = center src='/static/experiments/beast_fmri_test/images/B.png'></img>	89,71	2750.0	test	<img class = center src='/static/experiments/beast_fmri_test/images/redB.png'></img>	go	2300.0	2.0	19.0	go	non-target	B	89,Middle Finger	71,Index Finger	550.0	450.0	2200.0	2300.0	1.0	450.0	1.0	n/a	go_stim
94931.111683897267	134.888316103	n/a	981	71	2750	134.888316103	stim	stop-signal	46	186558	0.0-7.19-1.19	beast_fmri_test	349	183930,/,184610,/,185289,/,185969,/,186647,/	t,t,t,t,t	<img class = center src='/static/experiments/beast_fmri_test/images/B.png'></img>	89,71	2750.0	test	<img class = center src='/static/experiments/beast_fmri_test/images/redB.png'></img>	go	2300.0	2.0	19.0	go	non-target	B	89,Middle Finger	71,Index Finger	550.0	450.0	2200.0	2300.0	1.0	450.0	1.0	n/a	ITI
95709	500.0	n/a	-1	-1	500	0.0	fixation	poldrack-single-stim	47	187201	0.0-7.20-0.20	beast_fmri_test	349	n/a	n/a	<div class = centerbox2><div class = fixation>+</div></div>	none	500.0	test	n/a	n/a	n/a	n/a	n/a	n/a	n/a	n/a	n/a	n/a	n/a	n/a	n/a	n/a	n/a	n/a	n/a	n/a	fixation
95145.813848611637	2750.0	n/a	1369	71	2750	565.186151388	stim	stop-signal	48	189953	0.0-7.20-1.20	beast_fmri_test	349	187328,/,188007,/,188687,/,189367,/,190045,/	t,t,t,t,t	<img class = center src='/static/experiments/beast_fmri_test/images/T.png'></img>	89,71	2750.0	test	<img class = center src='/static/experiments/beast_fmri_test/images/redT.png'></img>	go	2300.0	2.0	20.0	go	non-target	T	89,Middle Finger	71,Index Finger	550.0	450.0	2200.0	2300.0	1.0	450.0	1.0	n/a	go_stim
97895.813848611637	565.186151388	n/a	1369	71	2750	565.186151388	stim	stop-signal	48	189953	0.0-7.20-1.20	beast_fmri_test	349	187328,/,188007,/,188687,/,189367,/,190045,/	t,t,t,t,t	<img class = center src='/static/experiments/beast_fmri_test/images/T.png'></img>	89,71	2750.0	test	<img class = center src='/static/experiments/beast_fmri_test/images/redT.png'></img>	go	2300.0	2.0	20.0	go	non-target	T	89,Middle Finger	71,Index Finger	550.0	450.0	2200.0	2300.0	1.0	450.0	1.0	n/a	ITI
99536	500.0	n/a	-1	-1	500	0.0	fixation	poldrack-single-stim	49	191028	0.0-7.21-0.21	beast_fmri_test	349	190727,/	t	<div class = centerbox2><div class = fixation>+</div></div>	none	500.0	test	n/a	n/a	n/a	n/a	n/a	n/a	n/a	n/a	n/a	n/a	n/a	n/a	n/a	n/a	n/a	n/a	n/a	n/a	fixation
98604.440537770133	450.0	n/a	1193	71	2750	933.55946223	stim	stop-signal	50	193780	0.0-7.21-1.21	beast_fmri_test	349	191405,/,192086,/,192765,/,193445,/,194124,/	t,t,t,t,t	<img class = center src='/static/experiments/beast_fmri_test/images/V.png'></img>	89,71	2750.0	test	<img class = center src='/static/experiments/beast_fmri_test/images/redV.png'></img>	stop	2300.0	2.0	21.0	stop	non-target	V	89,Middle Finger	71,Index Finger	550.0	450.0	2200.0	2300.0	0.0	450.0	n/a	0.0	go_stim
100904.44053777013	2300.0	n/a	1193	71	2750	933.55946223	stim	stop-signal	50	193780	0.0-7.21-1.21	beast_fmri_test	349	191405,/,192086,/,192765,/,193445,/,194124,/	t,t,t,t,t	<img class = center src='/static/experiments/beast_fmri_test/images/V.png'></img>	89,71	2750.0	test	<img class = center src='/static/experiments/beast_fmri_test/images/redV.png'></img>	stop	2300.0	2.0	21.0	stop	non-target	V	89,Middle Finger	71,Index Finger	550.0	450.0	2200.0	2300.0	0.0	450.0	n/a	0.0	stop_stim
101354.44053777013	933.55946223	n/a	1193	71	2750	933.55946223	stim	stop-signal	50	193780	0.0-7.21-1.21	beast_fmri_test	349	191405,/,192086,/,192765,/,193445,/,194124,/	t,t,t,t,t	<img class = center src='/static/experiments/beast_fmri_test/images/V.png'></img>	89,71	2750.0	test	<img class = center src='/static/experiments/beast_fmri_test/images/redV.png'></img>	stop	2300.0	2.0	21.0	stop	non-target	V	89,Middle Finger	71,Index Finger	550.0	450.0	2200.0	2300.0	0.0	450.0	n/a	0.0	ITI
103728	500.0	n/a	-1	-1	500	0.0	fixation	poldrack-single-stim	51	195220	0.0-7.22-0.22	beast_fmri_test	349	194805,/	t	<div class = centerbox2><div class = fixation>+</div></div>	none	500.0	test	n/a	n/a	n/a	n/a	n/a	n/a	n/a	n/a	n/a	n/a	n/a	n/a	n/a	n/a	n/a	n/a	n/a	n/a	fixation
103095.50491843166	2750.0	n/a	1107	89	2750	633.495081568	stim	stop-signal	52	197971	0.0-7.22-1.22	beast_fmri_test	349	195485,/,196164,/,196844,/,197524,/,198204,/	t,t,t,t,t	<img class = center src='/static/experiments/beast_fmri_test/images/T.png'></img>	89,71	2750.0	test	<img class = center src='/static/experiments/beast_fmri_test/images/redT.png'></img>	go	2200.0	2.0	22.0	go	target	T	89,Middle Finger	71,Index Finger	550.0	400.0	2200.0	2300.0	1.0	550.0	1.0	n/a	go_stim
105845.50491843166	633.495081568	n/a	1107	89	2750	633.495081568	stim	stop-signal	52	197971	0.0-7.22-1.22	beast_fmri_test	349	195485,/,196164,/,196844,/,197524,/,198204,/	t,t,t,t,t	<img class = center src='/static/experiments/beast_fmri_test/images/T.png'></img>	89,71	2750.0	test	<img class = center src='/static/experiments/beast_fmri_test/images/redT.png'></img>	go	2200.0	2.0	22.0	go	target	T	89,Middle Finger	71,Index Finger	550.0	400.0	2200.0	2300.0	1.0	550.0	1.0	n/a	ITI
107623	500.0	n/a	-1	-1	500	0.0	fixation	poldrack-single-stim	53	199115	0.0-7.23-0.23	beast_fmri_test	349	198882,/	t	<div class = centerbox2><div class = fixation>+</div></div>	none	500.0	test	n/a	n/a	n/a	n/a	n/a	n/a	n/a	n/a	n/a	n/a	n/a	n/a	n/a	n/a	n/a	n/a	n/a	n/a	fixation
107272.64146711354	2750.0	n/a	1511	71	2750	352.358532886	stim	stop-signal	54	201867	0.0-7.23-1.23	beast_fmri_test	349	199562,/,200241,/,200922,/,201601,/	t,t,t,t	<img class = center src='/static/experiments/beast_fmri_test/images/T.png'></img>	89,71	2750.0	test	<img class = center src='/static/experiments/beast_fmri_test/images/redT.png'></img>	go	2350.0	2.0	23.0	go	non-target	T	89,Middle Finger	71,Index Finger	550.0	400.0	2200.0	2350.0	1.0	400.0	1.0	n/a	go_stim
110022.64146711354	352.358532886	n/a	1511	71	2750	352.358532886	stim	stop-signal	54	201867	0.0-7.23-1.23	beast_fmri_test	349	199562,/,200241,/,200922,/,201601,/	t,t,t,t	<img class = center src='/static/experiments/beast_fmri_test/images/T.png'></img>	89,71	2750.0	test	<img class = center src='/static/experiments/beast_fmri_test/images/redT.png'></img>	go	2350.0	2.0	23.0	go	non-target	T	89,Middle Finger	71,Index Finger	550.0	400.0	2200.0	2350.0	1.0	400.0	1.0	n/a	ITI
111239	500.0	n/a	-1	-1	500	0.0	fixation	poldrack-single-stim	55	202731	0.0-7.24-0.24	beast_fmri_test	349	202282,/	t	<div class = centerbox2><div class = fixation>+</div></div>	none	500.0	test	n/a	n/a	n/a	n/a	n/a	n/a	n/a	n/a	n/a	n/a	n/a	n/a	n/a	n/a	n/a	n/a	n/a	n/a	fixation
110486.42216410639	550.0	n/a	-1	-1	2750	753.577835894	stim	stop-signal	56	205482	0.0-7.24-1.24	beast_fmri_test	349	202960,/,203641,/,204320,/,205001,/,205680,/	t,t,t,t,t	<img class = center src='/static/experiments/beast_fmri_test/images/T.png'></img>	89,71	2750.0	test	<img class = center src='/static/experiments/beast_fmri_test/images/redT.png'></img>	stop	2200.0	2.0	24.0	stop	target	T	89,Middle Finger	71,Index Finger	550.0	400.0	2200.0	2350.0	0.0	550.0	n/a	1.0	go_stim
112686.42216410639	2200.0	n/a	-1	-1	2750	753.577835894	stim	stop-signal	56	205482	0.0-7.24-1.24	beast_fmri_test	349	202960,/,203641,/,204320,/,205001,/,205680,/	t,t,t,t,t	<img class = center src='/static/experiments/beast_fmri_test/images/T.png'></img>	89,71	2750.0	test	<img class = center src='/static/experiments/beast_fmri_test/images/redT.png'></img>	stop	2200.0	2.0	24.0	stop	target	T	89,Middle Finger	71,Index Finger	550.0	400.0	2200.0	2350.0	0.0	550.0	n/a	1.0	stop_stim
113236.42216410639	753.577835894	n/a	-1	-1	2750	753.577835894	stim	stop-signal	56	205482	0.0-7.24-1.24	beast_fmri_test	349	202960,/,203641,/,204320,/,205001,/,205680,/	t,t,t,t,t	<img class = center src='/static/experiments/beast_fmri_test/images/T.png'></img>	89,71	2750.0	test	<img class = center src='/static/experiments/beast_fmri_test/images/redT.png'></img>	stop	2200.0	2.0	24.0	stop	target	T	89,Middle Finger	71,Index Finger	550.0	400.0	2200.0	2350.0	0.0	550.0	n/a	1.0	ITI
115257	500.0	n/a	-1	-1	500	0.0	fixation	poldrack-single-stim	57	206749	0.0-7.25-0.25	beast_fmri_test	349	206360,/	t	<div class = centerbox2><div class = fixation>+</div></div>	none	500.0	test	n/a	n/a	n/a	n/a	n/a	n/a	n/a	n/a	n/a	n/a	n/a	n/a	n/a	n/a	n/a	n/a	n/a	n/a	fixation
114390.73673276068	2750.0	n/a	1394	89	2750	866.263267239	stim	stop-signal	58	209499	0.0-7.25-1.25	beast_fmri_test	349	207038,/,207719,/,208399,/,209077,/,209758,/	t,t,t,t,t	<img class = center src='/static/experiments/beast_fmri_test/images/T.png'></img>	89,71	2750.0	test	<img class = center src='/static/experiments/beast_fmri_test/images/redT.png'></img>	go	2150.0	2.0	25.0	go	target	T	89,Middle Finger	71,Index Finger	600.0	400.0	2150.0	2350.0	1.0	600.0	1.0	n/a	go_stim
117140.73673276068	866.263267239	n/a	1394	89	2750	866.263267239	stim	stop-signal	58	209499	0.0-7.25-1.25	beast_fmri_test	349	207038,/,207719,/,208399,/,209077,/,209758,/	t,t,t,t,t	<img class = center src='/static/experiments/beast_fmri_test/images/T.png'></img>	89,71	2750.0	test	<img class = center src='/static/experiments/beast_fmri_test/images/redT.png'></img>	go	2150.0	2.0	25.0	go	target	T	89,Middle Finger	71,Index Finger	600.0	400.0	2150.0	2350.0	1.0	600.0	1.0	n/a	ITI
119385	500.0	n/a	-1	-1	500	0.0	fixation	poldrack-single-stim	59	210877	0.0-7.26-0.26	beast_fmri_test	349	210437,/	t	<div class = centerbox2><div class = fixation>+</div></div>	none	500.0	test	n/a	n/a	n/a	n/a	n/a	n/a	n/a	n/a	n/a	n/a	n/a	n/a	n/a	n/a	n/a	n/a	n/a	n/a	fixation
117072.89584089105	400.0	n/a	-1	-1	2750	2314.10415911	stim	stop-signal	60	213629	0.0-7.26-1.26	beast_fmri_test	349	211118,/,211796,/,212476,/,213155,/,213834,/,214516,/,215195,/,215875,/	t,t,t,t,t,t,t,t	<img class = center src='/static/experiments/beast_fmri_test/images/P.png'></img>	89,71	2750.0	test	<img class = center src='/static/experiments/beast_fmri_test/images/redP.png'></img>	stop	2350.0	2.0	26.0	stop	non-target	P	89,Middle Finger	71,Index Finger	600.0	400.0	2150.0	2350.0	0.0	400.0	n/a	1.0	go_stim
119422.89584089105	2350.0	n/a	-1	-1	2750	2314.10415911	stim	stop-signal	60	213629	0.0-7.26-1.26	beast_fmri_test	349	211118,/,211796,/,212476,/,213155,/,213834,/,214516,/,215195,/,215875,/	t,t,t,t,t,t,t,t	<img class = center src='/static/experiments/beast_fmri_test/images/P.png'></img>	89,71	2750.0	test	<img class = center src='/static/experiments/beast_fmri_test/images/redP.png'></img>	stop	2350.0	2.0	26.0	stop	non-target	P	89,Middle Finger	71,Index Finger	600.0	400.0	2150.0	2350.0	0.0	400.0	n/a	1.0	stop_stim
119822.89584089105	2314.10415911	n/a	-1	-1	2750	2314.10415911	stim	stop-signal	60	213629	0.0-7.26-1.26	beast_fmri_test	349	211118,/,211796,/,212476,/,213155,/,213834,/,214516,/,215195,/,215875,/	t,t,t,t,t,t,t,t	<img class = center src='/static/experiments/beast_fmri_test/images/P.png'></img>	89,71	2750.0	test	<img class = center src='/static/experiments/beast_fmri_test/images/redP.png'></img>	stop	2350.0	2.0	26.0	stop	non-target	P	89,Middle Finger	71,Index Finger	600.0	400.0	2150.0	2350.0	0.0	400.0	n/a	1.0	ITI
124962	500.0	n/a	-1	-1	500	0.0	fixation	poldrack-single-stim	61	216454	0.0-7.27-0.27	beast_fmri_test	349	n/a	n/a	<div class = centerbox2><div class = fixation>+</div></div>	none	500.0	test	n/a	n/a	n/a	n/a	n/a	n/a	n/a	n/a	n/a	n/a	n/a	n/a	n/a	n/a	n/a	n/a	n/a	n/a	fixation
123426.37223249394	600.0	n/a	-1	-1	2750	1536.62776751	stim	stop-signal	62	219205	0.0-7.27-1.27	beast_fmri_test	349	216555,/,217234,/,217914,/,218593,/,219272,/,219953,/,220632,/	t,t,t,t,t,t,t	<img class = center src='/static/experiments/beast_fmri_test/images/T.png'></img>	89,71	2750.0	test	<img class = center src='/static/experiments/beast_fmri_test/images/redT.png'></img>	stop	2150.0	2.0	27.0	stop	target	T	89,Middle Finger	71,Index Finger	600.0	450.0	2150.0	2350.0	0.0	600.0	n/a	1.0	go_stim
125576.37223249394	2150.0	n/a	-1	-1	2750	1536.62776751	stim	stop-signal	62	219205	0.0-7.27-1.27	beast_fmri_test	349	216555,/,217234,/,217914,/,218593,/,219272,/,219953,/,220632,/	t,t,t,t,t,t,t	<img class = center src='/static/experiments/beast_fmri_test/images/T.png'></img>	89,71	2750.0	test	<img class = center src='/static/experiments/beast_fmri_test/images/redT.png'></img>	stop	2150.0	2.0	27.0	stop	target	T	89,Middle Finger	71,Index Finger	600.0	450.0	2150.0	2350.0	0.0	600.0	n/a	1.0	stop_stim
126176.37223249394	1536.62776751	n/a	-1	-1	2750	1536.62776751	stim	stop-signal	62	219205	0.0-7.27-1.27	beast_fmri_test	349	216555,/,217234,/,217914,/,218593,/,219272,/,219953,/,220632,/	t,t,t,t,t,t,t	<img class = center src='/static/experiments/beast_fmri_test/images/T.png'></img>	89,71	2750.0	test	<img class = center src='/static/experiments/beast_fmri_test/images/redT.png'></img>	stop	2150.0	2.0	27.0	stop	target	T	89,Middle Finger	71,Index Finger	600.0	450.0	2150.0	2350.0	0.0	600.0	n/a	1.0	ITI
129761	500.0	n/a	-1	-1	500	0.0	fixation	poldrack-single-stim	63	221253	0.0-7.28-0.28	beast_fmri_test	349	n/a	n/a	<div class = centerbox2><div class = fixation>+</div></div>	none	500.0	test	n/a	n/a	n/a	n/a	n/a	n/a	n/a	n/a	n/a	n/a	n/a	n/a	n/a	n/a	n/a	n/a	n/a	n/a	fixation
129433.76162019052	2750.0	n/a	1829	71	2750	328.238379809	stim	stop-signal	64	224004	0.0-7.28-1.28	beast_fmri_test	349	221313,/,221991,/,222673,/,223351,/,224029,/	t,t,t,t,t	<img class = center src='/static/experiments/beast_fmri_test/images/V.png'></img>	89,71	2750.0	test	<img class = center src='/static/experiments/beast_fmri_test/images/redV.png'></img>	go	2300.0	2.0	28.0	go	non-target	V	89,Middle Finger	71,Index Finger	650.0	450.0	2150.0	2300.0	1.0	450.0	1.0	n/a	go_stim
132183.76162019052	328.238379809	n/a	1829	71	2750	328.238379809	stim	stop-signal	64	224004	0.0-7.28-1.28	beast_fmri_test	349	221313,/,221991,/,222673,/,223351,/,224029,/	t,t,t,t,t	<img class = center src='/static/experiments/beast_fmri_test/images/V.png'></img>	89,71	2750.0	test	<img class = center src='/static/experiments/beast_fmri_test/images/redV.png'></img>	go	2300.0	2.0	28.0	go	non-target	V	89,Middle Finger	71,Index Finger	650.0	450.0	2150.0	2300.0	1.0	450.0	1.0	n/a	ITI
133354	500.0	n/a	-1	-1	500	0.0	fixation	poldrack-single-stim	65	224846	0.0-7.29-0.29	beast_fmri_test	349	224713,/	t	<div class = centerbox2><div class = fixation>+</div></div>	none	500.0	test	n/a	n/a	n/a	n/a	n/a	n/a	n/a	n/a	n/a	n/a	n/a	n/a	n/a	n/a	n/a	n/a	n/a	n/a	fixation
132547.39866029893	450.0	n/a	-1	-1	2750	808.601339701	stim	stop-signal	66	227598	0.0-7.29-1.29	beast_fmri_test	349	225390,/,226071,/,226750,/,227430,/,228109,/	t,t,t,t,t	<img class = center src='/static/experiments/beast_fmri_test/images/P.png'></img>	89,71	2750.0	test	<img class = center src='/static/experiments/beast_fmri_test/images/redP.png'></img>	stop	2300.0	2.0	29.0	stop	non-target	P	89,Middle Finger	71,Index Finger	650.0	450.0	2150.0	2300.0	0.0	450.0	n/a	1.0	go_stim
134847.39866029893	2300.0	n/a	-1	-1	2750	808.601339701	stim	stop-signal	66	227598	0.0-7.29-1.29	beast_fmri_test	349	225390,/,226071,/,226750,/,227430,/,228109,/	t,t,t,t,t	<img class = center src='/static/experiments/beast_fmri_test/images/P.png'></img>	89,71	2750.0	test	<img class = center src='/static/experiments/beast_fmri_test/images/redP.png'></img>	stop	2300.0	2.0	29.0	stop	non-target	P	89,Middle Finger	71,Index Finger	650.0	450.0	2150.0	2300.0	0.0	450.0	n/a	1.0	stop_stim
135297.39866029893	808.601339701	n/a	-1	-1	2750	808.601339701	stim	stop-signal	66	227598	0.0-7.29-1.29	beast_fmri_test	349	225390,/,226071,/,226750,/,227430,/,228109,/	t,t,t,t,t	<img class = center src='/static/experiments/beast_fmri_test/images/P.png'></img>	89,71	2750.0	test	<img class = center src='/static/experiments/beast_fmri_test/images/redP.png'></img>	stop	2300.0	2.0	29.0	stop	non-target	P	89,Middle Finger	71,Index Finger	650.0	450.0	2150.0	2300.0	0.0	450.0	n/a	1.0	ITI
137426	500.0	n/a	-1	-1	500	0.0	fixation	poldrack-single-stim	67	228918	0.0-7.30-0.30	beast_fmri_test	349	228790,/	t	<div class = centerbox2><div class = fixation>+</div></div>	none	500.0	test	n/a	n/a	n/a	n/a	n/a	n/a	n/a	n/a	n/a	n/a	n/a	n/a	n/a	n/a	n/a	n/a	n/a	n/a	fixation
133233.0948709923	2750.0	n/a	1015	89	2750	4193.90512901	stim	stop-signal	68	231669	0.0-7.30-1.30	beast_fmri_test	349	229470,/,230149,/,230829,/,231507,/,232188,/,232868,/,233547,/,234226,/,234906,/,235585,/	t,t,t,t,t,t,t,t,t,t	<img class = center src='/static/experiments/beast_fmri_test/images/V.png'></img>	89,71	2750.0	test	<img class = center src='/static/experiments/beast_fmri_test/images/redV.png'></img>	go	2100.0	2.0	30.0	go	target	V	89,Middle Finger	71,Index Finger	650.0	500.0	2100.0	2300.0	1.0	650.0	1.0	n/a	go_stim
135983.0948709923	4193.90512901	n/a	1015	89	2750	4193.90512901	stim	stop-signal	68	231669	0.0-7.30-1.30	beast_fmri_test	349	229470,/,230149,/,230829,/,231507,/,232188,/,232868,/,233547,/,234226,/,234906,/,235585,/	t,t,t,t,t,t,t,t,t,t	<img class = center src='/static/experiments/beast_fmri_test/images/V.png'></img>	89,71	2750.0	test	<img class = center src='/static/experiments/beast_fmri_test/images/redV.png'></img>	go	2100.0	2.0	30.0	go	target	V	89,Middle Finger	71,Index Finger	650.0	500.0	2100.0	2300.0	1.0	650.0	1.0	n/a	ITI
144880	500.0	n/a	-1	-1	500	0.0	fixation	poldrack-single-stim	69	236372	0.0-7.31-0.31	beast_fmri_test	349	236266,/	t	<div class = centerbox2><div class = fixation>+</div></div>	none	500.0	test	n/a	n/a	n/a	n/a	n/a	n/a	n/a	n/a	n/a	n/a	n/a	n/a	n/a	n/a	n/a	n/a	n/a	n/a	fixation
144239.23386801436	2750.0	n/a	868	71	2750	641.766131986	stim	stop-signal	70	239123	0.0-7.31-1.31	beast_fmri_test	349	236944,/,237626,/,238304,/,238985,/,239663,/	t,t,t,t,t	<img class = center src='/static/experiments/beast_fmri_test/images/B.png'></img>	89,71	2750.0	test	<img class = center src='/static/experiments/beast_fmri_test/images/redB.png'></img>	go	2250.0	2.0	31.0	go	non-target	B	89,Middle Finger	71,Index Finger	650.0	500.0	2100.0	2250.0	1.0	500.0	1.0	n/a	go_stim
146989.23386801436	641.766131986	n/a	868	71	2750	641.766131986	stim	stop-signal	70	239123	0.0-7.31-1.31	beast_fmri_test	349	236944,/,237626,/,238304,/,238985,/,239663,/	t,t,t,t,t	<img class = center src='/static/experiments/beast_fmri_test/images/B.png'></img>	89,71	2750.0	test	<img class = center src='/static/experiments/beast_fmri_test/images/redB.png'></img>	go	2250.0	2.0	31.0	go	non-target	B	89,Middle Finger	71,Index Finger	650.0	500.0	2100.0	2250.0	1.0	500.0	1.0	n/a	ITI
148784	500.0	n/a	-1	-1	500	0.0	fixation	poldrack-single-stim	71	240276	0.0-7.32-0.32	beast_fmri_test	349	n/a	n/a	<div class = centerbox2><div class = fixation>+</div></div>	none	500.0	test	n/a	n/a	n/a	n/a	n/a	n/a	n/a	n/a	n/a	n/a	n/a	n/a	n/a	n/a	n/a	n/a	n/a	n/a	fixation
147208.46939765464	2750.0	n/a	1641	71	2750	1578.53060235	stim	stop-signal	72	243029	0.0-7.32-1.32	beast_fmri_test	349	240343,/,241023,/,241703,/,242383,/,243062,/,243743,/,244421,/	t,t,t,t,t,t,t	<img class = center src='/static/experiments/beast_fmri_test/images/P.png'></img>	89,71	2750.0	test	<img class = center src='/static/experiments/beast_fmri_test/images/redP.png'></img>	go	2250.0	2.0	32.0	go	non-target	P	89,Middle Finger	71,Index Finger	650.0	500.0	2100.0	2250.0	1.0	500.0	1.0	n/a	go_stim
149958.46939765464	1578.53060235	n/a	1641	71	2750	1578.53060235	stim	stop-signal	72	243029	0.0-7.32-1.32	beast_fmri_test	349	240343,/,241023,/,241703,/,242383,/,243062,/,243743,/,244421,/	t,t,t,t,t,t,t	<img class = center src='/static/experiments/beast_fmri_test/images/P.png'></img>	89,71	2750.0	test	<img class = center src='/static/experiments/beast_fmri_test/images/redP.png'></img>	go	2250.0	2.0	32.0	go	non-target	P	89,Middle Finger	71,Index Finger	650.0	500.0	2100.0	2250.0	1.0	500.0	1.0	n/a	ITI
153627	500.0	n/a	-1	-1	500	0.0	fixation	poldrack-single-stim	73	245119	0.0-7.33-0.33	beast_fmri_test	349	245102,/	t	<div class = centerbox2><div class = fixation>+</div></div>	none	500.0	test	n/a	n/a	n/a	n/a	n/a	n/a	n/a	n/a	n/a	n/a	n/a	n/a	n/a	n/a	n/a	n/a	n/a	n/a	fixation
151532.76051473481	650.0	n/a	-1	-1	2750	2095.23948527	stim	stop-signal	74	247870	0.0-7.33-1.33	beast_fmri_test	349	245781,/,246461,/,247139,/,247820,/,248500,/,249180,/,249859,/	t,t,t,t,t,t,t	<img class = center src='/static/experiments/beast_fmri_test/images/B.png'></img>	89,71	2750.0	test	<img class = center src='/static/experiments/beast_fmri_test/images/redB.png'></img>	stop	2100.0	2.0	33.0	stop	target	B	89,Middle Finger	71,Index Finger	650.0	500.0	2100.0	2250.0	0.0	650.0	n/a	1.0	go_stim
153632.76051473481	2100.0	n/a	-1	-1	2750	2095.23948527	stim	stop-signal	74	247870	0.0-7.33-1.33	beast_fmri_test	349	245781,/,246461,/,247139,/,247820,/,248500,/,249180,/,249859,/	t,t,t,t,t,t,t	<img class = center src='/static/experiments/beast_fmri_test/images/B.png'></img>	89,71	2750.0	test	<img class = center src='/static/experiments/beast_fmri_test/images/redB.png'></img>	stop	2100.0	2.0	33.0	stop	target	B	89,Middle Finger	71,Index Finger	650.0	500.0	2100.0	2250.0	0.0	650.0	n/a	1.0	stop_stim
154282.76051473481	2095.23948527	n/a	-1	-1	2750	2095.23948527	stim	stop-signal	74	247870	0.0-7.33-1.33	beast_fmri_test	349	245781,/,246461,/,247139,/,247820,/,248500,/,249180,/,249859,/	t,t,t,t,t,t,t	<img class = center src='/static/experiments/beast_fmri_test/images/B.png'></img>	89,71	2750.0	test	<img class = center src='/static/experiments/beast_fmri_test/images/redB.png'></img>	stop	2100.0	2.0	33.0	stop	target	B	89,Middle Finger	71,Index Finger	650.0	500.0	2100.0	2250.0	0.0	650.0	n/a	1.0	ITI
158986	500.0	n/a	-1	-1	500	0.0	fixation	poldrack-single-stim	75	250478	0.0-7.34-0.34	beast_fmri_test	349	n/a	n/a	<div class = centerbox2><div class = fixation>+</div></div>	none	500.0	test	n/a	n/a	n/a	n/a	n/a	n/a	n/a	n/a	n/a	n/a	n/a	n/a	n/a	n/a	n/a	n/a	n/a	n/a	fixation
157837.47950809979	2750.0	n/a	1772	89	2750	1149.5204919	stim	stop-signal	76	253229	0.0-7.34-1.34	beast_fmri_test	349	250539,/,251220,/,251897,/,252578,/,253256,/,253936,/	t,t,t,t,t,t	<img class = center src='/static/experiments/beast_fmri_test/images/P.png'></img>	89,71	2750.0	test	<img class = center src='/static/experiments/beast_fmri_test/images/redP.png'></img>	go	2050.0	2.0	34.0	go	target	P	89,Middle Finger	71,Index Finger	700.0	500.0	2050.0	2250.0	1.0	700.0	1.0	n/a	go_stim
160587.47950809979	1149.5204919	n/a	1772	89	2750	1149.5204919	stim	stop-signal	76	253229	0.0-7.34-1.34	beast_fmri_test	349	250539,/,251220,/,251897,/,252578,/,253256,/,253936,/	t,t,t,t,t,t	<img class = center src='/static/experiments/beast_fmri_test/images/P.png'></img>	89,71	2750.0	test	<img class = center src='/static/experiments/beast_fmri_test/images/redP.png'></img>	go	2050.0	2.0	34.0	go	target	P	89,Middle Finger	71,Index Finger	700.0	500.0	2050.0	2250.0	1.0	700.0	1.0	n/a	ITI
163398	500.0	n/a	-1	-1	500	0.0	fixation	poldrack-single-stim	77	254890	0.0-7.35-0.35	beast_fmri_test	349	254617,/	t	<div class = centerbox2><div class = fixation>+</div></div>	none	500.0	test	n/a	n/a	n/a	n/a	n/a	n/a	n/a	n/a	n/a	n/a	n/a	n/a	n/a	n/a	n/a	n/a	n/a	n/a	fixation
162298.44294334063	500.0	n/a	-1	-1	2750	1102.55705666	stim	stop-signal	78	257643	0.0-7.35-1.35	beast_fmri_test	349	255296,/,255976,/,256657,/,257336,/,258016,/,258696,/	t,t,t,t,t,t	<img class = center src='/static/experiments/beast_fmri_test/images/V.png'></img>	89,71	2750.0	test	<img class = center src='/static/experiments/beast_fmri_test/images/redV.png'></img>	stop	2250.0	2.0	35.0	stop	non-target	V	89,Middle Finger	71,Index Finger	700.0	500.0	2050.0	2250.0	0.0	500.0	n/a	1.0	go_stim
164548.44294334063	2250.0	n/a	-1	-1	2750	1102.55705666	stim	stop-signal	78	257643	0.0-7.35-1.35	beast_fmri_test	349	255296,/,255976,/,256657,/,257336,/,258016,/,258696,/	t,t,t,t,t,t	<img class = center src='/static/experiments/beast_fmri_test/images/V.png'></img>	89,71	2750.0	test	<img class = center src='/static/experiments/beast_fmri_test/images/redV.png'></img>	stop	2250.0	2.0	35.0	stop	non-target	V	89,Middle Finger	71,Index Finger	700.0	500.0	2050.0	2250.0	0.0	500.0	n/a	1.0	stop_stim
165048.44294334063	1102.55705666	n/a	-1	-1	2750	1102.55705666	stim	stop-signal	78	257643	0.0-7.35-1.35	beast_fmri_test	349	255296,/,255976,/,256657,/,257336,/,258016,/,258696,/	t,t,t,t,t,t	<img class = center src='/static/experiments/beast_fmri_test/images/V.png'></img>	89,71	2750.0	test	<img class = center src='/static/experiments/beast_fmri_test/images/redV.png'></img>	stop	2250.0	2.0	35.0	stop	non-target	V	89,Middle Finger	71,Index Finger	700.0	500.0	2050.0	2250.0	0.0	500.0	n/a	1.0	ITI
167765	500.0	n/a	-1	-1	500	0.0	fixation	poldrack-single-stim	79	259257	0.0-7.36-0.36	beast_fmri_test	349	n/a	n/a	<div class = centerbox2><div class = fixation>+</div></div>	none	500.0	test	n/a	n/a	n/a	n/a	n/a	n/a	n/a	n/a	n/a	n/a	n/a	n/a	n/a	n/a	n/a	n/a	n/a	n/a	fixation
162766.0	2750.0	n/a	1721	71	2750	5000.0	stim	stop-signal	80	262008	0.0-7.36-1.36	beast_fmri_test	349	259375,/,260055,/,260735,/,261414,/,262093,/,262774,/,263453,/,264133,/,264811,/,265491,/,266171,/,266852,/	t,t,t,t,t,t,t,t,t,t,t,t	<img class = center src='/static/experiments/beast_fmri_test/images/V.png'></img>	89,71	2750.0	test	<img class = center src='/static/experiments/beast_fmri_test/images/redV.png'></img>	go	2200.0	2.0	36.0	go	non-target	V	89,Middle Finger	71,Index Finger	700.0	550.0	2050.0	2200.0	1.0	550.0	1.0	n/a	go_stim
165516.0	5000.0	n/a	1721	71	2750	5000.0	stim	stop-signal	80	262008	0.0-7.36-1.36	beast_fmri_test	349	259375,/,260055,/,260735,/,261414,/,262093,/,262774,/,263453,/,264133,/,264811,/,265491,/,266171,/,266852,/	t,t,t,t,t,t,t,t,t,t,t,t	<img class = center src='/static/experiments/beast_fmri_test/images/V.png'></img>	89,71	2750.0	test	<img class = center src='/static/experiments/beast_fmri_test/images/redV.png'></img>	go	2200.0	2.0	36.0	go	non-target	V	89,Middle Finger	71,Index Finger	700.0	550.0	2050.0	2200.0	1.0	550.0	1.0	n/a	ITI
176027	500.0	n/a	-1	-1	500	0.0	fixation	poldrack-single-stim	81	267519	0.0-7.37-0.37	beast_fmri_test	349	n/a	n/a	<div class = centerbox2><div class = fixation>+</div></div>	none	500.0	test	n/a	n/a	n/a	n/a	n/a	n/a	n/a	n/a	n/a	n/a	n/a	n/a	n/a	n/a	n/a	n/a	n/a	n/a	fixation
175420.80376533867	2750.0	n/a	902	71	2750	607.196234661	stim	stop-signal	82	270270	0.0-7.37-1.37	beast_fmri_test	349	267531,/,268211,/,268889,/,269570,/,270249,/	t,t,t,t,t	<img class = center src='/static/experiments/beast_fmri_test/images/D.png'></img>	89,71	2750.0	test	<img class = center src='/static/experiments/beast_fmri_test/images/redD.png'></img>	go	2200.0	2.0	37.0	go	non-target	D	89,Middle Finger	71,Index Finger	700.0	550.0	2050.0	2200.0	1.0	550.0	1.0	n/a	go_stim
178170.80376533867	607.196234661	n/a	902	71	2750	607.196234661	stim	stop-signal	82	270270	0.0-7.37-1.37	beast_fmri_test	349	267531,/,268211,/,268889,/,269570,/,270249,/	t,t,t,t,t	<img class = center src='/static/experiments/beast_fmri_test/images/D.png'></img>	89,71	2750.0	test	<img class = center src='/static/experiments/beast_fmri_test/images/redD.png'></img>	go	2200.0	2.0	37.0	go	non-target	D	89,Middle Finger	71,Index Finger	700.0	550.0	2050.0	2200.0	1.0	550.0	1.0	n/a	ITI
179897	500.0	n/a	-1	-1	500	0.0	fixation	poldrack-single-stim	83	271389	0.0-7.38-0.38	beast_fmri_test	349	270928,/	t	<div class = centerbox2><div class = fixation>+</div></div>	none	500.0	test	n/a	n/a	n/a	n/a	n/a	n/a	n/a	n/a	n/a	n/a	n/a	n/a	n/a	n/a	n/a	n/a	n/a	n/a	fixation
177407.64990369993	550.0	n/a	1783	71	2750	2491.3500963	stim	stop-signal	84	274141	0.0-7.38-1.38	beast_fmri_test	349	271610,/,272289,/,272968,/,273649,/,274328,/,275007,/,275688,/,276366,/	t,t,t,t,t,t,t,t	<img class = center src='/static/experiments/beast_fmri_test/images/P.png'></img>	89,71	2750.0	test	<img class = center src='/static/experiments/beast_fmri_test/images/redP.png'></img>	stop	2200.0	2.0	38.0	stop	non-target	P	89,Middle Finger	71,Index Finger	700.0	550.0	2050.0	2200.0	0.0	550.0	n/a	0.0	go_stim
179607.64990369993	2200.0	n/a	1783	71	2750	2491.3500963	stim	stop-signal	84	274141	0.0-7.38-1.38	beast_fmri_test	349	271610,/,272289,/,272968,/,273649,/,274328,/,275007,/,275688,/,276366,/	t,t,t,t,t,t,t,t	<img class = center src='/static/experiments/beast_fmri_test/images/P.png'></img>	89,71	2750.0	test	<img class = center src='/static/experiments/beast_fmri_test/images/redP.png'></img>	stop	2200.0	2.0	38.0	stop	non-target	P	89,Middle Finger	71,Index Finger	700.0	550.0	2050.0	2200.0	0.0	550.0	n/a	0.0	stop_stim
180157.64990369993	2491.3500963	n/a	1783	71	2750	2491.3500963	stim	stop-signal	84	274141	0.0-7.38-1.38	beast_fmri_test	349	271610,/,272289,/,272968,/,273649,/,274328,/,275007,/,275688,/,276366,/	t,t,t,t,t,t,t,t	<img class = center src='/static/experiments/beast_fmri_test/images/P.png'></img>	89,71	2750.0	test	<img class = center src='/static/experiments/beast_fmri_test/images/redP.png'></img>	stop	2200.0	2.0	38.0	stop	non-target	P	89,Middle Finger	71,Index Finger	700.0	550.0	2050.0	2200.0	0.0	550.0	n/a	0.0	ITI
185652	500.0	n/a	-1	-1	500	0.0	fixation	poldrack-single-stim	85	277144	0.0-7.39-0.39	beast_fmri_test	349	277047,/	t	<div class = centerbox2><div class = fixation>+</div></div>	none	500.0	test	n/a	n/a	n/a	n/a	n/a	n/a	n/a	n/a	n/a	n/a	n/a	n/a	n/a	n/a	n/a	n/a	n/a	n/a	fixation
185300.74063893757	2750.0	n/a	1489	71	2750	353.259361062	stim	stop-signal	86	279896	0.0-7.39-1.39	beast_fmri_test	349	277725,/,278406,/,279085,/,279765,/	t,t,t,t	<img class = center src='/static/experiments/beast_fmri_test/images/B.png'></img>	89,71	2750.0	test	<img class = center src='/static/experiments/beast_fmri_test/images/redB.png'></img>	go	2250.0	2.0	39.0	go	non-target	B	89,Middle Finger	71,Index Finger	700.0	500.0	2050.0	2250.0	1.0	500.0	1.0	n/a	go_stim
188050.74063893757	353.259361062	n/a	1489	71	2750	353.259361062	stim	stop-signal	86	279896	0.0-7.39-1.39	beast_fmri_test	349	277725,/,278406,/,279085,/,279765,/	t,t,t,t	<img class = center src='/static/experiments/beast_fmri_test/images/B.png'></img>	89,71	2750.0	test	<img class = center src='/static/experiments/beast_fmri_test/images/redB.png'></img>	go	2250.0	2.0	39.0	go	non-target	B	89,Middle Finger	71,Index Finger	700.0	500.0	2050.0	2250.0	1.0	500.0	1.0	n/a	ITI
189272	500.0	n/a	-1	-1	500	0.0	fixation	poldrack-single-stim	87	280764	0.0-7.40-0.40	beast_fmri_test	349	280445,/	t	<div class = centerbox2><div class = fixation>+</div></div>	none	500.0	test	n/a	n/a	n/a	n/a	n/a	n/a	n/a	n/a	n/a	n/a	n/a	n/a	n/a	n/a	n/a	n/a	n/a	n/a	fixation
187612.05069505807	2750.0	n/a	1034	71	2750	1661.94930494	stim	stop-signal	88	283516	0.0-7.40-1.40	beast_fmri_test	349	281124,/,281803,/,282484,/,283163,/,283843,/,284524,/	t,t,t,t,t,t	<img class = center src='/static/experiments/beast_fmri_test/images/V.png'></img>	89,71	2750.0	test	<img class = center src='/static/experiments/beast_fmri_test/images/redV.png'></img>	go	2250.0	2.0	40.0	go	non-target	V	89,Middle Finger	71,Index Finger	700.0	500.0	2050.0	2250.0	1.0	500.0	1.0	n/a	go_stim
190362.05069505807	1661.94930494	n/a	1034	71	2750	1661.94930494	stim	stop-signal	88	283516	0.0-7.40-1.40	beast_fmri_test	349	281124,/,281803,/,282484,/,283163,/,283843,/,284524,/	t,t,t,t,t,t	<img class = center src='/static/experiments/beast_fmri_test/images/V.png'></img>	89,71	2750.0	test	<img class = center src='/static/experiments/beast_fmri_test/images/redV.png'></img>	go	2250.0	2.0	40.0	go	non-target	V	89,Middle Finger	71,Index Finger	700.0	500.0	2050.0	2250.0	1.0	500.0	1.0	n/a	ITI
194197	500.0	n/a	-1	-1	500	0.0	fixation	poldrack-single-stim	89	285689	0.0-7.41-0.41	beast_fmri_test	349	285203,/	t	<div class = centerbox2><div class = fixation>+</div></div>	none	500.0	test	n/a	n/a	n/a	n/a	n/a	n/a	n/a	n/a	n/a	n/a	n/a	n/a	n/a	n/a	n/a	n/a	n/a	n/a	fixation
193390.78825729305	2750.0	n/a	1441	71	2750	809.211742707	stim	stop-signal	90	288442	0.0-7.41-1.41	beast_fmri_test	349	285884,/,286562,/,287242,/,287922,/,288601,/	t,t,t,t,t	<img class = center src='/static/experiments/beast_fmri_test/images/B.png'></img>	89,71	2750.0	test	<img class = center src='/static/experiments/beast_fmri_test/images/redB.png'></img>	go	2050.0	2.0	41.0	go	target	B	89,Middle Finger	71,Index Finger	700.0	500.0	2050.0	2250.0	0.0	700.0	0.0	n/a	go_stim
196140.78825729305	809.211742707	n/a	1441	71	2750	809.211742707	stim	stop-signal	90	288442	0.0-7.41-1.41	beast_fmri_test	349	285884,/,286562,/,287242,/,287922,/,288601,/	t,t,t,t,t	<img class = center src='/static/experiments/beast_fmri_test/images/B.png'></img>	89,71	2750.0	test	<img class = center src='/static/experiments/beast_fmri_test/images/redB.png'></img>	go	2050.0	2.0	41.0	go	target	B	89,Middle Finger	71,Index Finger	700.0	500.0	2050.0	2250.0	0.0	700.0	0.0	n/a	ITI
198273	500.0	n/a	-1	-1	500	0.0	fixation	poldrack-single-stim	91	289765	0.0-7.42-0.42	beast_fmri_test	349	289281,/	t	<div class = centerbox2><div class = fixation>+</div></div>	none	500.0	test	n/a	n/a	n/a	n/a	n/a	n/a	n/a	n/a	n/a	n/a	n/a	n/a	n/a	n/a	n/a	n/a	n/a	n/a	fixation
196609.51669882657	500.0	n/a	-1	-1	2750	1664.48330117	stim	stop-signal	92	292516	0.0-7.42-1.42	beast_fmri_test	349	289961,/,290640,/,291320,/,291999,/,292679,/,293359,/,294039,/	t,t,t,t,t,t,t	<img class = center src='/static/experiments/beast_fmri_test/images/T.png'></img>	89,71	2750.0	test	<img class = center src='/static/experiments/beast_fmri_test/images/redT.png'></img>	stop	2250.0	2.0	42.0	stop	non-target	T	89,Middle Finger	71,Index Finger	700.0	500.0	2050.0	2250.0	0.0	500.0	n/a	1.0	go_stim
198859.51669882657	2250.0	n/a	-1	-1	2750	1664.48330117	stim	stop-signal	92	292516	0.0-7.42-1.42	beast_fmri_test	349	289961,/,290640,/,291320,/,291999,/,292679,/,293359,/,294039,/	t,t,t,t,t,t,t	<img class = center src='/static/experiments/beast_fmri_test/images/T.png'></img>	89,71	2750.0	test	<img class = center src='/static/experiments/beast_fmri_test/images/redT.png'></img>	stop	2250.0	2.0	42.0	stop	non-target	T	89,Middle Finger	71,Index Finger	700.0	500.0	2050.0	2250.0	0.0	500.0	n/a	1.0	stop_stim
199359.51669882657	1664.48330117	n/a	-1	-1	2750	1664.48330117	stim	stop-signal	92	292516	0.0-7.42-1.42	beast_fmri_test	349	289961,/,290640,/,291320,/,291999,/,292679,/,293359,/,294039,/	t,t,t,t,t,t,t	<img class = center src='/static/experiments/beast_fmri_test/images/T.png'></img>	89,71	2750.0	test	<img class = center src='/static/experiments/beast_fmri_test/images/redT.png'></img>	stop	2250.0	2.0	42.0	stop	non-target	T	89,Middle Finger	71,Index Finger	700.0	500.0	2050.0	2250.0	0.0	500.0	n/a	1.0	ITI
203204	500.0	n/a	-1	-1	500	0.0	fixation	poldrack-single-stim	93	294696	0.0-7.43-0.43	beast_fmri_test	349	n/a	n/a	<div class = centerbox2><div class = fixation>+</div></div>	none	500.0	test	n/a	n/a	n/a	n/a	n/a	n/a	n/a	n/a	n/a	n/a	n/a	n/a	n/a	n/a	n/a	n/a	n/a	n/a	fixation
200815.59877466562	2750.0	n/a	1488	71	2750	2388.40122533	stim	stop-signal	94	297446	0.0-7.43-1.43	beast_fmri_test	349	294719,/,295399,/,296078,/,296758,/,297437,/,298116,/,298797,/,299475,/	t,t,t,t,t,t,t,t	<img class = center src='/static/experiments/beast_fmri_test/images/D.png'></img>	89,71	2750.0	test	<img class = center src='/static/experiments/beast_fmri_test/images/redD.png'></img>	go	2200.0	2.0	43.0	go	non-target	D	89,Middle Finger	71,Index Finger	700.0	550.0	2050.0	2200.0	1.0	550.0	1.0	n/a	go_stim
203565.59877466562	2388.40122533	n/a	1488	71	2750	2388.40122533	stim	stop-signal	94	297446	0.0-7.43-1.43	beast_fmri_test	349	294719,/,295399,/,296078,/,296758,/,297437,/,298116,/,298797,/,299475,/	t,t,t,t,t,t,t,t	<img class = center src='/static/experiments/beast_fmri_test/images/D.png'></img>	89,71	2750.0	test	<img class = center src='/static/experiments/beast_fmri_test/images/redD.png'></img>	go	2200.0	2.0	43.0	go	non-target	D	89,Middle Finger	71,Index Finger	700.0	550.0	2050.0	2200.0	1.0	550.0	1.0	n/a	ITI
208854	500.0	n/a	-1	-1	500	0.0	fixation	poldrack-single-stim	95	300346	0.0-7.44-0.44	beast_fmri_test	349	300157,/	t	<div class = centerbox2><div class = fixation>+</div></div>	none	500.0	test	n/a	n/a	n/a	n/a	n/a	n/a	n/a	n/a	n/a	n/a	n/a	n/a	n/a	n/a	n/a	n/a	n/a	n/a	fixation
208633.42761648947	550.0	n/a	-1	-1	2750	222.572383511	stim	stop-signal	96	303098	0.0-7.44-1.44	beast_fmri_test	349	300835,/,301516,/,302194,/,302874,/	t,t,t,t	<img class = center src='/static/experiments/beast_fmri_test/images/B.png'></img>	89,71	2750.0	test	<img class = center src='/static/experiments/beast_fmri_test/images/redB.png'></img>	stop	2200.0	2.0	44.0	stop	non-target	B	89,Middle Finger	71,Index Finger	700.0	550.0	2050.0	2200.0	0.0	550.0	n/a	1.0	go_stim
210833.42761648947	2200.0	n/a	-1	-1	2750	222.572383511	stim	stop-signal	96	303098	0.0-7.44-1.44	beast_fmri_test	349	300835,/,301516,/,302194,/,302874,/	t,t,t,t	<img class = center src='/static/experiments/beast_fmri_test/images/B.png'></img>	89,71	2750.0	test	<img class = center src='/static/experiments/beast_fmri_test/images/redB.png'></img>	stop	2200.0	2.0	44.0	stop	non-target	B	89,Middle Finger	71,Index Finger	700.0	550.0	2050.0	2200.0	0.0	550.0	n/a	1.0	stop_stim
211383.42761648947	222.572383511	n/a	-1	-1	2750	222.572383511	stim	stop-signal	96	303098	0.0-7.44-1.44	beast_fmri_test	349	300835,/,301516,/,302194,/,302874,/	t,t,t,t	<img class = center src='/static/experiments/beast_fmri_test/images/B.png'></img>	89,71	2750.0	test	<img class = center src='/static/experiments/beast_fmri_test/images/redB.png'></img>	stop	2200.0	2.0	44.0	stop	non-target	B	89,Middle Finger	71,Index Finger	700.0	550.0	2050.0	2200.0	0.0	550.0	n/a	1.0	ITI
212342	500.0	n/a	-1	-1	500	0.0	fixation	poldrack-single-stim	97	303834	0.0-7.45-0.45	beast_fmri_test	349	303553,/	t	<div class = centerbox2><div class = fixation>+</div></div>	none	500.0	test	n/a	n/a	n/a	n/a	n/a	n/a	n/a	n/a	n/a	n/a	n/a	n/a	n/a	n/a	n/a	n/a	n/a	n/a	fixation
210754.30483977479	2750.0	n/a	1548	71	2750	1589.69516023	stim	stop-signal	98	306586	0.0-7.45-1.45	beast_fmri_test	349	304234,/,304913,/,305594,/,306273,/,306952,/,307632,/	t,t,t,t,t,t	<img class = center src='/static/experiments/beast_fmri_test/images/T.png'></img>	89,71	2750.0	test	<img class = center src='/static/experiments/beast_fmri_test/images/redT.png'></img>	go	2150.0	2.0	45.0	go	non-target	T	89,Middle Finger	71,Index Finger	700.0	600.0	2050.0	2150.0	1.0	600.0	1.0	n/a	go_stim
213504.30483977479	1589.69516023	n/a	1548	71	2750	1589.69516023	stim	stop-signal	98	306586	0.0-7.45-1.45	beast_fmri_test	349	304234,/,304913,/,305594,/,306273,/,306952,/,307632,/	t,t,t,t,t,t	<img class = center src='/static/experiments/beast_fmri_test/images/T.png'></img>	89,71	2750.0	test	<img class = center src='/static/experiments/beast_fmri_test/images/redT.png'></img>	go	2150.0	2.0	45.0	go	non-target	T	89,Middle Finger	71,Index Finger	700.0	600.0	2050.0	2150.0	1.0	600.0	1.0	n/a	ITI
217198	500.0	n/a	-1	-1	500	0.0	fixation	poldrack-single-stim	99	308690	0.0-7.46-0.46	beast_fmri_test	349	308312,/	t	<div class = centerbox2><div class = fixation>+</div></div>	none	500.0	test	n/a	n/a	n/a	n/a	n/a	n/a	n/a	n/a	n/a	n/a	n/a	n/a	n/a	n/a	n/a	n/a	n/a	n/a	fixation
217000.64149618137	700.0	n/a	-1	-1	2750	200.358503819	stim	stop-signal	100	311443	0.0-7.46-1.46	beast_fmri_test	349	308992,/,309672,/,310351,/,311031,/	t,t,t,t	<img class = center src='/static/experiments/beast_fmri_test/images/B.png'></img>	89,71	2750.0	test	<img class = center src='/static/experiments/beast_fmri_test/images/redB.png'></img>	stop	2050.0	2.0	46.0	stop	target	B	89,Middle Finger	71,Index Finger	700.0	600.0	2050.0	2150.0	0.0	700.0	n/a	1.0	go_stim
219050.64149618137	2050.0	n/a	-1	-1	2750	200.358503819	stim	stop-signal	100	311443	0.0-7.46-1.46	beast_fmri_test	349	308992,/,309672,/,310351,/,311031,/	t,t,t,t	<img class = center src='/static/experiments/beast_fmri_test/images/B.png'></img>	89,71	2750.0	test	<img class = center src='/static/experiments/beast_fmri_test/images/redB.png'></img>	stop	2050.0	2.0	46.0	stop	target	B	89,Middle Finger	71,Index Finger	700.0	600.0	2050.0	2150.0	0.0	700.0	n/a	1.0	stop_stim
219750.64149618137	200.358503819	n/a	-1	-1	2750	200.358503819	stim	stop-signal	100	311443	0.0-7.46-1.46	beast_fmri_test	349	308992,/,309672,/,310351,/,311031,/	t,t,t,t	<img class = center src='/static/experiments/beast_fmri_test/images/B.png'></img>	89,71	2750.0	test	<img class = center src='/static/experiments/beast_fmri_test/images/redB.png'></img>	stop	2050.0	2.0	46.0	stop	target	B	89,Middle Finger	71,Index Finger	700.0	600.0	2050.0	2150.0	0.0	700.0	n/a	1.0	ITI
235160	15000.0	n/a	-1	-1	15000	0.0	practice-no-stop-feedback	poldrack-single-stim	101	326652	0.0-8.0	beast_fmri_test	349	311711,/,312390,/,313071,/,313750,/,314430,/,315110,/,315789,/,316469,/,317149,/,317828,/,318507,/,319188,/,319866,/,320547,/,321225,/,321906,/,322585,/,323266,/,323945,/,324624,/,325305,/,325984,/	t,t,t,t,t,t,t,t,t,t,t,t,t,t,t,t,t,t,t,t,t,t	"<div class = ""centerbox""><p class = ""block-text"">Your delay is 3 trials.</p><p class = block-text>Please wait for the scanner to start the block</p></div>"	77	15000.0	n/a	n/a	n/a	n/a	n/a	n/a	n/a	n/a	n/a	n/a	n/a	n/a	n/a	n/a	n/a	n/a	n/a	n/a	n/a	practice-no-stop-feedback
235661	500.0	n/a	-1	-1	500	0.0	fixation	poldrack-single-stim	102	327153	0.0-9.0-0.0	beast_fmri_test	349	326664,/	t	<div class = centerbox2><div class = fixation>+</div></div>	none	500.0	test	n/a	n/a	n/a	n/a	n/a	n/a	n/a	n/a	n/a	n/a	n/a	n/a	n/a	n/a	n/a	n/a	n/a	n/a	fixation
234797.5145668647	2750.0	n/a	1893	71	2750	864.485433135	stim	stop-signal	103	329904	0.0-9.0-1.0	beast_fmri_test	349	327343,/,328024,/,328703,/,329383,/,330061,/,330742,/	t,t,t,t,t,t	<img class = center src='/static/experiments/beast_fmri_test/images/B.png'></img>	89,71	2750.0	test	<img class = center src='/static/experiments/beast_fmri_test/images/redB.png'></img>	go	-1.0	3.0	0.0	go	temp-non-target	B	89,Middle Finger	71,Index Finger	750.0	600.0	2050.0	2150.0	0.0	n/a	n/a	n/a	go_stim
237547.5145668647	864.485433135	n/a	1893	71	2750	864.485433135	stim	stop-signal	103	329904	0.0-9.0-1.0	beast_fmri_test	349	327343,/,328024,/,328703,/,329383,/,330061,/,330742,/	t,t,t,t,t,t	<img class = center src='/static/experiments/beast_fmri_test/images/B.png'></img>	89,71	2750.0	test	<img class = center src='/static/experiments/beast_fmri_test/images/redB.png'></img>	go	-1.0	3.0	0.0	go	temp-non-target	B	89,Middle Finger	71,Index Finger	750.0	600.0	2050.0	2150.0	0.0	n/a	n/a	n/a	ITI
239788	500.0	n/a	-1	-1	500	0.0	fixation	poldrack-single-stim	104	331280	0.0-9.1-0.1	beast_fmri_test	349	n/a	n/a	<div class = centerbox2><div class = fixation>+</div></div>	none	500.0	test	n/a	n/a	n/a	n/a	n/a	n/a	n/a	n/a	n/a	n/a	n/a	n/a	n/a	n/a	n/a	n/a	n/a	n/a	fixation
238729.71676482487	2750.0	n/a	1530	71	2750	1059.28323518	stim	stop-signal	105	334031	0.0-9.1-1.1	beast_fmri_test	349	331420,/,332102,/,332780,/,333461,/,334140,/,334820,/	t,t,t,t,t,t	<img class = center src='/static/experiments/beast_fmri_test/images/D.png'></img>	89,71	2750.0	test	<img class = center src='/static/experiments/beast_fmri_test/images/redD.png'></img>	go	-1.0	3.0	1.0	go	temp-non-target	D	89,Middle Finger	71,Index Finger	750.0	600.0	2050.0	2150.0	0.0	n/a	n/a	n/a	go_stim
241479.71676482487	1059.28323518	n/a	1530	71	2750	1059.28323518	stim	stop-signal	105	334031	0.0-9.1-1.1	beast_fmri_test	349	331420,/,332102,/,332780,/,333461,/,334140,/,334820,/	t,t,t,t,t,t	<img class = center src='/static/experiments/beast_fmri_test/images/D.png'></img>	89,71	2750.0	test	<img class = center src='/static/experiments/beast_fmri_test/images/redD.png'></img>	go	-1.0	3.0	1.0	go	temp-non-target	D	89,Middle Finger	71,Index Finger	750.0	600.0	2050.0	2150.0	0.0	n/a	n/a	n/a	ITI
244114	500.0	n/a	-1	-1	500	0.0	fixation	poldrack-single-stim	106	335606	0.0-9.2-0.2	beast_fmri_test	349	335500,/	t	<div class = centerbox2><div class = fixation>+</div></div>	none	500.0	test	n/a	n/a	n/a	n/a	n/a	n/a	n/a	n/a	n/a	n/a	n/a	n/a	n/a	n/a	n/a	n/a	n/a	n/a	fixation
239115.0	2750.0	n/a	2204	71	2750	5000.0	stim	stop-signal	107	338357	0.0-9.2-1.2	beast_fmri_test	349	336178,/,336859,/,337538,/,338218,/,338898,/,339578,/,340257,/,340937,/,341617,/,342297,/,342976,/	t,t,t,t,t,t,t,t,t,t,t	<img class = center src='/static/experiments/beast_fmri_test/images/T.png'></img>	89,71	2750.0	test	<img class = center src='/static/experiments/beast_fmri_test/images/redT.png'></img>	go	-1.0	3.0	2.0	go	temp-non-target	T	89,Middle Finger	71,Index Finger	750.0	600.0	2050.0	2150.0	0.0	n/a	n/a	n/a	go_stim
241865.0	5000.0	n/a	2204	71	2750	5000.0	stim	stop-signal	107	338357	0.0-9.2-1.2	beast_fmri_test	349	336178,/,336859,/,337538,/,338218,/,338898,/,339578,/,340257,/,340937,/,341617,/,342297,/,342976,/	t,t,t,t,t,t,t,t,t,t,t	<img class = center src='/static/experiments/beast_fmri_test/images/T.png'></img>	89,71	2750.0	test	<img class = center src='/static/experiments/beast_fmri_test/images/redT.png'></img>	go	-1.0	3.0	2.0	go	temp-non-target	T	89,Middle Finger	71,Index Finger	750.0	600.0	2050.0	2150.0	0.0	n/a	n/a	n/a	ITI
252376	500.0	n/a	-1	-1	500	0.0	fixation	poldrack-single-stim	108	343868	0.0-9.3-0.3	beast_fmri_test	349	343657,/	t	<div class = centerbox2><div class = fixation>+</div></div>	none	500.0	test	n/a	n/a	n/a	n/a	n/a	n/a	n/a	n/a	n/a	n/a	n/a	n/a	n/a	n/a	n/a	n/a	n/a	n/a	fixation
252204.45244356111	2750.0	n/a	1192	71	2750	174.547556439	stim	stop-signal	109	346621	0.0-9.3-1.3	beast_fmri_test	349	344336,/,345016,/,345696,/,346375,/	t,t,t,t	<img class = center src='/static/experiments/beast_fmri_test/images/T.png'></img>	89,71	2750.0	test	<img class = center src='/static/experiments/beast_fmri_test/images/redT.png'></img>	go	2150.0	3.0	3.0	go	non-target	T	89,Middle Finger	71,Index Finger	750.0	600.0	2050.0	2150.0	1.0	600.0	1.0	n/a	go_stim
254954.45244356111	174.547556439	n/a	1192	71	2750	174.547556439	stim	stop-signal	109	346621	0.0-9.3-1.3	beast_fmri_test	349	344336,/,345016,/,345696,/,346375,/	t,t,t,t	<img class = center src='/static/experiments/beast_fmri_test/images/T.png'></img>	89,71	2750.0	test	<img class = center src='/static/experiments/beast_fmri_test/images/redT.png'></img>	go	2150.0	3.0	3.0	go	non-target	T	89,Middle Finger	71,Index Finger	750.0	600.0	2050.0	2150.0	1.0	600.0	1.0	n/a	ITI
255818	500.0	n/a	-1	-1	500	0.0	fixation	poldrack-single-stim	110	347310	0.0-9.4-0.4	beast_fmri_test	349	347055,/	t	<div class = centerbox2><div class = fixation>+</div></div>	none	500.0	test	n/a	n/a	n/a	n/a	n/a	n/a	n/a	n/a	n/a	n/a	n/a	n/a	n/a	n/a	n/a	n/a	n/a	n/a	fixation
255716.11193881353	2750.0	n/a	1336	89	2750	102.888061186	stim	stop-signal	111	350061	0.0-9.4-1.4	beast_fmri_test	349	347734,/,348414,/,349092,/,349773,/	t,t,t,t	<img class = center src='/static/experiments/beast_fmri_test/images/T.png'></img>	89,71	2750.0	test	<img class = center src='/static/experiments/beast_fmri_test/images/redT.png'></img>	go	2150.0	3.0	4.0	go	non-target	T	89,Middle Finger	71,Index Finger	750.0	600.0	2050.0	2150.0	0.0	600.0	0.0	n/a	go_stim
258466.11193881353	102.888061186	n/a	1336	89	2750	102.888061186	stim	stop-signal	111	350061	0.0-9.4-1.4	beast_fmri_test	349	347734,/,348414,/,349092,/,349773,/	t,t,t,t	<img class = center src='/static/experiments/beast_fmri_test/images/T.png'></img>	89,71	2750.0	test	<img class = center src='/static/experiments/beast_fmri_test/images/redT.png'></img>	go	2150.0	3.0	4.0	go	non-target	T	89,Middle Finger	71,Index Finger	750.0	600.0	2050.0	2150.0	0.0	600.0	0.0	n/a	ITI
259184	500.0	n/a	-1	-1	500	0.0	fixation	poldrack-single-stim	112	350676	0.0-9.5-0.5	beast_fmri_test	349	350452,/	t	<div class = centerbox2><div class = fixation>+</div></div>	none	500.0	test	n/a	n/a	n/a	n/a	n/a	n/a	n/a	n/a	n/a	n/a	n/a	n/a	n/a	n/a	n/a	n/a	n/a	n/a	fixation
257762.10444761574	2750.0	n/a	2570	71	2750	1423.89555238	stim	stop-signal	113	353428	0.0-9.5-1.5	beast_fmri_test	349	351133,/,351811,/,352492,/,353171,/,353851,/,354531,/	t,t,t,t,t,t	<img class = center src='/static/experiments/beast_fmri_test/images/P.png'></img>	89,71	2750.0	test	<img class = center src='/static/experiments/beast_fmri_test/images/redP.png'></img>	go	2150.0	3.0	5.0	go	non-target	P	89,Middle Finger	71,Index Finger	750.0	600.0	2050.0	2150.0	1.0	600.0	1.0	n/a	go_stim
260512.10444761574	1423.89555238	n/a	2570	71	2750	1423.89555238	stim	stop-signal	113	353428	0.0-9.5-1.5	beast_fmri_test	349	351133,/,351811,/,352492,/,353171,/,353851,/,354531,/	t,t,t,t,t,t	<img class = center src='/static/experiments/beast_fmri_test/images/P.png'></img>	89,71	2750.0	test	<img class = center src='/static/experiments/beast_fmri_test/images/redP.png'></img>	go	2150.0	3.0	5.0	go	non-target	P	89,Middle Finger	71,Index Finger	750.0	600.0	2050.0	2150.0	1.0	600.0	1.0	n/a	ITI
263876	500.0	n/a	-1	-1	500	0.0	fixation	poldrack-single-stim	114	355368	0.0-9.6-0.6	beast_fmri_test	349	355211,/	t	<div class = centerbox2><div class = fixation>+</div></div>	none	500.0	test	n/a	n/a	n/a	n/a	n/a	n/a	n/a	n/a	n/a	n/a	n/a	n/a	n/a	n/a	n/a	n/a	n/a	n/a	fixation
261351.28336993768	2750.0	n/a	-1	-1	2750	2526.71663006	stim	stop-signal	115	358120	0.0-9.6-1.6	beast_fmri_test	349	355889,/,356570,/,357250,/,357929,/,358609,/,359288,/,359968,/	t,t,t,t,t,t,t	<img class = center src='/static/experiments/beast_fmri_test/images/T.png'></img>	89,71	2750.0	test	<img class = center src='/static/experiments/beast_fmri_test/images/redT.png'></img>	go	2000.0	3.0	6.0	go	target	T	89,Middle Finger	71,Index Finger	750.0	600.0	2000.0	2150.0	0.0	750.0	0.0	n/a	go_stim
264101.28336993768	2526.71663006	n/a	-1	-1	2750	2526.71663006	stim	stop-signal	115	358120	0.0-9.6-1.6	beast_fmri_test	349	355889,/,356570,/,357250,/,357929,/,358609,/,359288,/,359968,/	t,t,t,t,t,t,t	<img class = center src='/static/experiments/beast_fmri_test/images/T.png'></img>	89,71	2750.0	test	<img class = center src='/static/experiments/beast_fmri_test/images/redT.png'></img>	go	2000.0	3.0	6.0	go	target	T	89,Middle Finger	71,Index Finger	750.0	600.0	2000.0	2150.0	0.0	750.0	0.0	n/a	ITI
269667	500.0	n/a	-1	-1	500	0.0	fixation	poldrack-single-stim	116	361159	0.0-9.7-0.7	beast_fmri_test	349	360658,/	t	<div class = centerbox2><div class = fixation>+</div></div>	none	500.0	test	n/a	n/a	n/a	n/a	n/a	n/a	n/a	n/a	n/a	n/a	n/a	n/a	n/a	n/a	n/a	n/a	n/a	n/a	fixation
269504.78356598114	750.0	n/a	1345	71	2750	164.216434019	stim	stop-signal	117	363911	0.0-9.7-1.7	beast_fmri_test	349	361328,/,362006,/,362687,/,363366,/,364046,/	t,t,t,t,t	<img class = center src='/static/experiments/beast_fmri_test/images/T.png'></img>	89,71	2750.0	test	<img class = center src='/static/experiments/beast_fmri_test/images/redT.png'></img>	stop	2000.0	3.0	7.0	stop	target	T	89,Middle Finger	71,Index Finger	750.0	600.0	2000.0	2150.0	0.0	750.0	n/a	0.0	go_stim
271504.78356598114	2000.0	n/a	1345	71	2750	164.216434019	stim	stop-signal	117	363911	0.0-9.7-1.7	beast_fmri_test	349	361328,/,362006,/,362687,/,363366,/,364046,/	t,t,t,t,t	<img class = center src='/static/experiments/beast_fmri_test/images/T.png'></img>	89,71	2750.0	test	<img class = center src='/static/experiments/beast_fmri_test/images/redT.png'></img>	stop	2000.0	3.0	7.0	stop	target	T	89,Middle Finger	71,Index Finger	750.0	600.0	2000.0	2150.0	0.0	750.0	n/a	0.0	stop_stim
272254.78356598114	164.216434019	n/a	1345	71	2750	164.216434019	stim	stop-signal	117	363911	0.0-9.7-1.7	beast_fmri_test	349	361328,/,362006,/,362687,/,363366,/,364046,/	t,t,t,t,t	<img class = center src='/static/experiments/beast_fmri_test/images/T.png'></img>	89,71	2750.0	test	<img class = center src='/static/experiments/beast_fmri_test/images/redT.png'></img>	stop	2000.0	3.0	7.0	stop	target	T	89,Middle Finger	71,Index Finger	750.0	600.0	2000.0	2150.0	0.0	750.0	n/a	0.0	ITI
273101	500.0	n/a	-1	-1	500	0.0	fixation	poldrack-single-stim	118	364593	0.0-9.8-0.8	beast_fmri_test	349	n/a	n/a	<div class = centerbox2><div class = fixation>+</div></div>	none	500.0	test	n/a	n/a	n/a	n/a	n/a	n/a	n/a	n/a	n/a	n/a	n/a	n/a	n/a	n/a	n/a	n/a	n/a	n/a	fixation
272401.84900910978	2750.0	n/a	1183	89	2750	701.15099089	stim	stop-signal	119	367345	0.0-9.8-1.8	beast_fmri_test	349	364727,/,365406,/,366086,/,366765,/,367445,/	t,t,t,t,t	<img class = center src='/static/experiments/beast_fmri_test/images/P.png'></img>	89,71	2750.0	test	<img class = center src='/static/experiments/beast_fmri_test/images/redP.png'></img>	go	2050.0	3.0	8.0	go	target	P	89,Middle Finger	71,Index Finger	700.0	600.0	2050.0	2150.0	1.0	700.0	1.0	n/a	go_stim
275151.84900910978	701.15099089	n/a	1183	89	2750	701.15099089	stim	stop-signal	119	367345	0.0-9.8-1.8	beast_fmri_test	349	364727,/,365406,/,366086,/,366765,/,367445,/	t,t,t,t,t	<img class = center src='/static/experiments/beast_fmri_test/images/P.png'></img>	89,71	2750.0	test	<img class = center src='/static/experiments/beast_fmri_test/images/redP.png'></img>	go	2050.0	3.0	8.0	go	target	P	89,Middle Finger	71,Index Finger	700.0	600.0	2050.0	2150.0	1.0	700.0	1.0	n/a	ITI
277071	500.0	n/a	-1	-1	500	0.0	fixation	poldrack-single-stim	120	368563	0.0-9.9-0.9	beast_fmri_test	349	368123,/	t	<div class = centerbox2><div class = fixation>+</div></div>	none	500.0	test	n/a	n/a	n/a	n/a	n/a	n/a	n/a	n/a	n/a	n/a	n/a	n/a	n/a	n/a	n/a	n/a	n/a	n/a	fixation
276880.30898046872	2750.0	n/a	2054	71	2750	192.691019531	stim	stop-signal	121	371315	0.0-9.9-1.9	beast_fmri_test	349	368805,/,369483,/,370163,/,370843,/	t,t,t,t	<img class = center src='/static/experiments/beast_fmri_test/images/P.png'></img>	89,71	2750.0	test	<img class = center src='/static/experiments/beast_fmri_test/images/redP.png'></img>	go	2150.0	3.0	9.0	go	non-target	P	89,Middle Finger	71,Index Finger	700.0	600.0	2050.0	2150.0	1.0	600.0	1.0	n/a	go_stim
279630.30898046872	192.691019531	n/a	2054	71	2750	192.691019531	stim	stop-signal	121	371315	0.0-9.9-1.9	beast_fmri_test	349	368805,/,369483,/,370163,/,370843,/	t,t,t,t	<img class = center src='/static/experiments/beast_fmri_test/images/P.png'></img>	89,71	2750.0	test	<img class = center src='/static/experiments/beast_fmri_test/images/redP.png'></img>	go	2150.0	3.0	9.0	go	non-target	P	89,Middle Finger	71,Index Finger	700.0	600.0	2050.0	2150.0	1.0	600.0	1.0	n/a	ITI
280535	500.0	n/a	-1	-1	500	0.0	fixation	poldrack-single-stim	122	372027	0.0-9.10-0.10	beast_fmri_test	349	371525,/	t	<div class = centerbox2><div class = fixation>+</div></div>	none	500.0	test	n/a	n/a	n/a	n/a	n/a	n/a	n/a	n/a	n/a	n/a	n/a	n/a	n/a	n/a	n/a	n/a	n/a	n/a	fixation
280294.9240279519	2750.0	n/a	2260	89	2750	242.075972048	stim	stop-signal	123	374779	0.0-9.10-1.10	beast_fmri_test	349	372202,/,372881,/,373562,/,374242,/,374921,/	t,t,t,t,t	<img class = center src='/static/experiments/beast_fmri_test/images/T.png'></img>	89,71	2750.0	test	<img class = center src='/static/experiments/beast_fmri_test/images/redT.png'></img>	go	2050.0	3.0	10.0	go	target	T	89,Middle Finger	71,Index Finger	700.0	600.0	2050.0	2150.0	1.0	700.0	1.0	n/a	go_stim
283044.9240279519	242.075972048	n/a	2260	89	2750	242.075972048	stim	stop-signal	123	374779	0.0-9.10-1.10	beast_fmri_test	349	372202,/,372881,/,373562,/,374242,/,374921,/	t,t,t,t,t	<img class = center src='/static/experiments/beast_fmri_test/images/T.png'></img>	89,71	2750.0	test	<img class = center src='/static/experiments/beast_fmri_test/images/redT.png'></img>	go	2050.0	3.0	10.0	go	target	T	89,Middle Finger	71,Index Finger	700.0	600.0	2050.0	2150.0	1.0	700.0	1.0	n/a	ITI
284048	500.0	n/a	-1	-1	500	0.0	fixation	poldrack-single-stim	124	375540	0.0-9.11-0.11	beast_fmri_test	349	n/a	n/a	<div class = centerbox2><div class = fixation>+</div></div>	none	500.0	test	n/a	n/a	n/a	n/a	n/a	n/a	n/a	n/a	n/a	n/a	n/a	n/a	n/a	n/a	n/a	n/a	n/a	n/a	fixation
283463.3866714742	2750.0	n/a	1215	71	2750	586.613328526	stim	stop-signal	125	378292	0.0-9.11-1.11	beast_fmri_test	349	375601,/,376281,/,376961,/,377641,/,378320,/	t,t,t,t,t	<img class = center src='/static/experiments/beast_fmri_test/images/D.png'></img>	89,71	2750.0	test	<img class = center src='/static/experiments/beast_fmri_test/images/redD.png'></img>	go	2150.0	3.0	11.0	go	non-target	D	89,Middle Finger	71,Index Finger	700.0	600.0	2050.0	2150.0	1.0	600.0	1.0	n/a	go_stim
286213.3866714742	586.613328526	n/a	1215	71	2750	586.613328526	stim	stop-signal	125	378292	0.0-9.11-1.11	beast_fmri_test	349	375601,/,376281,/,376961,/,377641,/,378320,/	t,t,t,t,t	<img class = center src='/static/experiments/beast_fmri_test/images/D.png'></img>	89,71	2750.0	test	<img class = center src='/static/experiments/beast_fmri_test/images/redD.png'></img>	go	2150.0	3.0	11.0	go	non-target	D	89,Middle Finger	71,Index Finger	700.0	600.0	2050.0	2150.0	1.0	600.0	1.0	n/a	ITI
287903	500.0	n/a	-1	-1	500	0.0	fixation	poldrack-single-stim	126	379395	0.0-9.12-0.12	beast_fmri_test	349	379000,/	t	<div class = centerbox2><div class = fixation>+</div></div>	none	500.0	test	n/a	n/a	n/a	n/a	n/a	n/a	n/a	n/a	n/a	n/a	n/a	n/a	n/a	n/a	n/a	n/a	n/a	n/a	fixation
287884.99818269868	600.0	n/a	1106	71	2750	19.0018173013	stim	stop-signal	127	382146	0.0-9.12-1.12	beast_fmri_test	349	379679,/,380359,/,381038,/,381719,/	t,t,t,t	<img class = center src='/static/experiments/beast_fmri_test/images/V.png'></img>	89,71	2750.0	test	<img class = center src='/static/experiments/beast_fmri_test/images/redV.png'></img>	stop	2150.0	3.0	12.0	stop	non-target	V	89,Middle Finger	71,Index Finger	700.0	600.0	2050.0	2150.0	0.0	600.0	n/a	0.0	go_stim
290034.99818269868	2150.0	n/a	1106	71	2750	19.0018173013	stim	stop-signal	127	382146	0.0-9.12-1.12	beast_fmri_test	349	379679,/,380359,/,381038,/,381719,/	t,t,t,t	<img class = center src='/static/experiments/beast_fmri_test/images/V.png'></img>	89,71	2750.0	test	<img class = center src='/static/experiments/beast_fmri_test/images/redV.png'></img>	stop	2150.0	3.0	12.0	stop	non-target	V	89,Middle Finger	71,Index Finger	700.0	600.0	2050.0	2150.0	0.0	600.0	n/a	0.0	stop_stim
290634.99818269868	19.0018173013	n/a	1106	71	2750	19.0018173013	stim	stop-signal	127	382146	0.0-9.12-1.12	beast_fmri_test	349	379679,/,380359,/,381038,/,381719,/	t,t,t,t	<img class = center src='/static/experiments/beast_fmri_test/images/V.png'></img>	89,71	2750.0	test	<img class = center src='/static/experiments/beast_fmri_test/images/redV.png'></img>	stop	2150.0	3.0	12.0	stop	non-target	V	89,Middle Finger	71,Index Finger	700.0	600.0	2050.0	2150.0	0.0	600.0	n/a	0.0	ITI
291189	500.0	n/a	-1	-1	500	0.0	fixation	poldrack-single-stim	128	382681	0.0-9.13-0.13	beast_fmri_test	349	382397,/	t	<div class = centerbox2><div class = fixation>+</div></div>	none	500.0	test	n/a	n/a	n/a	n/a	n/a	n/a	n/a	n/a	n/a	n/a	n/a	n/a	n/a	n/a	n/a	n/a	n/a	n/a	fixation
290904.6386064578	2750.0	n/a	2453	89	2750	286.361393542	stim	stop-signal	129	385433	0.0-9.13-1.13	beast_fmri_test	349	383078,/,383757,/,384438,/,385118,/	t,t,t,t	<img class = center src='/static/experiments/beast_fmri_test/images/D.png'></img>	89,71	2750.0	test	<img class = center src='/static/experiments/beast_fmri_test/images/redD.png'></img>	go	2200.0	3.0	13.0	go	non-target	D	89,Middle Finger	71,Index Finger	700.0	550.0	2050.0	2200.0	0.0	550.0	0.0	n/a	go_stim
293654.6386064578	286.361393542	n/a	2453	89	2750	286.361393542	stim	stop-signal	129	385433	0.0-9.13-1.13	beast_fmri_test	349	383078,/,383757,/,384438,/,385118,/	t,t,t,t	<img class = center src='/static/experiments/beast_fmri_test/images/D.png'></img>	89,71	2750.0	test	<img class = center src='/static/experiments/beast_fmri_test/images/redD.png'></img>	go	2200.0	3.0	13.0	go	non-target	D	89,Middle Finger	71,Index Finger	700.0	550.0	2050.0	2200.0	0.0	550.0	0.0	n/a	ITI
294744	500.0	n/a	-1	-1	500	0.0	fixation	poldrack-single-stim	130	386236	0.0-9.14-0.14	beast_fmri_test	349	385796,/	t	<div class = centerbox2><div class = fixation>+</div></div>	none	500.0	test	n/a	n/a	n/a	n/a	n/a	n/a	n/a	n/a	n/a	n/a	n/a	n/a	n/a	n/a	n/a	n/a	n/a	n/a	fixation
293873.9231048029	550.0	n/a	1025	71	2750	873.076895197	stim	stop-signal	131	388989	0.0-9.14-1.14	beast_fmri_test	349	386477,/,387156,/,387836,/,388514,/,389195,/	t,t,t,t,t	<img class = center src='/static/experiments/beast_fmri_test/images/P.png'></img>	89,71	2750.0	test	<img class = center src='/static/experiments/beast_fmri_test/images/redP.png'></img>	stop	2200.0	3.0	14.0	stop	non-target	P	89,Middle Finger	71,Index Finger	700.0	550.0	2050.0	2200.0	0.0	550.0	n/a	0.0	go_stim
296073.9231048029	2200.0	n/a	1025	71	2750	873.076895197	stim	stop-signal	131	388989	0.0-9.14-1.14	beast_fmri_test	349	386477,/,387156,/,387836,/,388514,/,389195,/	t,t,t,t,t	<img class = center src='/static/experiments/beast_fmri_test/images/P.png'></img>	89,71	2750.0	test	<img class = center src='/static/experiments/beast_fmri_test/images/redP.png'></img>	stop	2200.0	3.0	14.0	stop	non-target	P	89,Middle Finger	71,Index Finger	700.0	550.0	2050.0	2200.0	0.0	550.0	n/a	0.0	stop_stim
296623.9231048029	873.076895197	n/a	1025	71	2750	873.076895197	stim	stop-signal	131	388989	0.0-9.14-1.14	beast_fmri_test	349	386477,/,387156,/,387836,/,388514,/,389195,/	t,t,t,t,t	<img class = center src='/static/experiments/beast_fmri_test/images/P.png'></img>	89,71	2750.0	test	<img class = center src='/static/experiments/beast_fmri_test/images/redP.png'></img>	stop	2200.0	3.0	14.0	stop	non-target	P	89,Middle Finger	71,Index Finger	700.0	550.0	2050.0	2200.0	0.0	550.0	n/a	0.0	ITI
298890	500.0	n/a	-1	-1	500	0.0	fixation	poldrack-single-stim	132	390382	0.0-9.15-0.15	beast_fmri_test	349	389881,/	t	<div class = centerbox2><div class = fixation>+</div></div>	none	500.0	test	n/a	n/a	n/a	n/a	n/a	n/a	n/a	n/a	n/a	n/a	n/a	n/a	n/a	n/a	n/a	n/a	n/a	n/a	fixation
298198.69698073296	500.0	n/a	1782	71	2750	693.303019267	stim	stop-signal	133	393134	0.0-9.15-1.15	beast_fmri_test	349	390555,/,391233,/,391914,/,392594,/,393274,/	t,t,t,t,t	<img class = center src='/static/experiments/beast_fmri_test/images/D.png'></img>	89,71	2750.0	test	<img class = center src='/static/experiments/beast_fmri_test/images/redD.png'></img>	stop	2250.0	3.0	15.0	stop	non-target	D	89,Middle Finger	71,Index Finger	700.0	500.0	2050.0	2250.0	0.0	500.0	n/a	0.0	go_stim
300448.69698073296	2250.0	n/a	1782	71	2750	693.303019267	stim	stop-signal	133	393134	0.0-9.15-1.15	beast_fmri_test	349	390555,/,391233,/,391914,/,392594,/,393274,/	t,t,t,t,t	<img class = center src='/static/experiments/beast_fmri_test/images/D.png'></img>	89,71	2750.0	test	<img class = center src='/static/experiments/beast_fmri_test/images/redD.png'></img>	stop	2250.0	3.0	15.0	stop	non-target	D	89,Middle Finger	71,Index Finger	700.0	500.0	2050.0	2250.0	0.0	500.0	n/a	0.0	stop_stim
300948.69698073296	693.303019267	n/a	1782	71	2750	693.303019267	stim	stop-signal	133	393134	0.0-9.15-1.15	beast_fmri_test	349	390555,/,391233,/,391914,/,392594,/,393274,/	t,t,t,t,t	<img class = center src='/static/experiments/beast_fmri_test/images/D.png'></img>	89,71	2750.0	test	<img class = center src='/static/experiments/beast_fmri_test/images/redD.png'></img>	stop	2250.0	3.0	15.0	stop	non-target	D	89,Middle Finger	71,Index Finger	700.0	500.0	2050.0	2250.0	0.0	500.0	n/a	0.0	ITI
302854	500.0	n/a	-1	-1	500	0.0	fixation	poldrack-single-stim	134	394346	0.0-9.16-0.16	beast_fmri_test	349	393953,/	t	<div class = centerbox2><div class = fixation>+</div></div>	none	500.0	test	n/a	n/a	n/a	n/a	n/a	n/a	n/a	n/a	n/a	n/a	n/a	n/a	n/a	n/a	n/a	n/a	n/a	n/a	fixation
302164.46602992603	700.0	n/a	2271	71	2750	691.533970074	stim	stop-signal	135	397098	0.0-9.16-1.16	beast_fmri_test	349	394633,/,395312,/,395991,/,396672,/,397351,/	t,t,t,t,t	<img class = center src='/static/experiments/beast_fmri_test/images/D.png'></img>	89,71	2750.0	test	<img class = center src='/static/experiments/beast_fmri_test/images/redD.png'></img>	stop	2050.0	3.0	16.0	stop	target	D	89,Middle Finger	71,Index Finger	700.0	450.0	2050.0	2250.0	0.0	700.0	n/a	0.0	go_stim
304214.46602992603	2050.0	n/a	2271	71	2750	691.533970074	stim	stop-signal	135	397098	0.0-9.16-1.16	beast_fmri_test	349	394633,/,395312,/,395991,/,396672,/,397351,/	t,t,t,t,t	<img class = center src='/static/experiments/beast_fmri_test/images/D.png'></img>	89,71	2750.0	test	<img class = center src='/static/experiments/beast_fmri_test/images/redD.png'></img>	stop	2050.0	3.0	16.0	stop	target	D	89,Middle Finger	71,Index Finger	700.0	450.0	2050.0	2250.0	0.0	700.0	n/a	0.0	stop_stim
304914.46602992603	691.533970074	n/a	2271	71	2750	691.533970074	stim	stop-signal	135	397098	0.0-9.16-1.16	beast_fmri_test	349	394633,/,395312,/,395991,/,396672,/,397351,/	t,t,t,t,t	<img class = center src='/static/experiments/beast_fmri_test/images/D.png'></img>	89,71	2750.0	test	<img class = center src='/static/experiments/beast_fmri_test/images/redD.png'></img>	stop	2050.0	3.0	16.0	stop	target	D	89,Middle Finger	71,Index Finger	700.0	450.0	2050.0	2250.0	0.0	700.0	n/a	0.0	ITI
306818	500.0	n/a	-1	-1	500	0.0	fixation	poldrack-single-stim	136	398310	0.0-9.17-0.17	beast_fmri_test	349	398031,/	t	<div class = centerbox2><div class = fixation>+</div></div>	none	500.0	test	n/a	n/a	n/a	n/a	n/a	n/a	n/a	n/a	n/a	n/a	n/a	n/a	n/a	n/a	n/a	n/a	n/a	n/a	fixation
306094.93847164128	450.0	n/a	2358	71	2750	726.061528359	stim	stop-signal	137	401063	0.0-9.17-1.17	beast_fmri_test	349	398710,/,399392,/,400070,/,400750,/,401429,/	t,t,t,t,t	<img class = center src='/static/experiments/beast_fmri_test/images/V.png'></img>	89,71	2750.0	test	<img class = center src='/static/experiments/beast_fmri_test/images/redV.png'></img>	stop	2300.0	3.0	17.0	stop	non-target	V	89,Middle Finger	71,Index Finger	650.0	450.0	2050.0	2300.0	0.0	450.0	n/a	0.0	go_stim
308394.93847164128	2300.0	n/a	2358	71	2750	726.061528359	stim	stop-signal	137	401063	0.0-9.17-1.17	beast_fmri_test	349	398710,/,399392,/,400070,/,400750,/,401429,/	t,t,t,t,t	<img class = center src='/static/experiments/beast_fmri_test/images/V.png'></img>	89,71	2750.0	test	<img class = center src='/static/experiments/beast_fmri_test/images/redV.png'></img>	stop	2300.0	3.0	17.0	stop	non-target	V	89,Middle Finger	71,Index Finger	650.0	450.0	2050.0	2300.0	0.0	450.0	n/a	0.0	stop_stim
308844.93847164128	726.061528359	n/a	2358	71	2750	726.061528359	stim	stop-signal	137	401063	0.0-9.17-1.17	beast_fmri_test	349	398710,/,399392,/,400070,/,400750,/,401429,/	t,t,t,t,t	<img class = center src='/static/experiments/beast_fmri_test/images/V.png'></img>	89,71	2750.0	test	<img class = center src='/static/experiments/beast_fmri_test/images/redV.png'></img>	stop	2300.0	3.0	17.0	stop	non-target	V	89,Middle Finger	71,Index Finger	650.0	450.0	2050.0	2300.0	0.0	450.0	n/a	0.0	ITI
310814	500.0	n/a	-1	-1	500	0.0	fixation	poldrack-single-stim	138	402306	0.0-9.18-0.18	beast_fmri_test	349	402110,/	t	<div class = centerbox2><div class = fixation>+</div></div>	none	500.0	test	n/a	n/a	n/a	n/a	n/a	n/a	n/a	n/a	n/a	n/a	n/a	n/a	n/a	n/a	n/a	n/a	n/a	n/a	fixation
310236.86248425138	2750.0	n/a	-1	-1	2750	579.137515749	stim	stop-signal	139	405058	0.0-9.18-1.18	beast_fmri_test	349	402789,/,403470,/,404148,/,404828,/,405508,/	t,t,t,t,t	<img class = center src='/static/experiments/beast_fmri_test/images/T.png'></img>	89,71	2750.0	test	<img class = center src='/static/experiments/beast_fmri_test/images/redT.png'></img>	go	2350.0	3.0	18.0	go	non-target	T	89,Middle Finger	71,Index Finger	650.0	400.0	2050.0	2350.0	0.0	400.0	0.0	n/a	go_stim
312986.86248425138	579.137515749	n/a	-1	-1	2750	579.137515749	stim	stop-signal	139	405058	0.0-9.18-1.18	beast_fmri_test	349	402789,/,403470,/,404148,/,404828,/,405508,/	t,t,t,t,t	<img class = center src='/static/experiments/beast_fmri_test/images/T.png'></img>	89,71	2750.0	test	<img class = center src='/static/experiments/beast_fmri_test/images/redT.png'></img>	go	2350.0	3.0	18.0	go	non-target	T	89,Middle Finger	71,Index Finger	650.0	400.0	2050.0	2350.0	0.0	400.0	0.0	n/a	ITI
314663	500.0	n/a	-1	-1	500	0.0	fixation	poldrack-single-stim	140	406155	0.0-9.19-0.19	beast_fmri_test	349	n/a	n/a	<div class = centerbox2><div class = fixation>+</div></div>	none	500.0	test	n/a	n/a	n/a	n/a	n/a	n/a	n/a	n/a	n/a	n/a	n/a	n/a	n/a	n/a	n/a	n/a	n/a	n/a	fixation
314300.87242575624	2750.0	n/a	1967	89	2750	363.127574244	stim	stop-signal	141	408906	0.0-9.19-1.19	beast_fmri_test	349	406186,/,406868,/,407548,/,408227,/,408905,/	t,t,t,t,t	<img class = center src='/static/experiments/beast_fmri_test/images/D.png'></img>	89,71	2750.0	test	<img class = center src='/static/experiments/beast_fmri_test/images/redD.png'></img>	go	2100.0	3.0	19.0	go	target	D	89,Middle Finger	71,Index Finger	650.0	400.0	2100.0	2350.0	1.0	650.0	1.0	n/a	go_stim
317050.87242575624	363.127574244	n/a	1967	89	2750	363.127574244	stim	stop-signal	141	408906	0.0-9.19-1.19	beast_fmri_test	349	406186,/,406868,/,407548,/,408227,/,408905,/	t,t,t,t,t	<img class = center src='/static/experiments/beast_fmri_test/images/D.png'></img>	89,71	2750.0	test	<img class = center src='/static/experiments/beast_fmri_test/images/redD.png'></img>	go	2100.0	3.0	19.0	go	target	D	89,Middle Finger	71,Index Finger	650.0	400.0	2100.0	2350.0	1.0	650.0	1.0	n/a	ITI
318298	500.0	n/a	-1	-1	500	0.0	fixation	poldrack-single-stim	142	409790	0.0-9.20-0.20	beast_fmri_test	349	409585,/	t	<div class = centerbox2><div class = fixation>+</div></div>	none	500.0	test	n/a	n/a	n/a	n/a	n/a	n/a	n/a	n/a	n/a	n/a	n/a	n/a	n/a	n/a	n/a	n/a	n/a	n/a	fixation
315483.9208594755	2750.0	n/a	892	71	2750	2817.07914052	stim	stop-signal	143	412543	0.0-9.20-1.20	beast_fmri_test	349	410265,/,410945,/,411624,/,412305,/,412983,/,413664,/,414343,/,415023,/	t,t,t,t,t,t,t,t	<img class = center src='/static/experiments/beast_fmri_test/images/B.png'></img>	89,71	2750.0	test	<img class = center src='/static/experiments/beast_fmri_test/images/redB.png'></img>	go	2350.0	3.0	20.0	go	non-target	B	89,Middle Finger	71,Index Finger	650.0	400.0	2100.0	2350.0	1.0	400.0	1.0	n/a	go_stim
318233.9208594755	2817.07914052	n/a	892	71	2750	2817.07914052	stim	stop-signal	143	412543	0.0-9.20-1.20	beast_fmri_test	349	410265,/,410945,/,411624,/,412305,/,412983,/,413664,/,414343,/,415023,/	t,t,t,t,t,t,t,t	<img class = center src='/static/experiments/beast_fmri_test/images/B.png'></img>	89,71	2750.0	test	<img class = center src='/static/experiments/beast_fmri_test/images/redB.png'></img>	go	2350.0	3.0	20.0	go	non-target	B	89,Middle Finger	71,Index Finger	650.0	400.0	2100.0	2350.0	1.0	400.0	1.0	n/a	ITI
324385	500.0	n/a	-1	-1	500	0.0	fixation	poldrack-single-stim	144	415877	0.0-9.21-0.21	beast_fmri_test	349	415703,/	t	<div class = centerbox2><div class = fixation>+</div></div>	none	500.0	test	n/a	n/a	n/a	n/a	n/a	n/a	n/a	n/a	n/a	n/a	n/a	n/a	n/a	n/a	n/a	n/a	n/a	n/a	fixation
323940.10536651436	400.0	n/a	-1	-1	2750	447.894633486	stim	stop-signal	145	418630	0.0-9.21-1.21	beast_fmri_test	349	416383,/,417062,/,417742,/,418422,/	t,t,t,t	<img class = center src='/static/experiments/beast_fmri_test/images/B.png'></img>	89,71	2750.0	test	<img class = center src='/static/experiments/beast_fmri_test/images/redB.png'></img>	stop	2350.0	3.0	21.0	stop	non-target	B	89,Middle Finger	71,Index Finger	650.0	400.0	2100.0	2350.0	0.0	400.0	n/a	1.0	go_stim
326290.10536651436	2350.0	n/a	-1	-1	2750	447.894633486	stim	stop-signal	145	418630	0.0-9.21-1.21	beast_fmri_test	349	416383,/,417062,/,417742,/,418422,/	t,t,t,t	<img class = center src='/static/experiments/beast_fmri_test/images/B.png'></img>	89,71	2750.0	test	<img class = center src='/static/experiments/beast_fmri_test/images/redB.png'></img>	stop	2350.0	3.0	21.0	stop	non-target	B	89,Middle Finger	71,Index Finger	650.0	400.0	2100.0	2350.0	0.0	400.0	n/a	1.0	stop_stim
326690.10536651436	447.894633486	n/a	-1	-1	2750	447.894633486	stim	stop-signal	145	418630	0.0-9.21-1.21	beast_fmri_test	349	416383,/,417062,/,417742,/,418422,/	t,t,t,t	<img class = center src='/static/experiments/beast_fmri_test/images/B.png'></img>	89,71	2750.0	test	<img class = center src='/static/experiments/beast_fmri_test/images/redB.png'></img>	stop	2350.0	3.0	21.0	stop	non-target	B	89,Middle Finger	71,Index Finger	650.0	400.0	2100.0	2350.0	0.0	400.0	n/a	1.0	ITI
328104	500.0	n/a	-1	-1	500	0.0	fixation	poldrack-single-stim	146	419596	0.0-9.22-0.22	beast_fmri_test	349	419100,/	t	<div class = centerbox2><div class = fixation>+</div></div>	none	500.0	test	n/a	n/a	n/a	n/a	n/a	n/a	n/a	n/a	n/a	n/a	n/a	n/a	n/a	n/a	n/a	n/a	n/a	n/a	fixation
327094.04981536063	2750.0	n/a	2339	71	2750	1011.95018464	stim	stop-signal	147	422348	0.0-9.22-1.22	beast_fmri_test	349	419781,/,420460,/,421141,/,421819,/,422500,/,423178,/	t,t,t,t,t,t	<img class = center src='/static/experiments/beast_fmri_test/images/V.png'></img>	89,71	2750.0	test	<img class = center src='/static/experiments/beast_fmri_test/images/redV.png'></img>	go	2300.0	3.0	22.0	go	non-target	V	89,Middle Finger	71,Index Finger	650.0	450.0	2100.0	2300.0	1.0	450.0	1.0	n/a	go_stim
329844.04981536063	1011.95018464	n/a	2339	71	2750	1011.95018464	stim	stop-signal	147	422348	0.0-9.22-1.22	beast_fmri_test	349	419781,/,420460,/,421141,/,421819,/,422500,/,423178,/	t,t,t,t,t,t	<img class = center src='/static/experiments/beast_fmri_test/images/V.png'></img>	89,71	2750.0	test	<img class = center src='/static/experiments/beast_fmri_test/images/redV.png'></img>	go	2300.0	3.0	22.0	go	non-target	V	89,Middle Finger	71,Index Finger	650.0	450.0	2100.0	2300.0	1.0	450.0	1.0	n/a	ITI
332388	500.0	n/a	-1	-1	500	0.0	fixation	poldrack-single-stim	148	423880	0.0-9.23-0.23	beast_fmri_test	349	423859,/	t	<div class = centerbox2><div class = fixation>+</div></div>	none	500.0	test	n/a	n/a	n/a	n/a	n/a	n/a	n/a	n/a	n/a	n/a	n/a	n/a	n/a	n/a	n/a	n/a	n/a	n/a	fixation
