onset	duration	text	rt	key_press	block_duration	timing_post_trial	trial_id	trial_type	trial_index	time_elapsed	internal_node_id	exp_id	subject_id	trigger_times	triggers	stimulus	possible_responses	stim_duration	exp_stage	SS_stimulus	SS_trial_type	SS_duration	load	trial_num	stop_trial_type	adaptive_trial_type	stim	yes_response_key	no_response_key	SSD_target	SSD_non_target	SSTarget	SSNonTarget	go_acc	SS_delay	adaptive_acc	stop_acc	new_trial_type
test	10880.0	n/a	-1	-1	10880	0.0	practice-no-stop-feedback	poldrack-single-stim	586	1657522	0.0-24.0	beast_fmri_test	349	1646645,/,1647324,/,1648003,/,1648682,/,1649361,/,1650041,/,1650722,/,1651400,/,1652081,/,1652760,/,1653440,/,1654119,/,1654799,/,1655480,/,1656159,/,1656839,/,1657517,/	t,t,t,t,t,t,t,t,t,t,t,t,t,t,t,t,t	"<div class = ""centerbox""><p class = ""block-text"">Your delay is 2 trials.</p><p class = block-text>Please wait for the scanner to start the block</p></div>"	77	10880.0	n/a	n/a	n/a	n/a	n/a	n/a	n/a	n/a	n/a	n/a	n/a	n/a	n/a	n/a	n/a	n/a	n/a	n/a	n/a	start_functional_block
11378	500.0	n/a	-1	-1	500	0.0	fixation	poldrack-single-stim	587	1658023	0.0-25.0-0.0	beast_fmri_test	349	n/a	n/a	<div class = centerbox2><div class = fixation>+</div></div>	none	500.0	test	n/a	n/a	n/a	n/a	n/a	n/a	n/a	n/a	n/a	n/a	n/a	n/a	n/a	n/a	n/a	n/a	n/a	n/a	fixation
9699.1181316205766	2750.0	n/a	1256	71	2750	1681.88186838	stim	stop-signal	588	1660776	0.0-25.0-1.0	beast_fmri_test	349	1658199,/,1658879,/,1659558,/,1660237,/,1660918,/,1661596,/,1662276,/	t,t,t,t,t,t,t	<img class = center src='/static/experiments/beast_fmri_test/images/V.png'></img>	89,71	2750.0	test	<img class = center src='/static/experiments/beast_fmri_test/images/redV.png'></img>	go	-1.0	2.0	0.0	go	temp-non-target	V	89,Middle Finger	71,Index Finger	700.0	1000.0	2000.0	1750.0	0.0	n/a	n/a	n/a	go_stim
12449.118131620577	1681.88186838	n/a	1256	71	2750	1681.88186838	stim	stop-signal	588	1660776	0.0-25.0-1.0	beast_fmri_test	349	1658199,/,1658879,/,1659558,/,1660237,/,1660918,/,1661596,/,1662276,/	t,t,t,t,t,t,t	<img class = center src='/static/experiments/beast_fmri_test/images/V.png'></img>	89,71	2750.0	test	<img class = center src='/static/experiments/beast_fmri_test/images/redV.png'></img>	go	-1.0	2.0	0.0	go	temp-non-target	V	89,Middle Finger	71,Index Finger	700.0	1000.0	2000.0	1750.0	0.0	n/a	n/a	n/a	ITI
16367	500.0	n/a	-1	-1	500	0.0	fixation	poldrack-single-stim	589	1663012	0.0-25.1-0.1	beast_fmri_test	349	1662956,/	t	<div class = centerbox2><div class = fixation>+</div></div>	none	500.0	test	n/a	n/a	n/a	n/a	n/a	n/a	n/a	n/a	n/a	n/a	n/a	n/a	n/a	n/a	n/a	n/a	n/a	n/a	fixation
16042.513907681685	2750.0	n/a	907	71	2750	325.486092318	stim	stop-signal	590	1665763	0.0-25.1-1.1	beast_fmri_test	349	1663636,/,1664315,/,1664995,/,1665675,/	t,t,t,t	<img class = center src='/static/experiments/beast_fmri_test/images/T.png'></img>	89,71	2750.0	test	<img class = center src='/static/experiments/beast_fmri_test/images/redT.png'></img>	go	-1.0	2.0	1.0	go	temp-non-target	T	89,Middle Finger	71,Index Finger	700.0	1000.0	2000.0	1750.0	0.0	n/a	n/a	n/a	go_stim
18792.513907681685	325.486092318	n/a	907	71	2750	325.486092318	stim	stop-signal	590	1665763	0.0-25.1-1.1	beast_fmri_test	349	1663636,/,1664315,/,1664995,/,1665675,/	t,t,t,t	<img class = center src='/static/experiments/beast_fmri_test/images/T.png'></img>	89,71	2750.0	test	<img class = center src='/static/experiments/beast_fmri_test/images/redT.png'></img>	go	-1.0	2.0	1.0	go	temp-non-target	T	89,Middle Finger	71,Index Finger	700.0	1000.0	2000.0	1750.0	0.0	n/a	n/a	n/a	ITI
20007	500.0	n/a	-1	-1	500	0.0	fixation	poldrack-single-stim	591	1666652	0.0-25.2-0.2	beast_fmri_test	349	1666355,/	t	<div class = centerbox2><div class = fixation>+</div></div>	none	500.0	test	n/a	n/a	n/a	n/a	n/a	n/a	n/a	n/a	n/a	n/a	n/a	n/a	n/a	n/a	n/a	n/a	n/a	n/a	fixation
19975.940678712912	2750.0	n/a	1148	71	2750	33.0593212871	stim	stop-signal	592	1669404	0.0-25.2-1.2	beast_fmri_test	349	1667034,/,1667714,/,1668394,/,1669072,/	t,t,t,t	<img class = center src='/static/experiments/beast_fmri_test/images/D.png'></img>	89,71	2750.0	test	<img class = center src='/static/experiments/beast_fmri_test/images/redD.png'></img>	go	1750.0	2.0	2.0	go	non-target	D	89,Middle Finger	71,Index Finger	700.0	1000.0	2000.0	1750.0	1.0	1000.0	1.0	n/a	go_stim
22725.940678712912	33.0593212871	n/a	1148	71	2750	33.0593212871	stim	stop-signal	592	1669404	0.0-25.2-1.2	beast_fmri_test	349	1667034,/,1667714,/,1668394,/,1669072,/	t,t,t,t	<img class = center src='/static/experiments/beast_fmri_test/images/D.png'></img>	89,71	2750.0	test	<img class = center src='/static/experiments/beast_fmri_test/images/redD.png'></img>	go	1750.0	2.0	2.0	go	non-target	D	89,Middle Finger	71,Index Finger	700.0	1000.0	2000.0	1750.0	1.0	1000.0	1.0	n/a	ITI
23351	500.0	n/a	-1	-1	500	0.0	fixation	poldrack-single-stim	593	1669996	0.0-25.3-0.3	beast_fmri_test	349	1669753,/	t	<div class = centerbox2><div class = fixation>+</div></div>	none	500.0	test	n/a	n/a	n/a	n/a	n/a	n/a	n/a	n/a	n/a	n/a	n/a	n/a	n/a	n/a	n/a	n/a	n/a	n/a	fixation
22395.109649640275	2750.0	n/a	1368	71	2750	956.89035036	stim	stop-signal	594	1672747	0.0-25.3-1.3	beast_fmri_test	349	1670432,/,1671113,/,1671791,/,1672472,/,1673150,/	t,t,t,t,t	<img class = center src='/static/experiments/beast_fmri_test/images/D.png'></img>	89,71	2750.0	test	<img class = center src='/static/experiments/beast_fmri_test/images/redD.png'></img>	go	1750.0	2.0	3.0	go	non-target	D	89,Middle Finger	71,Index Finger	700.0	1000.0	2000.0	1750.0	1.0	1000.0	1.0	n/a	go_stim
25145.109649640275	956.89035036	n/a	1368	71	2750	956.89035036	stim	stop-signal	594	1672747	0.0-25.3-1.3	beast_fmri_test	349	1670432,/,1671113,/,1671791,/,1672472,/,1673150,/	t,t,t,t,t	<img class = center src='/static/experiments/beast_fmri_test/images/D.png'></img>	89,71	2750.0	test	<img class = center src='/static/experiments/beast_fmri_test/images/redD.png'></img>	go	1750.0	2.0	3.0	go	non-target	D	89,Middle Finger	71,Index Finger	700.0	1000.0	2000.0	1750.0	1.0	1000.0	1.0	n/a	ITI
27620	500.0	n/a	-1	-1	500	0.0	fixation	poldrack-single-stim	595	1674265	0.0-25.4-0.4	beast_fmri_test	349	1673831,/	t	<div class = centerbox2><div class = fixation>+</div></div>	none	500.0	test	n/a	n/a	n/a	n/a	n/a	n/a	n/a	n/a	n/a	n/a	n/a	n/a	n/a	n/a	n/a	n/a	n/a	n/a	fixation
26052.096741951071	2750.0	n/a	711	71	2750	1569.90325805	stim	stop-signal	596	1677017	0.0-25.4-1.4	beast_fmri_test	349	1674510,/,1675191,/,1675870,/,1676550,/,1677229,/,1677909,/	t,t,t,t,t,t	<img class = center src='/static/experiments/beast_fmri_test/images/T.png'></img>	89,71	2750.0	test	<img class = center src='/static/experiments/beast_fmri_test/images/redT.png'></img>	go	1750.0	2.0	4.0	go	non-target	T	89,Middle Finger	71,Index Finger	700.0	1000.0	2000.0	1750.0	1.0	1000.0	1.0	n/a	go_stim
28802.096741951071	1569.90325805	n/a	711	71	2750	1569.90325805	stim	stop-signal	596	1677017	0.0-25.4-1.4	beast_fmri_test	349	1674510,/,1675191,/,1675870,/,1676550,/,1677229,/,1677909,/	t,t,t,t,t,t	<img class = center src='/static/experiments/beast_fmri_test/images/T.png'></img>	89,71	2750.0	test	<img class = center src='/static/experiments/beast_fmri_test/images/redT.png'></img>	go	1750.0	2.0	4.0	go	non-target	T	89,Middle Finger	71,Index Finger	700.0	1000.0	2000.0	1750.0	1.0	1000.0	1.0	n/a	ITI
32504	500.0	n/a	-1	-1	500	0.0	fixation	poldrack-single-stim	597	1679149	0.0-25.5-0.5	beast_fmri_test	349	1678647,/	t	<div class = centerbox2><div class = fixation>+</div></div>	none	500.0	test	n/a	n/a	n/a	n/a	n/a	n/a	n/a	n/a	n/a	n/a	n/a	n/a	n/a	n/a	n/a	n/a	n/a	n/a	fixation
31034.316050660331	1000.0	n/a	1068	71	2750	1471.68394934	stim	stop-signal	598	1681901	0.0-25.5-1.5	beast_fmri_test	349	1679268,/,1679947,/,1680626,/,1681307,/,1681986,/,1682667,/,1683345,/	t,t,t,t,t,t,t	<img class = center src='/static/experiments/beast_fmri_test/images/T.png'></img>	89,71	2750.0	test	<img class = center src='/static/experiments/beast_fmri_test/images/redT.png'></img>	stop	1750.0	2.0	5.0	stop	non-target	T	89,Middle Finger	71,Index Finger	700.0	1000.0	2000.0	1750.0	0.0	1000.0	n/a	0.0	go_stim
32784.316050660331	1750.0	n/a	1068	71	2750	1471.68394934	stim	stop-signal	598	1681901	0.0-25.5-1.5	beast_fmri_test	349	1679268,/,1679947,/,1680626,/,1681307,/,1681986,/,1682667,/,1683345,/	t,t,t,t,t,t,t	<img class = center src='/static/experiments/beast_fmri_test/images/T.png'></img>	89,71	2750.0	test	<img class = center src='/static/experiments/beast_fmri_test/images/redT.png'></img>	stop	1750.0	2.0	5.0	stop	non-target	T	89,Middle Finger	71,Index Finger	700.0	1000.0	2000.0	1750.0	0.0	1000.0	n/a	0.0	stop_stim
33784.316050660331	1471.68394934	n/a	1068	71	2750	1471.68394934	stim	stop-signal	598	1681901	0.0-25.5-1.5	beast_fmri_test	349	1679268,/,1679947,/,1680626,/,1681307,/,1681986,/,1682667,/,1683345,/	t,t,t,t,t,t,t	<img class = center src='/static/experiments/beast_fmri_test/images/T.png'></img>	89,71	2750.0	test	<img class = center src='/static/experiments/beast_fmri_test/images/redT.png'></img>	stop	1750.0	2.0	5.0	stop	non-target	T	89,Middle Finger	71,Index Finger	700.0	1000.0	2000.0	1750.0	0.0	1000.0	n/a	0.0	ITI
37284	500.0	n/a	-1	-1	500	0.0	fixation	poldrack-single-stim	599	1683929	0.0-25.6-0.6	beast_fmri_test	349	n/a	n/a	<div class = centerbox2><div class = fixation>+</div></div>	none	500.0	test	n/a	n/a	n/a	n/a	n/a	n/a	n/a	n/a	n/a	n/a	n/a	n/a	n/a	n/a	n/a	n/a	n/a	n/a	fixation
35966.712535537081	950.0	n/a	1197	71	2750	1318.28746446	stim	stop-signal	600	1686680	0.0-25.6-1.6	beast_fmri_test	349	1684027,/,1684706,/,1685385,/,1686065,/,1686746,/,1687425,/	t,t,t,t,t,t	<img class = center src='/static/experiments/beast_fmri_test/images/D.png'></img>	89,71	2750.0	test	<img class = center src='/static/experiments/beast_fmri_test/images/redD.png'></img>	stop	1800.0	2.0	6.0	stop	non-target	D	89,Middle Finger	71,Index Finger	700.0	950.0	2000.0	1800.0	0.0	950.0	n/a	0.0	go_stim
37766.712535537081	1800.0	n/a	1197	71	2750	1318.28746446	stim	stop-signal	600	1686680	0.0-25.6-1.6	beast_fmri_test	349	1684027,/,1684706,/,1685385,/,1686065,/,1686746,/,1687425,/	t,t,t,t,t,t	<img class = center src='/static/experiments/beast_fmri_test/images/D.png'></img>	89,71	2750.0	test	<img class = center src='/static/experiments/beast_fmri_test/images/redD.png'></img>	stop	1800.0	2.0	6.0	stop	non-target	D	89,Middle Finger	71,Index Finger	700.0	950.0	2000.0	1800.0	0.0	950.0	n/a	0.0	stop_stim
38716.712535537081	1318.28746446	n/a	1197	71	2750	1318.28746446	stim	stop-signal	600	1686680	0.0-25.6-1.6	beast_fmri_test	349	1684027,/,1684706,/,1685385,/,1686065,/,1686746,/,1687425,/	t,t,t,t,t,t	<img class = center src='/static/experiments/beast_fmri_test/images/D.png'></img>	89,71	2750.0	test	<img class = center src='/static/experiments/beast_fmri_test/images/redD.png'></img>	stop	1800.0	2.0	6.0	stop	non-target	D	89,Middle Finger	71,Index Finger	700.0	950.0	2000.0	1800.0	0.0	950.0	n/a	0.0	ITI
41921	500.0	n/a	-1	-1	500	0.0	fixation	poldrack-single-stim	601	1688566	0.0-25.7-0.7	beast_fmri_test	349	1688105,/	t	<div class = centerbox2><div class = fixation>+</div></div>	none	500.0	test	n/a	n/a	n/a	n/a	n/a	n/a	n/a	n/a	n/a	n/a	n/a	n/a	n/a	n/a	n/a	n/a	n/a	n/a	fixation
41664.9629357534	2750.0	n/a	2044	71	2750	258.037064247	stim	stop-signal	602	1691318	0.0-25.7-1.7	beast_fmri_test	349	1688786,/,1689464,/,1690144,/,1690824,/,1691502,/	t,t,t,t,t	<img class = center src='/static/experiments/beast_fmri_test/images/D.png'></img>	89,71	2750.0	test	<img class = center src='/static/experiments/beast_fmri_test/images/redD.png'></img>	go	1850.0	2.0	7.0	go	non-target	D	89,Middle Finger	71,Index Finger	700.0	900.0	2000.0	1850.0	1.0	900.0	1.0	n/a	go_stim
44414.9629357534	258.037064247	n/a	2044	71	2750	258.037064247	stim	stop-signal	602	1691318	0.0-25.7-1.7	beast_fmri_test	349	1688786,/,1689464,/,1690144,/,1690824,/,1691502,/	t,t,t,t,t	<img class = center src='/static/experiments/beast_fmri_test/images/D.png'></img>	89,71	2750.0	test	<img class = center src='/static/experiments/beast_fmri_test/images/redD.png'></img>	go	1850.0	2.0	7.0	go	non-target	D	89,Middle Finger	71,Index Finger	700.0	900.0	2000.0	1850.0	1.0	900.0	1.0	n/a	ITI
45489	500.0	n/a	-1	-1	500	0.0	fixation	poldrack-single-stim	603	1692134	0.0-25.8-0.8	beast_fmri_test	349	n/a	n/a	<div class = centerbox2><div class = fixation>+</div></div>	none	500.0	test	n/a	n/a	n/a	n/a	n/a	n/a	n/a	n/a	n/a	n/a	n/a	n/a	n/a	n/a	n/a	n/a	n/a	n/a	fixation
45245.376214693068	900.0	n/a	-1	-1	2750	245.623785307	stim	stop-signal	604	1694886	0.0-25.8-1.8	beast_fmri_test	349	1692182,/,1692863,/,1693541,/,1694223,/,1694901,/	t,t,t,t,t	<img class = center src='/static/experiments/beast_fmri_test/images/P.png'></img>	89,71	2750.0	test	<img class = center src='/static/experiments/beast_fmri_test/images/redP.png'></img>	stop	1850.0	2.0	8.0	stop	non-target	P	89,Middle Finger	71,Index Finger	700.0	900.0	2000.0	1850.0	0.0	900.0	n/a	1.0	go_stim
47095.376214693068	1850.0	n/a	-1	-1	2750	245.623785307	stim	stop-signal	604	1694886	0.0-25.8-1.8	beast_fmri_test	349	1692182,/,1692863,/,1693541,/,1694223,/,1694901,/	t,t,t,t,t	<img class = center src='/static/experiments/beast_fmri_test/images/P.png'></img>	89,71	2750.0	test	<img class = center src='/static/experiments/beast_fmri_test/images/redP.png'></img>	stop	1850.0	2.0	8.0	stop	non-target	P	89,Middle Finger	71,Index Finger	700.0	900.0	2000.0	1850.0	0.0	900.0	n/a	1.0	stop_stim
47995.376214693068	245.623785307	n/a	-1	-1	2750	245.623785307	stim	stop-signal	604	1694886	0.0-25.8-1.8	beast_fmri_test	349	1692182,/,1692863,/,1693541,/,1694223,/,1694901,/	t,t,t,t,t	<img class = center src='/static/experiments/beast_fmri_test/images/P.png'></img>	89,71	2750.0	test	<img class = center src='/static/experiments/beast_fmri_test/images/redP.png'></img>	stop	1850.0	2.0	8.0	stop	non-target	P	89,Middle Finger	71,Index Finger	700.0	900.0	2000.0	1850.0	0.0	900.0	n/a	1.0	ITI
49049	500.0	n/a	-1	-1	500	0.0	fixation	poldrack-single-stim	605	1695694	0.0-25.9-0.9	beast_fmri_test	349	1695582,/	t	<div class = centerbox2><div class = fixation>+</div></div>	none	500.0	test	n/a	n/a	n/a	n/a	n/a	n/a	n/a	n/a	n/a	n/a	n/a	n/a	n/a	n/a	n/a	n/a	n/a	n/a	fixation
46384.886592824711	2750.0	n/a	2021	71	2750	2667.11340718	stim	stop-signal	606	1698447	0.0-25.9-1.9	beast_fmri_test	349	1696261,/,1696941,/,1697621,/,1698298,/,1698980,/,1699659,/,1700339,/,1701018,/	t,t,t,t,t,t,t,t	<img class = center src='/static/experiments/beast_fmri_test/images/P.png'></img>	89,71	2750.0	test	<img class = center src='/static/experiments/beast_fmri_test/images/redP.png'></img>	go	1800.0	2.0	9.0	go	non-target	P	89,Middle Finger	71,Index Finger	700.0	950.0	2000.0	1800.0	1.0	950.0	1.0	n/a	go_stim
49134.886592824711	2667.11340718	n/a	2021	71	2750	2667.11340718	stim	stop-signal	606	1698447	0.0-25.9-1.9	beast_fmri_test	349	1696261,/,1696941,/,1697621,/,1698298,/,1698980,/,1699659,/,1700339,/,1701018,/	t,t,t,t,t,t,t,t	<img class = center src='/static/experiments/beast_fmri_test/images/P.png'></img>	89,71	2750.0	test	<img class = center src='/static/experiments/beast_fmri_test/images/redP.png'></img>	go	1800.0	2.0	9.0	go	non-target	P	89,Middle Finger	71,Index Finger	700.0	950.0	2000.0	1800.0	1.0	950.0	1.0	n/a	ITI
55033	500.0	n/a	-1	-1	500	0.0	fixation	poldrack-single-stim	607	1701678	0.0-25.10-0.10	beast_fmri_test	349	n/a	n/a	<div class = centerbox2><div class = fixation>+</div></div>	none	500.0	test	n/a	n/a	n/a	n/a	n/a	n/a	n/a	n/a	n/a	n/a	n/a	n/a	n/a	n/a	n/a	n/a	n/a	n/a	fixation
53130.198737044353	2750.0	n/a	2089	89	2750	1904.80126296	stim	stop-signal	608	1704430	0.0-25.10-1.10	beast_fmri_test	349	1701698,/,1702377,/,1703058,/,1703737,/,1704417,/,1705096,/,1705777,/	t,t,t,t,t,t,t	<img class = center src='/static/experiments/beast_fmri_test/images/P.png'></img>	89,71	2750.0	test	<img class = center src='/static/experiments/beast_fmri_test/images/redP.png'></img>	go	2050.0	2.0	10.0	go	target	P	89,Middle Finger	71,Index Finger	700.0	950.0	2050.0	1800.0	1.0	700.0	1.0	n/a	go_stim
55880.198737044353	1904.80126296	n/a	2089	89	2750	1904.80126296	stim	stop-signal	608	1704430	0.0-25.10-1.10	beast_fmri_test	349	1701698,/,1702377,/,1703058,/,1703737,/,1704417,/,1705096,/,1705777,/	t,t,t,t,t,t,t	<img class = center src='/static/experiments/beast_fmri_test/images/P.png'></img>	89,71	2750.0	test	<img class = center src='/static/experiments/beast_fmri_test/images/redP.png'></img>	go	2050.0	2.0	10.0	go	target	P	89,Middle Finger	71,Index Finger	700.0	950.0	2050.0	1800.0	1.0	700.0	1.0	n/a	ITI
60251	500.0	n/a	-1	-1	500	0.0	fixation	poldrack-single-stim	609	1706896	0.0-25.11-0.11	beast_fmri_test	349	1706455,/	t	<div class = centerbox2><div class = fixation>+</div></div>	none	500.0	test	n/a	n/a	n/a	n/a	n/a	n/a	n/a	n/a	n/a	n/a	n/a	n/a	n/a	n/a	n/a	n/a	n/a	n/a	fixation
60009.257873479975	2750.0	n/a	782	71	2750	243.74212652	stim	stop-signal	610	1709648	0.0-25.11-1.11	beast_fmri_test	349	1707135,/,1707816,/,1708495,/,1709175,/,1709853,/	t,t,t,t,t	<img class = center src='/static/experiments/beast_fmri_test/images/B.png'></img>	89,71	2750.0	test	<img class = center src='/static/experiments/beast_fmri_test/images/redB.png'></img>	go	1800.0	2.0	11.0	go	non-target	B	89,Middle Finger	71,Index Finger	700.0	950.0	2050.0	1800.0	1.0	950.0	1.0	n/a	go_stim
62759.257873479975	243.74212652	n/a	782	71	2750	243.74212652	stim	stop-signal	610	1709648	0.0-25.11-1.11	beast_fmri_test	349	1707135,/,1707816,/,1708495,/,1709175,/,1709853,/	t,t,t,t,t	<img class = center src='/static/experiments/beast_fmri_test/images/B.png'></img>	89,71	2750.0	test	<img class = center src='/static/experiments/beast_fmri_test/images/redB.png'></img>	go	1800.0	2.0	11.0	go	non-target	B	89,Middle Finger	71,Index Finger	700.0	950.0	2050.0	1800.0	1.0	950.0	1.0	n/a	ITI
63808	500.0	n/a	-1	-1	500	0.0	fixation	poldrack-single-stim	611	1710453	0.0-25.12-0.12	beast_fmri_test	349	n/a	n/a	<div class = centerbox2><div class = fixation>+</div></div>	none	500.0	test	n/a	n/a	n/a	n/a	n/a	n/a	n/a	n/a	n/a	n/a	n/a	n/a	n/a	n/a	n/a	n/a	n/a	n/a	fixation
63698.232108789263	700.0	n/a	-1	-1	2750	111.767891211	stim	stop-signal	612	1713205	0.0-25.12-1.12	beast_fmri_test	349	1710534,/,1711214,/,1711893,/,1712572,/,1713253,/	t,t,t,t,t	<img class = center src='/static/experiments/beast_fmri_test/images/P.png'></img>	89,71	2750.0	test	<img class = center src='/static/experiments/beast_fmri_test/images/redP.png'></img>	stop	2050.0	2.0	12.0	stop	target	P	89,Middle Finger	71,Index Finger	700.0	950.0	2050.0	1800.0	0.0	700.0	n/a	1.0	go_stim
65748.232108789263	2050.0	n/a	-1	-1	2750	111.767891211	stim	stop-signal	612	1713205	0.0-25.12-1.12	beast_fmri_test	349	1710534,/,1711214,/,1711893,/,1712572,/,1713253,/	t,t,t,t,t	<img class = center src='/static/experiments/beast_fmri_test/images/P.png'></img>	89,71	2750.0	test	<img class = center src='/static/experiments/beast_fmri_test/images/redP.png'></img>	stop	2050.0	2.0	12.0	stop	target	P	89,Middle Finger	71,Index Finger	700.0	950.0	2050.0	1800.0	0.0	700.0	n/a	1.0	stop_stim
66448.232108789263	111.767891211	n/a	-1	-1	2750	111.767891211	stim	stop-signal	612	1713205	0.0-25.12-1.12	beast_fmri_test	349	1710534,/,1711214,/,1711893,/,1712572,/,1713253,/	t,t,t,t,t	<img class = center src='/static/experiments/beast_fmri_test/images/P.png'></img>	89,71	2750.0	test	<img class = center src='/static/experiments/beast_fmri_test/images/redP.png'></img>	stop	2050.0	2.0	12.0	stop	target	P	89,Middle Finger	71,Index Finger	700.0	950.0	2050.0	1800.0	0.0	700.0	n/a	1.0	ITI
67233	500.0	n/a	-1	-1	500	0.0	fixation	poldrack-single-stim	613	1713878	0.0-25.13-0.13	beast_fmri_test	349	n/a	n/a	<div class = centerbox2><div class = fixation>+</div></div>	none	500.0	test	n/a	n/a	n/a	n/a	n/a	n/a	n/a	n/a	n/a	n/a	n/a	n/a	n/a	n/a	n/a	n/a	n/a	n/a	fixation
66285.255843244027	2750.0	n/a	1326	89	2750	949.744156756	stim	stop-signal	614	1716630	0.0-25.13-1.13	beast_fmri_test	349	1713932,/,1714612,/,1715291,/,1715972,/,1716650,/,1717330,/	t,t,t,t,t,t	<img class = center src='/static/experiments/beast_fmri_test/images/B.png'></img>	89,71	2750.0	test	<img class = center src='/static/experiments/beast_fmri_test/images/redB.png'></img>	go	2000.0	2.0	13.0	go	target	B	89,Middle Finger	71,Index Finger	750.0	950.0	2000.0	1800.0	1.0	750.0	1.0	n/a	go_stim
69035.255843244027	949.744156756	n/a	1326	89	2750	949.744156756	stim	stop-signal	614	1716630	0.0-25.13-1.13	beast_fmri_test	349	1713932,/,1714612,/,1715291,/,1715972,/,1716650,/,1717330,/	t,t,t,t,t,t	<img class = center src='/static/experiments/beast_fmri_test/images/B.png'></img>	89,71	2750.0	test	<img class = center src='/static/experiments/beast_fmri_test/images/redB.png'></img>	go	2000.0	2.0	13.0	go	target	B	89,Middle Finger	71,Index Finger	750.0	950.0	2000.0	1800.0	1.0	750.0	1.0	n/a	ITI
71492	500.0	n/a	-1	-1	500	0.0	fixation	poldrack-single-stim	615	1718137	0.0-25.14-0.14	beast_fmri_test	349	1718011,/	t	<div class = centerbox2><div class = fixation>+</div></div>	none	500.0	test	n/a	n/a	n/a	n/a	n/a	n/a	n/a	n/a	n/a	n/a	n/a	n/a	n/a	n/a	n/a	n/a	n/a	n/a	fixation
71152.772634922294	750.0	n/a	-1	-1	2750	341.227365078	stim	stop-signal	616	1720889	0.0-25.14-1.14	beast_fmri_test	349	1718690,/,1719371,/,1720050,/,1720729,/	t,t,t,t	<img class = center src='/static/experiments/beast_fmri_test/images/P.png'></img>	89,71	2750.0	test	<img class = center src='/static/experiments/beast_fmri_test/images/redP.png'></img>	stop	2000.0	2.0	14.0	stop	target	P	89,Middle Finger	71,Index Finger	750.0	950.0	2000.0	1800.0	0.0	750.0	n/a	1.0	go_stim
73152.772634922294	2000.0	n/a	-1	-1	2750	341.227365078	stim	stop-signal	616	1720889	0.0-25.14-1.14	beast_fmri_test	349	1718690,/,1719371,/,1720050,/,1720729,/	t,t,t,t	<img class = center src='/static/experiments/beast_fmri_test/images/P.png'></img>	89,71	2750.0	test	<img class = center src='/static/experiments/beast_fmri_test/images/redP.png'></img>	stop	2000.0	2.0	14.0	stop	target	P	89,Middle Finger	71,Index Finger	750.0	950.0	2000.0	1800.0	0.0	750.0	n/a	1.0	stop_stim
73902.772634922294	341.227365078	n/a	-1	-1	2750	341.227365078	stim	stop-signal	616	1720889	0.0-25.14-1.14	beast_fmri_test	349	1718690,/,1719371,/,1720050,/,1720729,/	t,t,t,t	<img class = center src='/static/experiments/beast_fmri_test/images/P.png'></img>	89,71	2750.0	test	<img class = center src='/static/experiments/beast_fmri_test/images/redP.png'></img>	stop	2000.0	2.0	14.0	stop	target	P	89,Middle Finger	71,Index Finger	750.0	950.0	2000.0	1800.0	0.0	750.0	n/a	1.0	ITI
75150	500.0	n/a	-1	-1	500	0.0	fixation	poldrack-single-stim	617	1721795	0.0-25.15-0.15	beast_fmri_test	349	1721408,/	t	<div class = centerbox2><div class = fixation>+</div></div>	none	500.0	test	n/a	n/a	n/a	n/a	n/a	n/a	n/a	n/a	n/a	n/a	n/a	n/a	n/a	n/a	n/a	n/a	n/a	n/a	fixation
74425.753036212875	2750.0	n/a	1655	89	2750	725.246963787	stim	stop-signal	618	1724546	0.0-25.15-1.15	beast_fmri_test	349	1722089,/,1722768,/,1723449,/,1724127,/,1724808,/	t,t,t,t,t	<img class = center src='/static/experiments/beast_fmri_test/images/B.png'></img>	89,71	2750.0	test	<img class = center src='/static/experiments/beast_fmri_test/images/redB.png'></img>	go	1950.0	2.0	15.0	go	target	B	89,Middle Finger	71,Index Finger	800.0	950.0	1950.0	1800.0	1.0	800.0	1.0	n/a	go_stim
77175.753036212875	725.246963787	n/a	1655	89	2750	725.246963787	stim	stop-signal	618	1724546	0.0-25.15-1.15	beast_fmri_test	349	1722089,/,1722768,/,1723449,/,1724127,/,1724808,/	t,t,t,t,t	<img class = center src='/static/experiments/beast_fmri_test/images/B.png'></img>	89,71	2750.0	test	<img class = center src='/static/experiments/beast_fmri_test/images/redB.png'></img>	go	1950.0	2.0	15.0	go	target	B	89,Middle Finger	71,Index Finger	800.0	950.0	1950.0	1800.0	1.0	800.0	1.0	n/a	ITI
79191	500.0	n/a	-1	-1	500	0.0	fixation	poldrack-single-stim	619	1725836	0.0-25.16-0.16	beast_fmri_test	349	1725486,/	t	<div class = centerbox2><div class = fixation>+</div></div>	none	500.0	test	n/a	n/a	n/a	n/a	n/a	n/a	n/a	n/a	n/a	n/a	n/a	n/a	n/a	n/a	n/a	n/a	n/a	n/a	fixation
77451.569304963108	2750.0	n/a	1538	89	2750	1740.43069504	stim	stop-signal	620	1728587	0.0-25.16-1.16	beast_fmri_test	349	1726167,/,1726847,/,1727527,/,1728206,/,1728885,/,1729565,/,1730244,/	t,t,t,t,t,t,t	<img class = center src='/static/experiments/beast_fmri_test/images/P.png'></img>	89,71	2750.0	test	<img class = center src='/static/experiments/beast_fmri_test/images/redP.png'></img>	go	1950.0	2.0	16.0	go	target	P	89,Middle Finger	71,Index Finger	800.0	950.0	1950.0	1800.0	1.0	800.0	1.0	n/a	go_stim
80201.569304963108	1740.43069504	n/a	1538	89	2750	1740.43069504	stim	stop-signal	620	1728587	0.0-25.16-1.16	beast_fmri_test	349	1726167,/,1726847,/,1727527,/,1728206,/,1728885,/,1729565,/,1730244,/	t,t,t,t,t,t,t	<img class = center src='/static/experiments/beast_fmri_test/images/P.png'></img>	89,71	2750.0	test	<img class = center src='/static/experiments/beast_fmri_test/images/redP.png'></img>	go	1950.0	2.0	16.0	go	target	P	89,Middle Finger	71,Index Finger	800.0	950.0	1950.0	1800.0	1.0	800.0	1.0	n/a	ITI
84244	500.0	n/a	-1	-1	500	0.0	fixation	poldrack-single-stim	621	1730889	0.0-25.17-0.17	beast_fmri_test	349	n/a	n/a	<div class = centerbox2><div class = fixation>+</div></div>	none	500.0	test	n/a	n/a	n/a	n/a	n/a	n/a	n/a	n/a	n/a	n/a	n/a	n/a	n/a	n/a	n/a	n/a	n/a	n/a	fixation
82290.451773161767	2750.0	n/a	1705	89	2750	1955.54822684	stim	stop-signal	622	1733641	0.0-25.17-1.17	beast_fmri_test	349	1730924,/,1731603,/,1732285,/,1732963,/,1733642,/,1734322,/,1735001,/	t,t,t,t,t,t,t	<img class = center src='/static/experiments/beast_fmri_test/images/B.png'></img>	89,71	2750.0	test	<img class = center src='/static/experiments/beast_fmri_test/images/redB.png'></img>	go	1950.0	2.0	17.0	go	target	B	89,Middle Finger	71,Index Finger	800.0	950.0	1950.0	1800.0	1.0	800.0	1.0	n/a	go_stim
85040.451773161767	1955.54822684	n/a	1705	89	2750	1955.54822684	stim	stop-signal	622	1733641	0.0-25.17-1.17	beast_fmri_test	349	1730924,/,1731603,/,1732285,/,1732963,/,1733642,/,1734322,/,1735001,/	t,t,t,t,t,t,t	<img class = center src='/static/experiments/beast_fmri_test/images/B.png'></img>	89,71	2750.0	test	<img class = center src='/static/experiments/beast_fmri_test/images/redB.png'></img>	go	1950.0	2.0	17.0	go	target	B	89,Middle Finger	71,Index Finger	800.0	950.0	1950.0	1800.0	1.0	800.0	1.0	n/a	ITI
89515	500.0	n/a	-1	-1	500	0.0	fixation	poldrack-single-stim	623	1736160	0.0-25.18-0.18	beast_fmri_test	349	1735693,/	t	<div class = centerbox2><div class = fixation>+</div></div>	none	500.0	test	n/a	n/a	n/a	n/a	n/a	n/a	n/a	n/a	n/a	n/a	n/a	n/a	n/a	n/a	n/a	n/a	n/a	n/a	fixation
89436.429971972248	800.0	n/a	-1	-1	2750	79.5700280276	stim	stop-signal	624	1738911	0.0-25.18-1.18	beast_fmri_test	349	1736361,/,1737041,/,1737722,/,1738400,/	t,t,t,t	<img class = center src='/static/experiments/beast_fmri_test/images/P.png'></img>	89,71	2750.0	test	<img class = center src='/static/experiments/beast_fmri_test/images/redP.png'></img>	stop	1950.0	2.0	18.0	stop	target	P	89,Middle Finger	71,Index Finger	800.0	950.0	1950.0	1800.0	0.0	800.0	n/a	1.0	go_stim
91386.429971972248	1950.0	n/a	-1	-1	2750	79.5700280276	stim	stop-signal	624	1738911	0.0-25.18-1.18	beast_fmri_test	349	1736361,/,1737041,/,1737722,/,1738400,/	t,t,t,t	<img class = center src='/static/experiments/beast_fmri_test/images/P.png'></img>	89,71	2750.0	test	<img class = center src='/static/experiments/beast_fmri_test/images/redP.png'></img>	stop	1950.0	2.0	18.0	stop	target	P	89,Middle Finger	71,Index Finger	800.0	950.0	1950.0	1800.0	0.0	800.0	n/a	1.0	stop_stim
92186.429971972248	79.5700280276	n/a	-1	-1	2750	79.5700280276	stim	stop-signal	624	1738911	0.0-25.18-1.18	beast_fmri_test	349	1736361,/,1737041,/,1737722,/,1738400,/	t,t,t,t	<img class = center src='/static/experiments/beast_fmri_test/images/P.png'></img>	89,71	2750.0	test	<img class = center src='/static/experiments/beast_fmri_test/images/redP.png'></img>	stop	1950.0	2.0	18.0	stop	target	P	89,Middle Finger	71,Index Finger	800.0	950.0	1950.0	1800.0	0.0	800.0	n/a	1.0	ITI
92913	500.0	n/a	-1	-1	500	0.0	fixation	poldrack-single-stim	625	1739558	0.0-25.19-0.19	beast_fmri_test	349	1739079,/	t	<div class = centerbox2><div class = fixation>+</div></div>	none	500.0	test	n/a	n/a	n/a	n/a	n/a	n/a	n/a	n/a	n/a	n/a	n/a	n/a	n/a	n/a	n/a	n/a	n/a	n/a	fixation
92875.827641286887	2750.0	n/a	890	71	2750	39.1723587132	stim	stop-signal	626	1742310	0.0-25.19-1.19	beast_fmri_test	349	1739760,/,1740440,/,1741118,/,1741800,/	t,t,t,t	<img class = center src='/static/experiments/beast_fmri_test/images/D.png'></img>	89,71	2750.0	test	<img class = center src='/static/experiments/beast_fmri_test/images/redD.png'></img>	go	1800.0	2.0	19.0	go	non-target	D	89,Middle Finger	71,Index Finger	850.0	950.0	1950.0	1800.0	1.0	950.0	1.0	n/a	go_stim
95625.827641286887	39.1723587132	n/a	890	71	2750	39.1723587132	stim	stop-signal	626	1742310	0.0-25.19-1.19	beast_fmri_test	349	1739760,/,1740440,/,1741118,/,1741800,/	t,t,t,t	<img class = center src='/static/experiments/beast_fmri_test/images/D.png'></img>	89,71	2750.0	test	<img class = center src='/static/experiments/beast_fmri_test/images/redD.png'></img>	go	1800.0	2.0	19.0	go	non-target	D	89,Middle Finger	71,Index Finger	850.0	950.0	1950.0	1800.0	1.0	950.0	1.0	n/a	ITI
96266	500.0	n/a	-1	-1	500	0.0	fixation	poldrack-single-stim	627	1742911	0.0-25.20-0.20	beast_fmri_test	349	1742480,/	t	<div class = centerbox2><div class = fixation>+</div></div>	none	500.0	test	n/a	n/a	n/a	n/a	n/a	n/a	n/a	n/a	n/a	n/a	n/a	n/a	n/a	n/a	n/a	n/a	n/a	n/a	fixation
95576.438868545229	850.0	n/a	2114	89	2750	691.561131455	stim	stop-signal	628	1745663	0.0-25.20-1.20	beast_fmri_test	349	1743159,/,1743839,/,1744519,/,1745199,/,1745879,/	t,t,t,t,t	<img class = center src='/static/experiments/beast_fmri_test/images/P.png'></img>	89,71	2750.0	test	<img class = center src='/static/experiments/beast_fmri_test/images/redP.png'></img>	stop	1900.0	2.0	20.0	stop	target	P	89,Middle Finger	71,Index Finger	850.0	950.0	1900.0	1800.0	0.0	850.0	n/a	0.0	go_stim
97476.438868545229	1900.0	n/a	2114	89	2750	691.561131455	stim	stop-signal	628	1745663	0.0-25.20-1.20	beast_fmri_test	349	1743159,/,1743839,/,1744519,/,1745199,/,1745879,/	t,t,t,t,t	<img class = center src='/static/experiments/beast_fmri_test/images/P.png'></img>	89,71	2750.0	test	<img class = center src='/static/experiments/beast_fmri_test/images/redP.png'></img>	stop	1900.0	2.0	20.0	stop	target	P	89,Middle Finger	71,Index Finger	850.0	950.0	1900.0	1800.0	0.0	850.0	n/a	0.0	stop_stim
98326.438868545229	691.561131455	n/a	2114	89	2750	691.561131455	stim	stop-signal	628	1745663	0.0-25.20-1.20	beast_fmri_test	349	1743159,/,1743839,/,1744519,/,1745199,/,1745879,/	t,t,t,t,t	<img class = center src='/static/experiments/beast_fmri_test/images/P.png'></img>	89,71	2750.0	test	<img class = center src='/static/experiments/beast_fmri_test/images/redP.png'></img>	stop	1900.0	2.0	20.0	stop	target	P	89,Middle Finger	71,Index Finger	850.0	950.0	1900.0	1800.0	0.0	850.0	n/a	0.0	ITI
100267	500.0	n/a	-1	-1	500	0.0	fixation	poldrack-single-stim	629	1746912	0.0-25.21-0.21	beast_fmri_test	349	1746559,/	t	<div class = centerbox2><div class = fixation>+</div></div>	none	500.0	test	n/a	n/a	n/a	n/a	n/a	n/a	n/a	n/a	n/a	n/a	n/a	n/a	n/a	n/a	n/a	n/a	n/a	n/a	fixation
99707.908244201448	2750.0	n/a	1536	89	2750	561.091755798	stim	stop-signal	630	1749664	0.0-25.21-1.21	beast_fmri_test	349	1747237,/,1747917,/,1748596,/,1749276,/,1749955,/	t,t,t,t,t	<img class = center src='/static/experiments/beast_fmri_test/images/D.png'></img>	89,71	2750.0	test	<img class = center src='/static/experiments/beast_fmri_test/images/redD.png'></img>	go	1950.0	2.0	21.0	go	target	D	89,Middle Finger	71,Index Finger	800.0	950.0	1950.0	1800.0	1.0	800.0	1.0	n/a	go_stim
102457.90824420145	561.091755798	n/a	1536	89	2750	561.091755798	stim	stop-signal	630	1749664	0.0-25.21-1.21	beast_fmri_test	349	1747237,/,1747917,/,1748596,/,1749276,/,1749955,/	t,t,t,t,t	<img class = center src='/static/experiments/beast_fmri_test/images/D.png'></img>	89,71	2750.0	test	<img class = center src='/static/experiments/beast_fmri_test/images/redD.png'></img>	go	1950.0	2.0	21.0	go	target	D	89,Middle Finger	71,Index Finger	800.0	950.0	1950.0	1800.0	1.0	800.0	1.0	n/a	ITI
104142	500.0	n/a	-1	-1	500	0.0	fixation	poldrack-single-stim	631	1750787	0.0-25.22-0.22	beast_fmri_test	349	1750637,/	t	<div class = centerbox2><div class = fixation>+</div></div>	none	500.0	test	n/a	n/a	n/a	n/a	n/a	n/a	n/a	n/a	n/a	n/a	n/a	n/a	n/a	n/a	n/a	n/a	n/a	n/a	fixation
103863.32282948517	2750.0	n/a	1109	71	2750	280.677170515	stim	stop-signal	632	1753539	0.0-25.22-1.22	beast_fmri_test	349	1751316,/,1751995,/,1752675,/,1753353,/	t,t,t,t	<img class = center src='/static/experiments/beast_fmri_test/images/D.png'></img>	89,71	2750.0	test	<img class = center src='/static/experiments/beast_fmri_test/images/redD.png'></img>	go	1800.0	2.0	22.0	go	non-target	D	89,Middle Finger	71,Index Finger	800.0	950.0	1950.0	1800.0	1.0	950.0	1.0	n/a	go_stim
106613.32282948517	280.677170515	n/a	1109	71	2750	280.677170515	stim	stop-signal	632	1753539	0.0-25.22-1.22	beast_fmri_test	349	1751316,/,1751995,/,1752675,/,1753353,/	t,t,t,t	<img class = center src='/static/experiments/beast_fmri_test/images/D.png'></img>	89,71	2750.0	test	<img class = center src='/static/experiments/beast_fmri_test/images/redD.png'></img>	go	1800.0	2.0	22.0	go	non-target	D	89,Middle Finger	71,Index Finger	800.0	950.0	1950.0	1800.0	1.0	950.0	1.0	n/a	ITI
107732	500.0	n/a	-1	-1	500	0.0	fixation	poldrack-single-stim	633	1754377	0.0-25.23-0.23	beast_fmri_test	349	1754033,/	t	<div class = centerbox2><div class = fixation>+</div></div>	none	500.0	test	n/a	n/a	n/a	n/a	n/a	n/a	n/a	n/a	n/a	n/a	n/a	n/a	n/a	n/a	n/a	n/a	n/a	n/a	fixation
106957.31126980414	950.0	n/a	1101	71	2750	776.688730196	stim	stop-signal	634	1757129	0.0-25.23-1.23	beast_fmri_test	349	1754713,/,1755392,/,1756072,/,1756753,/,1757431,/	t,t,t,t,t	<img class = center src='/static/experiments/beast_fmri_test/images/V.png'></img>	89,71	2750.0	test	<img class = center src='/static/experiments/beast_fmri_test/images/redV.png'></img>	stop	1800.0	2.0	23.0	stop	non-target	V	89,Middle Finger	71,Index Finger	800.0	950.0	1950.0	1800.0	0.0	950.0	n/a	0.0	go_stim
108757.31126980414	1800.0	n/a	1101	71	2750	776.688730196	stim	stop-signal	634	1757129	0.0-25.23-1.23	beast_fmri_test	349	1754713,/,1755392,/,1756072,/,1756753,/,1757431,/	t,t,t,t,t	<img class = center src='/static/experiments/beast_fmri_test/images/V.png'></img>	89,71	2750.0	test	<img class = center src='/static/experiments/beast_fmri_test/images/redV.png'></img>	stop	1800.0	2.0	23.0	stop	non-target	V	89,Middle Finger	71,Index Finger	800.0	950.0	1950.0	1800.0	0.0	950.0	n/a	0.0	stop_stim
109707.31126980414	776.688730196	n/a	1101	71	2750	776.688730196	stim	stop-signal	634	1757129	0.0-25.23-1.23	beast_fmri_test	349	1754713,/,1755392,/,1756072,/,1756753,/,1757431,/	t,t,t,t,t	<img class = center src='/static/experiments/beast_fmri_test/images/V.png'></img>	89,71	2750.0	test	<img class = center src='/static/experiments/beast_fmri_test/images/redV.png'></img>	stop	1800.0	2.0	23.0	stop	non-target	V	89,Middle Finger	71,Index Finger	800.0	950.0	1950.0	1800.0	0.0	950.0	n/a	0.0	ITI
111825	500.0	n/a	-1	-1	500	0.0	fixation	poldrack-single-stim	635	1758470	0.0-25.24-0.24	beast_fmri_test	349	1758112,/	t	<div class = centerbox2><div class = fixation>+</div></div>	none	500.0	test	n/a	n/a	n/a	n/a	n/a	n/a	n/a	n/a	n/a	n/a	n/a	n/a	n/a	n/a	n/a	n/a	n/a	n/a	fixation
111060.8156607314	2750.0	n/a	1911	71	2750	766.184339268	stim	stop-signal	636	1761222	0.0-25.24-1.24	beast_fmri_test	349	1758791,/,1759472,/,1760151,/,1760831,/,1761511,/	t,t,t,t,t	<img class = center src='/static/experiments/beast_fmri_test/images/P.png'></img>	89,71	2750.0	test	<img class = center src='/static/experiments/beast_fmri_test/images/redP.png'></img>	go	1850.0	2.0	24.0	go	non-target	P	89,Middle Finger	71,Index Finger	800.0	900.0	1950.0	1850.0	1.0	900.0	1.0	n/a	go_stim
113810.8156607314	766.184339268	n/a	1911	71	2750	766.184339268	stim	stop-signal	636	1761222	0.0-25.24-1.24	beast_fmri_test	349	1758791,/,1759472,/,1760151,/,1760831,/,1761511,/	t,t,t,t,t	<img class = center src='/static/experiments/beast_fmri_test/images/P.png'></img>	89,71	2750.0	test	<img class = center src='/static/experiments/beast_fmri_test/images/redP.png'></img>	go	1850.0	2.0	24.0	go	non-target	P	89,Middle Finger	71,Index Finger	800.0	900.0	1950.0	1850.0	1.0	900.0	1.0	n/a	ITI
115903	500.0	n/a	-1	-1	500	0.0	fixation	poldrack-single-stim	637	1762548	0.0-25.25-0.25	beast_fmri_test	349	1762191,/	t	<div class = centerbox2><div class = fixation>+</div></div>	none	500.0	test	n/a	n/a	n/a	n/a	n/a	n/a	n/a	n/a	n/a	n/a	n/a	n/a	n/a	n/a	n/a	n/a	n/a	n/a	fixation
115699.92678289139	900.0	n/a	1181	71	2750	205.073217109	stim	stop-signal	638	1765300	0.0-25.25-1.25	beast_fmri_test	349	1762870,/,1763549,/,1764228,/,1764908,/	t,t,t,t	<img class = center src='/static/experiments/beast_fmri_test/images/T.png'></img>	89,71	2750.0	test	<img class = center src='/static/experiments/beast_fmri_test/images/redT.png'></img>	stop	1850.0	2.0	25.0	stop	non-target	T	89,Middle Finger	71,Index Finger	800.0	900.0	1950.0	1850.0	0.0	900.0	n/a	0.0	go_stim
117549.92678289139	1850.0	n/a	1181	71	2750	205.073217109	stim	stop-signal	638	1765300	0.0-25.25-1.25	beast_fmri_test	349	1762870,/,1763549,/,1764228,/,1764908,/	t,t,t,t	<img class = center src='/static/experiments/beast_fmri_test/images/T.png'></img>	89,71	2750.0	test	<img class = center src='/static/experiments/beast_fmri_test/images/redT.png'></img>	stop	1850.0	2.0	25.0	stop	non-target	T	89,Middle Finger	71,Index Finger	800.0	900.0	1950.0	1850.0	0.0	900.0	n/a	0.0	stop_stim
118449.92678289139	205.073217109	n/a	1181	71	2750	205.073217109	stim	stop-signal	638	1765300	0.0-25.25-1.25	beast_fmri_test	349	1762870,/,1763549,/,1764228,/,1764908,/	t,t,t,t	<img class = center src='/static/experiments/beast_fmri_test/images/T.png'></img>	89,71	2750.0	test	<img class = center src='/static/experiments/beast_fmri_test/images/redT.png'></img>	stop	1850.0	2.0	25.0	stop	non-target	T	89,Middle Finger	71,Index Finger	800.0	900.0	1950.0	1850.0	0.0	900.0	n/a	0.0	ITI
119421	500.0	n/a	-1	-1	500	0.0	fixation	poldrack-single-stim	639	1766066	0.0-25.26-0.26	beast_fmri_test	349	1765589,/	t	<div class = centerbox2><div class = fixation>+</div></div>	none	500.0	test	n/a	n/a	n/a	n/a	n/a	n/a	n/a	n/a	n/a	n/a	n/a	n/a	n/a	n/a	n/a	n/a	n/a	n/a	fixation
118818.96613272349	2750.0	n/a	1696	71	2750	604.033867276	stim	stop-signal	640	1768818	0.0-25.26-1.26	beast_fmri_test	349	1766268,/,1766948,/,1767628,/,1768307,/,1768987,/	t,t,t,t,t	<img class = center src='/static/experiments/beast_fmri_test/images/B.png'></img>	89,71	2750.0	test	<img class = center src='/static/experiments/beast_fmri_test/images/redB.png'></img>	go	1900.0	2.0	26.0	go	non-target	B	89,Middle Finger	71,Index Finger	800.0	850.0	1950.0	1900.0	1.0	850.0	1.0	n/a	go_stim
121568.96613272349	604.033867276	n/a	1696	71	2750	604.033867276	stim	stop-signal	640	1768818	0.0-25.26-1.26	beast_fmri_test	349	1766268,/,1766948,/,1767628,/,1768307,/,1768987,/	t,t,t,t,t	<img class = center src='/static/experiments/beast_fmri_test/images/B.png'></img>	89,71	2750.0	test	<img class = center src='/static/experiments/beast_fmri_test/images/redB.png'></img>	go	1900.0	2.0	26.0	go	non-target	B	89,Middle Finger	71,Index Finger	800.0	850.0	1950.0	1900.0	1.0	850.0	1.0	n/a	ITI
123341	500.0	n/a	-1	-1	500	0.0	fixation	poldrack-single-stim	641	1769986	0.0-25.27-0.27	beast_fmri_test	349	1769666,/	t	<div class = centerbox2><div class = fixation>+</div></div>	none	500.0	test	n/a	n/a	n/a	n/a	n/a	n/a	n/a	n/a	n/a	n/a	n/a	n/a	n/a	n/a	n/a	n/a	n/a	n/a	fixation
122506.05676108599	800.0	n/a	1186	89	2750	836.943238914	stim	stop-signal	642	1772738	0.0-25.27-1.27	beast_fmri_test	349	1770346,/,1771026,/,1771706,/,1772385,/,1773066,/	t,t,t,t,t	<img class = center src='/static/experiments/beast_fmri_test/images/T.png'></img>	89,71	2750.0	test	<img class = center src='/static/experiments/beast_fmri_test/images/redT.png'></img>	stop	1950.0	2.0	27.0	stop	target	T	89,Middle Finger	71,Index Finger	800.0	850.0	1950.0	1900.0	0.0	800.0	n/a	0.0	go_stim
124456.05676108599	1950.0	n/a	1186	89	2750	836.943238914	stim	stop-signal	642	1772738	0.0-25.27-1.27	beast_fmri_test	349	1770346,/,1771026,/,1771706,/,1772385,/,1773066,/	t,t,t,t,t	<img class = center src='/static/experiments/beast_fmri_test/images/T.png'></img>	89,71	2750.0	test	<img class = center src='/static/experiments/beast_fmri_test/images/redT.png'></img>	stop	1950.0	2.0	27.0	stop	target	T	89,Middle Finger	71,Index Finger	800.0	850.0	1950.0	1900.0	0.0	800.0	n/a	0.0	stop_stim
125256.05676108599	836.943238914	n/a	1186	89	2750	836.943238914	stim	stop-signal	642	1772738	0.0-25.27-1.27	beast_fmri_test	349	1770346,/,1771026,/,1771706,/,1772385,/,1773066,/	t,t,t,t,t	<img class = center src='/static/experiments/beast_fmri_test/images/T.png'></img>	89,71	2750.0	test	<img class = center src='/static/experiments/beast_fmri_test/images/redT.png'></img>	stop	1950.0	2.0	27.0	stop	target	T	89,Middle Finger	71,Index Finger	800.0	850.0	1950.0	1900.0	0.0	800.0	n/a	0.0	ITI
127493	500.0	n/a	-1	-1	500	0.0	fixation	poldrack-single-stim	643	1774138	0.0-25.28-0.28	beast_fmri_test	349	1773745,/	t	<div class = centerbox2><div class = fixation>+</div></div>	none	500.0	test	n/a	n/a	n/a	n/a	n/a	n/a	n/a	n/a	n/a	n/a	n/a	n/a	n/a	n/a	n/a	n/a	n/a	n/a	fixation
126143.1375802625	2750.0	n/a	1356	71	2750	1351.86241974	stim	stop-signal	644	1776890	0.0-25.28-1.28	beast_fmri_test	349	1774424,/,1775104,/,1775785,/,1776464,/,1777144,/,1777824,/	t,t,t,t,t,t	<img class = center src='/static/experiments/beast_fmri_test/images/V.png'></img>	89,71	2750.0	test	<img class = center src='/static/experiments/beast_fmri_test/images/redV.png'></img>	go	1900.0	2.0	28.0	go	non-target	V	89,Middle Finger	71,Index Finger	750.0	850.0	1950.0	1900.0	1.0	850.0	1.0	n/a	go_stim
128893.1375802625	1351.86241974	n/a	1356	71	2750	1351.86241974	stim	stop-signal	644	1776890	0.0-25.28-1.28	beast_fmri_test	349	1774424,/,1775104,/,1775785,/,1776464,/,1777144,/,1777824,/	t,t,t,t,t,t	<img class = center src='/static/experiments/beast_fmri_test/images/V.png'></img>	89,71	2750.0	test	<img class = center src='/static/experiments/beast_fmri_test/images/redV.png'></img>	go	1900.0	2.0	28.0	go	non-target	V	89,Middle Finger	71,Index Finger	750.0	850.0	1950.0	1900.0	1.0	850.0	1.0	n/a	ITI
132161	500.0	n/a	-1	-1	500	0.0	fixation	poldrack-single-stim	645	1778806	0.0-25.29-0.29	beast_fmri_test	349	1778504,/	t	<div class = centerbox2><div class = fixation>+</div></div>	none	500.0	test	n/a	n/a	n/a	n/a	n/a	n/a	n/a	n/a	n/a	n/a	n/a	n/a	n/a	n/a	n/a	n/a	n/a	n/a	fixation
132072.67310574511	2750.0	n/a	1677	71	2750	89.326894255	stim	stop-signal	646	1781557	0.0-25.29-1.29	beast_fmri_test	349	1779182,/,1779862,/,1780543,/,1781221,/	t,t,t,t	<img class = center src='/static/experiments/beast_fmri_test/images/V.png'></img>	89,71	2750.0	test	<img class = center src='/static/experiments/beast_fmri_test/images/redV.png'></img>	go	1900.0	2.0	29.0	go	non-target	V	89,Middle Finger	71,Index Finger	750.0	850.0	1950.0	1900.0	1.0	850.0	1.0	n/a	go_stim
134822.67310574511	89.326894255	n/a	1677	71	2750	89.326894255	stim	stop-signal	646	1781557	0.0-25.29-1.29	beast_fmri_test	349	1779182,/,1779862,/,1780543,/,1781221,/	t,t,t,t	<img class = center src='/static/experiments/beast_fmri_test/images/V.png'></img>	89,71	2750.0	test	<img class = center src='/static/experiments/beast_fmri_test/images/redV.png'></img>	go	1900.0	2.0	29.0	go	non-target	V	89,Middle Finger	71,Index Finger	750.0	850.0	1950.0	1900.0	1.0	850.0	1.0	n/a	ITI
135561	500.0	n/a	-1	-1	500	0.0	fixation	poldrack-single-stim	647	1782206	0.0-25.30-0.30	beast_fmri_test	349	1781902,/	t	<div class = centerbox2><div class = fixation>+</div></div>	none	500.0	test	n/a	n/a	n/a	n/a	n/a	n/a	n/a	n/a	n/a	n/a	n/a	n/a	n/a	n/a	n/a	n/a	n/a	n/a	fixation
135312.46273203637	2750.0	n/a	2704	89	2750	249.537267964	stim	stop-signal	648	1784957	0.0-25.30-1.30	beast_fmri_test	349	1782580,/,1783261,/,1783940,/,1784620,/	t,t,t,t	<img class = center src='/static/experiments/beast_fmri_test/images/T.png'></img>	89,71	2750.0	test	<img class = center src='/static/experiments/beast_fmri_test/images/redT.png'></img>	go	1900.0	2.0	30.0	go	non-target	T	89,Middle Finger	71,Index Finger	750.0	850.0	1950.0	1900.0	0.0	850.0	0.0	n/a	go_stim
138062.46273203637	249.537267964	n/a	2704	89	2750	249.537267964	stim	stop-signal	648	1784957	0.0-25.30-1.30	beast_fmri_test	349	1782580,/,1783261,/,1783940,/,1784620,/	t,t,t,t	<img class = center src='/static/experiments/beast_fmri_test/images/T.png'></img>	89,71	2750.0	test	<img class = center src='/static/experiments/beast_fmri_test/images/redT.png'></img>	go	1900.0	2.0	30.0	go	non-target	T	89,Middle Finger	71,Index Finger	750.0	850.0	1950.0	1900.0	0.0	850.0	0.0	n/a	ITI
139123	500.0	n/a	-1	-1	500	0.0	fixation	poldrack-single-stim	649	1785768	0.0-25.31-0.31	beast_fmri_test	349	1785298,/	t	<div class = centerbox2><div class = fixation>+</div></div>	none	500.0	test	n/a	n/a	n/a	n/a	n/a	n/a	n/a	n/a	n/a	n/a	n/a	n/a	n/a	n/a	n/a	n/a	n/a	n/a	fixation
134315.92905137828	850.0	n/a	2008	71	2750	4809.07094862	stim	stop-signal	650	1788520	0.0-25.31-1.31	beast_fmri_test	349	1785979,/,1786658,/,1787339,/,1788019,/,1788698,/,1789378,/,1790057,/,1790737,/,1791417,/,1792095,/,1792775,/	t,t,t,t,t,t,t,t,t,t,t	<img class = center src='/static/experiments/beast_fmri_test/images/P.png'></img>	89,71	2750.0	test	<img class = center src='/static/experiments/beast_fmri_test/images/redP.png'></img>	stop	1900.0	2.0	31.0	stop	non-target	P	89,Middle Finger	71,Index Finger	750.0	850.0	1950.0	1900.0	0.0	850.0	n/a	0.0	go_stim
136215.92905137828	1900.0	n/a	2008	71	2750	4809.07094862	stim	stop-signal	650	1788520	0.0-25.31-1.31	beast_fmri_test	349	1785979,/,1786658,/,1787339,/,1788019,/,1788698,/,1789378,/,1790057,/,1790737,/,1791417,/,1792095,/,1792775,/	t,t,t,t,t,t,t,t,t,t,t	<img class = center src='/static/experiments/beast_fmri_test/images/P.png'></img>	89,71	2750.0	test	<img class = center src='/static/experiments/beast_fmri_test/images/redP.png'></img>	stop	1900.0	2.0	31.0	stop	non-target	P	89,Middle Finger	71,Index Finger	750.0	850.0	1950.0	1900.0	0.0	850.0	n/a	0.0	stop_stim
137065.92905137828	4809.07094862	n/a	2008	71	2750	4809.07094862	stim	stop-signal	650	1788520	0.0-25.31-1.31	beast_fmri_test	349	1785979,/,1786658,/,1787339,/,1788019,/,1788698,/,1789378,/,1790057,/,1790737,/,1791417,/,1792095,/,1792775,/	t,t,t,t,t,t,t,t,t,t,t	<img class = center src='/static/experiments/beast_fmri_test/images/P.png'></img>	89,71	2750.0	test	<img class = center src='/static/experiments/beast_fmri_test/images/redP.png'></img>	stop	1900.0	2.0	31.0	stop	non-target	P	89,Middle Finger	71,Index Finger	750.0	850.0	1950.0	1900.0	0.0	850.0	n/a	0.0	ITI
147249	500.0	n/a	-1	-1	500	0.0	fixation	poldrack-single-stim	651	1793894	0.0-25.32-0.32	beast_fmri_test	349	1793455,/	t	<div class = centerbox2><div class = fixation>+</div></div>	none	500.0	test	n/a	n/a	n/a	n/a	n/a	n/a	n/a	n/a	n/a	n/a	n/a	n/a	n/a	n/a	n/a	n/a	n/a	n/a	fixation
145836.65618212894	2750.0	n/a	1069	71	2750	1413.34381787	stim	stop-signal	652	1796645	0.0-25.32-1.32	beast_fmri_test	349	1794134,/,1794815,/,1795493,/,1796174,/,1796853,/,1797534,/	t,t,t,t,t,t	<img class = center src='/static/experiments/beast_fmri_test/images/B.png'></img>	89,71	2750.0	test	<img class = center src='/static/experiments/beast_fmri_test/images/redB.png'></img>	go	1950.0	2.0	32.0	go	non-target	B	89,Middle Finger	71,Index Finger	750.0	800.0	1950.0	1950.0	1.0	800.0	1.0	n/a	go_stim
148586.65618212894	1413.34381787	n/a	1069	71	2750	1413.34381787	stim	stop-signal	652	1796645	0.0-25.32-1.32	beast_fmri_test	349	1794134,/,1794815,/,1795493,/,1796174,/,1796853,/,1797534,/	t,t,t,t,t,t	<img class = center src='/static/experiments/beast_fmri_test/images/B.png'></img>	89,71	2750.0	test	<img class = center src='/static/experiments/beast_fmri_test/images/redB.png'></img>	go	1950.0	2.0	32.0	go	non-target	B	89,Middle Finger	71,Index Finger	750.0	800.0	1950.0	1950.0	1.0	800.0	1.0	n/a	ITI
151985	500.0	n/a	-1	-1	500	0.0	fixation	poldrack-single-stim	653	1798630	0.0-25.33-0.33	beast_fmri_test	349	1798214,/	t	<div class = centerbox2><div class = fixation>+</div></div>	none	500.0	test	n/a	n/a	n/a	n/a	n/a	n/a	n/a	n/a	n/a	n/a	n/a	n/a	n/a	n/a	n/a	n/a	n/a	n/a	fixation
150684.76471320144	2750.0	n/a	1276	89	2750	1301.2352868	stim	stop-signal	654	1801381	0.0-25.33-1.33	beast_fmri_test	349	1798893,/,1799573,/,1800252,/,1800933,/,1801610,/,1802291,/	t,t,t,t,t,t	<img class = center src='/static/experiments/beast_fmri_test/images/P.png'></img>	89,71	2750.0	test	<img class = center src='/static/experiments/beast_fmri_test/images/redP.png'></img>	go	2000.0	2.0	33.0	go	target	P	89,Middle Finger	71,Index Finger	750.0	800.0	2000.0	1950.0	1.0	750.0	1.0	n/a	go_stim
153434.76471320144	1301.2352868	n/a	1276	89	2750	1301.2352868	stim	stop-signal	654	1801381	0.0-25.33-1.33	beast_fmri_test	349	1798893,/,1799573,/,1800252,/,1800933,/,1801610,/,1802291,/	t,t,t,t,t,t	<img class = center src='/static/experiments/beast_fmri_test/images/P.png'></img>	89,71	2750.0	test	<img class = center src='/static/experiments/beast_fmri_test/images/redP.png'></img>	go	2000.0	2.0	33.0	go	target	P	89,Middle Finger	71,Index Finger	750.0	800.0	2000.0	1950.0	1.0	750.0	1.0	n/a	ITI
156610	500.0	n/a	-1	-1	500	0.0	fixation	poldrack-single-stim	655	1803255	0.0-25.34-0.34	beast_fmri_test	349	1802970,/	t	<div class = centerbox2><div class = fixation>+</div></div>	none	500.0	test	n/a	n/a	n/a	n/a	n/a	n/a	n/a	n/a	n/a	n/a	n/a	n/a	n/a	n/a	n/a	n/a	n/a	n/a	fixation
156180.38220222085	800.0	n/a	1286	71	2750	430.617797779	stim	stop-signal	656	1806006	0.0-25.34-1.34	beast_fmri_test	349	1803652,/,1804330,/,1805011,/,1805689,/,1806371,/	t,t,t,t,t	<img class = center src='/static/experiments/beast_fmri_test/images/V.png'></img>	89,71	2750.0	test	<img class = center src='/static/experiments/beast_fmri_test/images/redV.png'></img>	stop	1950.0	2.0	34.0	stop	non-target	V	89,Middle Finger	71,Index Finger	750.0	800.0	2000.0	1950.0	0.0	800.0	n/a	0.0	go_stim
158130.38220222085	1950.0	n/a	1286	71	2750	430.617797779	stim	stop-signal	656	1806006	0.0-25.34-1.34	beast_fmri_test	349	1803652,/,1804330,/,1805011,/,1805689,/,1806371,/	t,t,t,t,t	<img class = center src='/static/experiments/beast_fmri_test/images/V.png'></img>	89,71	2750.0	test	<img class = center src='/static/experiments/beast_fmri_test/images/redV.png'></img>	stop	1950.0	2.0	34.0	stop	non-target	V	89,Middle Finger	71,Index Finger	750.0	800.0	2000.0	1950.0	0.0	800.0	n/a	0.0	stop_stim
158930.38220222085	430.617797779	n/a	1286	71	2750	430.617797779	stim	stop-signal	656	1806006	0.0-25.34-1.34	beast_fmri_test	349	1803652,/,1804330,/,1805011,/,1805689,/,1806371,/	t,t,t,t,t	<img class = center src='/static/experiments/beast_fmri_test/images/V.png'></img>	89,71	2750.0	test	<img class = center src='/static/experiments/beast_fmri_test/images/redV.png'></img>	stop	1950.0	2.0	34.0	stop	non-target	V	89,Middle Finger	71,Index Finger	750.0	800.0	2000.0	1950.0	0.0	800.0	n/a	0.0	ITI
160359	500.0	n/a	-1	-1	500	0.0	fixation	poldrack-single-stim	657	1807004	0.0-25.35-0.35	beast_fmri_test	349	n/a	n/a	<div class = centerbox2><div class = fixation>+</div></div>	none	500.0	test	n/a	n/a	n/a	n/a	n/a	n/a	n/a	n/a	n/a	n/a	n/a	n/a	n/a	n/a	n/a	n/a	n/a	n/a	fixation
160173.17387397774	750.0	n/a	-1	-1	2750	188.826126022	stim	stop-signal	658	1809757	0.0-25.35-1.35	beast_fmri_test	349	1807048,/,1807730,/,1808409,/,1809089,/,1809768,/	t,t,t,t,t	<img class = center src='/static/experiments/beast_fmri_test/images/V.png'></img>	89,71	2750.0	test	<img class = center src='/static/experiments/beast_fmri_test/images/redV.png'></img>	stop	2000.0	2.0	35.0	stop	non-target	V	89,Middle Finger	71,Index Finger	750.0	750.0	2000.0	2000.0	0.0	750.0	n/a	1.0	go_stim
162173.17387397774	2000.0	n/a	-1	-1	2750	188.826126022	stim	stop-signal	658	1809757	0.0-25.35-1.35	beast_fmri_test	349	1807048,/,1807730,/,1808409,/,1809089,/,1809768,/	t,t,t,t,t	<img class = center src='/static/experiments/beast_fmri_test/images/V.png'></img>	89,71	2750.0	test	<img class = center src='/static/experiments/beast_fmri_test/images/redV.png'></img>	stop	2000.0	2.0	35.0	stop	non-target	V	89,Middle Finger	71,Index Finger	750.0	750.0	2000.0	2000.0	0.0	750.0	n/a	1.0	stop_stim
162923.17387397774	188.826126022	n/a	-1	-1	2750	188.826126022	stim	stop-signal	658	1809757	0.0-25.35-1.35	beast_fmri_test	349	1807048,/,1807730,/,1808409,/,1809089,/,1809768,/	t,t,t,t,t	<img class = center src='/static/experiments/beast_fmri_test/images/V.png'></img>	89,71	2750.0	test	<img class = center src='/static/experiments/beast_fmri_test/images/redV.png'></img>	stop	2000.0	2.0	35.0	stop	non-target	V	89,Middle Finger	71,Index Finger	750.0	750.0	2000.0	2000.0	0.0	750.0	n/a	1.0	ITI
163860	500.0	n/a	-1	-1	500	0.0	fixation	poldrack-single-stim	659	1810505	0.0-25.36-0.36	beast_fmri_test	349	1810448,/	t	<div class = centerbox2><div class = fixation>+</div></div>	none	500.0	test	n/a	n/a	n/a	n/a	n/a	n/a	n/a	n/a	n/a	n/a	n/a	n/a	n/a	n/a	n/a	n/a	n/a	n/a	fixation
162591.85345494305	800.0	n/a	-1	-1	2750	1270.14654506	stim	stop-signal	660	1813257	0.0-25.36-1.36	beast_fmri_test	349	1811128,/,1811807,/,1812488,/,1813166,/,1813847,/,1814525,/	t,t,t,t,t,t	<img class = center src='/static/experiments/beast_fmri_test/images/D.png'></img>	89,71	2750.0	test	<img class = center src='/static/experiments/beast_fmri_test/images/redD.png'></img>	stop	1950.0	2.0	36.0	stop	non-target	D	89,Middle Finger	71,Index Finger	750.0	800.0	2000.0	1950.0	0.0	800.0	n/a	1.0	go_stim
164541.85345494305	1950.0	n/a	-1	-1	2750	1270.14654506	stim	stop-signal	660	1813257	0.0-25.36-1.36	beast_fmri_test	349	1811128,/,1811807,/,1812488,/,1813166,/,1813847,/,1814525,/	t,t,t,t,t,t	<img class = center src='/static/experiments/beast_fmri_test/images/D.png'></img>	89,71	2750.0	test	<img class = center src='/static/experiments/beast_fmri_test/images/redD.png'></img>	stop	1950.0	2.0	36.0	stop	non-target	D	89,Middle Finger	71,Index Finger	750.0	800.0	2000.0	1950.0	0.0	800.0	n/a	1.0	stop_stim
165341.85345494305	1270.14654506	n/a	-1	-1	2750	1270.14654506	stim	stop-signal	660	1813257	0.0-25.36-1.36	beast_fmri_test	349	1811128,/,1811807,/,1812488,/,1813166,/,1813847,/,1814525,/	t,t,t,t,t,t	<img class = center src='/static/experiments/beast_fmri_test/images/D.png'></img>	89,71	2750.0	test	<img class = center src='/static/experiments/beast_fmri_test/images/redD.png'></img>	stop	1950.0	2.0	36.0	stop	non-target	D	89,Middle Finger	71,Index Finger	750.0	800.0	2000.0	1950.0	0.0	800.0	n/a	1.0	ITI
168440	500.0	n/a	-1	-1	500	0.0	fixation	poldrack-single-stim	661	1815085	0.0-25.37-0.37	beast_fmri_test	349	n/a	n/a	<div class = centerbox2><div class = fixation>+</div></div>	none	500.0	test	n/a	n/a	n/a	n/a	n/a	n/a	n/a	n/a	n/a	n/a	n/a	n/a	n/a	n/a	n/a	n/a	n/a	n/a	fixation
167908.78047207301	2750.0	n/a	1493	89	2750	532.219527927	stim	stop-signal	662	1817836	0.0-25.37-1.37	beast_fmri_test	349	1815206,/,1815884,/,1816566,/,1817245,/,1817925,/	t,t,t,t,t	<img class = center src='/static/experiments/beast_fmri_test/images/V.png'></img>	89,71	2750.0	test	<img class = center src='/static/experiments/beast_fmri_test/images/redV.png'></img>	go	2000.0	2.0	37.0	go	target	V	89,Middle Finger	71,Index Finger	750.0	850.0	2000.0	1950.0	1.0	750.0	1.0	n/a	go_stim
170658.78047207301	532.219527927	n/a	1493	89	2750	532.219527927	stim	stop-signal	662	1817836	0.0-25.37-1.37	beast_fmri_test	349	1815206,/,1815884,/,1816566,/,1817245,/,1817925,/	t,t,t,t,t	<img class = center src='/static/experiments/beast_fmri_test/images/V.png'></img>	89,71	2750.0	test	<img class = center src='/static/experiments/beast_fmri_test/images/redV.png'></img>	go	2000.0	2.0	37.0	go	target	V	89,Middle Finger	71,Index Finger	750.0	850.0	2000.0	1950.0	1.0	750.0	1.0	n/a	ITI
172286	500.0	n/a	-1	-1	500	0.0	fixation	poldrack-single-stim	663	1818931	0.0-25.38-0.38	beast_fmri_test	349	1818605,/	t	<div class = centerbox2><div class = fixation>+</div></div>	none	500.0	test	n/a	n/a	n/a	n/a	n/a	n/a	n/a	n/a	n/a	n/a	n/a	n/a	n/a	n/a	n/a	n/a	n/a	n/a	fixation
172268.61651422316	2750.0	n/a	1759	71	2750	19.3834857768	stim	stop-signal	664	1821683	0.0-25.38-1.38	beast_fmri_test	349	1819284,/,1819963,/,1820642,/,1821323,/	t,t,t,t	<img class = center src='/static/experiments/beast_fmri_test/images/T.png'></img>	89,71	2750.0	test	<img class = center src='/static/experiments/beast_fmri_test/images/redT.png'></img>	go	1900.0	2.0	38.0	go	non-target	T	89,Middle Finger	71,Index Finger	750.0	850.0	2000.0	1900.0	1.0	850.0	1.0	n/a	go_stim
175018.61651422316	19.3834857768	n/a	1759	71	2750	19.3834857768	stim	stop-signal	664	1821683	0.0-25.38-1.38	beast_fmri_test	349	1819284,/,1819963,/,1820642,/,1821323,/	t,t,t,t	<img class = center src='/static/experiments/beast_fmri_test/images/T.png'></img>	89,71	2750.0	test	<img class = center src='/static/experiments/beast_fmri_test/images/redT.png'></img>	go	1900.0	2.0	38.0	go	non-target	T	89,Middle Finger	71,Index Finger	750.0	850.0	2000.0	1900.0	1.0	850.0	1.0	n/a	ITI
175617	500.0	n/a	-1	-1	500	0.0	fixation	poldrack-single-stim	665	1822262	0.0-25.39-0.39	beast_fmri_test	349	1822003,/	t	<div class = centerbox2><div class = fixation>+</div></div>	none	500.0	test	n/a	n/a	n/a	n/a	n/a	n/a	n/a	n/a	n/a	n/a	n/a	n/a	n/a	n/a	n/a	n/a	n/a	n/a	fixation
175238.60896287346	2750.0	n/a	-1	-1	2750	381.391037127	stim	stop-signal	666	1825015	0.0-25.39-1.39	beast_fmri_test	349	1822683,/,1823361,/,1824041,/,1824721,/	t,t,t,t	<img class = center src='/static/experiments/beast_fmri_test/images/D.png'></img>	89,71	2750.0	test	<img class = center src='/static/experiments/beast_fmri_test/images/redD.png'></img>	go	1900.0	2.0	39.0	go	non-target	D	89,Middle Finger	71,Index Finger	750.0	850.0	2000.0	1900.0	0.0	850.0	0.0	n/a	go_stim
177988.60896287346	381.391037127	n/a	-1	-1	2750	381.391037127	stim	stop-signal	666	1825015	0.0-25.39-1.39	beast_fmri_test	349	1822683,/,1823361,/,1824041,/,1824721,/	t,t,t,t	<img class = center src='/static/experiments/beast_fmri_test/images/D.png'></img>	89,71	2750.0	test	<img class = center src='/static/experiments/beast_fmri_test/images/redD.png'></img>	go	1900.0	2.0	39.0	go	non-target	D	89,Middle Finger	71,Index Finger	750.0	850.0	2000.0	1900.0	0.0	850.0	0.0	n/a	ITI
179323	500.0	n/a	-1	-1	500	0.0	fixation	poldrack-single-stim	667	1825968	0.0-25.40-0.40	beast_fmri_test	349	1825467,/	t	<div class = centerbox2><div class = fixation>+</div></div>	none	500.0	test	n/a	n/a	n/a	n/a	n/a	n/a	n/a	n/a	n/a	n/a	n/a	n/a	n/a	n/a	n/a	n/a	n/a	n/a	fixation
179315.2640766541	2750.0	n/a	1958	89	2750	10.735923346	stim	stop-signal	668	1828721	0.0-25.40-1.40	beast_fmri_test	349	1826080,/,1826761,/,1827439,/,1828120,/	t,t,t,t	<img class = center src='/static/experiments/beast_fmri_test/images/T.png'></img>	89,71	2750.0	test	<img class = center src='/static/experiments/beast_fmri_test/images/redT.png'></img>	go	2000.0	2.0	40.0	go	target	T	89,Middle Finger	71,Index Finger	750.0	850.0	2000.0	1900.0	1.0	750.0	1.0	n/a	go_stim
182065.2640766541	10.735923346	n/a	1958	89	2750	10.735923346	stim	stop-signal	668	1828721	0.0-25.40-1.40	beast_fmri_test	349	1826080,/,1826761,/,1827439,/,1828120,/	t,t,t,t	<img class = center src='/static/experiments/beast_fmri_test/images/T.png'></img>	89,71	2750.0	test	<img class = center src='/static/experiments/beast_fmri_test/images/redT.png'></img>	go	2000.0	2.0	40.0	go	target	T	89,Middle Finger	71,Index Finger	750.0	850.0	2000.0	1900.0	1.0	750.0	1.0	n/a	ITI
182647	500.0	n/a	-1	-1	500	0.0	fixation	poldrack-single-stim	669	1829292	0.0-25.41-0.41	beast_fmri_test	349	1828799,/	t	<div class = centerbox2><div class = fixation>+</div></div>	none	500.0	test	n/a	n/a	n/a	n/a	n/a	n/a	n/a	n/a	n/a	n/a	n/a	n/a	n/a	n/a	n/a	n/a	n/a	n/a	fixation
182148.27798798098	2750.0	n/a	1982	89	2750	499.722012019	stim	stop-signal	670	1832043	0.0-25.41-1.41	beast_fmri_test	349	1829478,/,1830160,/,1830838,/,1831518,/,1832197,/	t,t,t,t,t	<img class = center src='/static/experiments/beast_fmri_test/images/D.png'></img>	89,71	2750.0	test	<img class = center src='/static/experiments/beast_fmri_test/images/redD.png'></img>	go	2000.0	2.0	41.0	go	target	D	89,Middle Finger	71,Index Finger	750.0	850.0	2000.0	1900.0	1.0	750.0	1.0	n/a	go_stim
184898.27798798098	499.722012019	n/a	1982	89	2750	499.722012019	stim	stop-signal	670	1832043	0.0-25.41-1.41	beast_fmri_test	349	1829478,/,1830160,/,1830838,/,1831518,/,1832197,/	t,t,t,t,t	<img class = center src='/static/experiments/beast_fmri_test/images/D.png'></img>	89,71	2750.0	test	<img class = center src='/static/experiments/beast_fmri_test/images/redD.png'></img>	go	2000.0	2.0	41.0	go	target	D	89,Middle Finger	71,Index Finger	750.0	850.0	2000.0	1900.0	1.0	750.0	1.0	n/a	ITI
186460	500.0	n/a	-1	-1	500	0.0	fixation	poldrack-single-stim	671	1833105	0.0-25.42-0.42	beast_fmri_test	349	1832879,/	t	<div class = centerbox2><div class = fixation>+</div></div>	none	500.0	test	n/a	n/a	n/a	n/a	n/a	n/a	n/a	n/a	n/a	n/a	n/a	n/a	n/a	n/a	n/a	n/a	n/a	n/a	fixation
186302.76381849335	2750.0	n/a	1791	71	2750	159.236181507	stim	stop-signal	672	1835857	0.0-25.42-1.42	beast_fmri_test	349	1833557,/,1834238,/,1834916,/,1835596,/	t,t,t,t	<img class = center src='/static/experiments/beast_fmri_test/images/B.png'></img>	89,71	2750.0	test	<img class = center src='/static/experiments/beast_fmri_test/images/redB.png'></img>	go	1900.0	2.0	42.0	go	non-target	B	89,Middle Finger	71,Index Finger	750.0	850.0	2000.0	1900.0	1.0	850.0	1.0	n/a	go_stim
189052.76381849335	159.236181507	n/a	1791	71	2750	159.236181507	stim	stop-signal	672	1835857	0.0-25.42-1.42	beast_fmri_test	349	1833557,/,1834238,/,1834916,/,1835596,/	t,t,t,t	<img class = center src='/static/experiments/beast_fmri_test/images/B.png'></img>	89,71	2750.0	test	<img class = center src='/static/experiments/beast_fmri_test/images/redB.png'></img>	go	1900.0	2.0	42.0	go	non-target	B	89,Middle Finger	71,Index Finger	750.0	850.0	2000.0	1900.0	1.0	850.0	1.0	n/a	ITI
189939	500.0	n/a	-1	-1	500	0.0	fixation	poldrack-single-stim	673	1836584	0.0-25.43-0.43	beast_fmri_test	349	1836276,/	t	<div class = centerbox2><div class = fixation>+</div></div>	none	500.0	test	n/a	n/a	n/a	n/a	n/a	n/a	n/a	n/a	n/a	n/a	n/a	n/a	n/a	n/a	n/a	n/a	n/a	n/a	fixation
188583.50282701687	2750.0	n/a	1553	71	2750	1356.49717298	stim	stop-signal	674	1839335	0.0-25.43-1.43	beast_fmri_test	349	1836957,/,1837635,/,1838316,/,1838994,/,1839676,/,1840355,/	t,t,t,t,t,t	<img class = center src='/static/experiments/beast_fmri_test/images/B.png'></img>	89,71	2750.0	test	<img class = center src='/static/experiments/beast_fmri_test/images/redB.png'></img>	go	1900.0	2.0	43.0	go	non-target	B	89,Middle Finger	71,Index Finger	750.0	850.0	2000.0	1900.0	1.0	850.0	1.0	n/a	go_stim
191333.50282701687	1356.49717298	n/a	1553	71	2750	1356.49717298	stim	stop-signal	674	1839335	0.0-25.43-1.43	beast_fmri_test	349	1836957,/,1837635,/,1838316,/,1838994,/,1839676,/,1840355,/	t,t,t,t,t,t	<img class = center src='/static/experiments/beast_fmri_test/images/B.png'></img>	89,71	2750.0	test	<img class = center src='/static/experiments/beast_fmri_test/images/redB.png'></img>	go	1900.0	2.0	43.0	go	non-target	B	89,Middle Finger	71,Index Finger	750.0	850.0	2000.0	1900.0	1.0	850.0	1.0	n/a	ITI
194609	500.0	n/a	-1	-1	500	0.0	fixation	poldrack-single-stim	675	1841254	0.0-25.44-0.44	beast_fmri_test	349	1841035,/	t	<div class = centerbox2><div class = fixation>+</div></div>	none	500.0	test	n/a	n/a	n/a	n/a	n/a	n/a	n/a	n/a	n/a	n/a	n/a	n/a	n/a	n/a	n/a	n/a	n/a	n/a	fixation
193945.93465628428	850.0	n/a	1218	71	2750	665.065343716	stim	stop-signal	676	1844006	0.0-25.44-1.44	beast_fmri_test	349	1841715,/,1842393,/,1843073,/,1843753,/,1844433,/	t,t,t,t,t	<img class = center src='/static/experiments/beast_fmri_test/images/D.png'></img>	89,71	2750.0	test	<img class = center src='/static/experiments/beast_fmri_test/images/redD.png'></img>	stop	1900.0	2.0	44.0	stop	non-target	D	89,Middle Finger	71,Index Finger	750.0	850.0	2000.0	1900.0	0.0	850.0	n/a	0.0	go_stim
195845.93465628428	1900.0	n/a	1218	71	2750	665.065343716	stim	stop-signal	676	1844006	0.0-25.44-1.44	beast_fmri_test	349	1841715,/,1842393,/,1843073,/,1843753,/,1844433,/	t,t,t,t,t	<img class = center src='/static/experiments/beast_fmri_test/images/D.png'></img>	89,71	2750.0	test	<img class = center src='/static/experiments/beast_fmri_test/images/redD.png'></img>	stop	1900.0	2.0	44.0	stop	non-target	D	89,Middle Finger	71,Index Finger	750.0	850.0	2000.0	1900.0	0.0	850.0	n/a	0.0	stop_stim
196695.93465628428	665.065343716	n/a	1218	71	2750	665.065343716	stim	stop-signal	676	1844006	0.0-25.44-1.44	beast_fmri_test	349	1841715,/,1842393,/,1843073,/,1843753,/,1844433,/	t,t,t,t,t	<img class = center src='/static/experiments/beast_fmri_test/images/D.png'></img>	89,71	2750.0	test	<img class = center src='/static/experiments/beast_fmri_test/images/redD.png'></img>	stop	1900.0	2.0	44.0	stop	non-target	D	89,Middle Finger	71,Index Finger	750.0	850.0	2000.0	1900.0	0.0	850.0	n/a	0.0	ITI
198589	500.0	n/a	-1	-1	500	0.0	fixation	poldrack-single-stim	677	1845234	0.0-25.45-0.45	beast_fmri_test	349	1845112,/	t	<div class = centerbox2><div class = fixation>+</div></div>	none	500.0	test	n/a	n/a	n/a	n/a	n/a	n/a	n/a	n/a	n/a	n/a	n/a	n/a	n/a	n/a	n/a	n/a	n/a	n/a	fixation
195888.38118257374	2750.0	n/a	2224	71	2750	2701.61881743	stim	stop-signal	678	1847985	0.0-25.45-1.45	beast_fmri_test	349	1845791,/,1846471,/,1847151,/,1847830,/,1848511,/,1849189,/,1849869,/,1850550,/	t,t,t,t,t,t,t,t	<img class = center src='/static/experiments/beast_fmri_test/images/D.png'></img>	89,71	2750.0	test	<img class = center src='/static/experiments/beast_fmri_test/images/redD.png'></img>	go	1950.0	2.0	45.0	go	non-target	D	89,Middle Finger	71,Index Finger	750.0	800.0	2000.0	1950.0	1.0	800.0	1.0	n/a	go_stim
198638.38118257374	2701.61881743	n/a	2224	71	2750	2701.61881743	stim	stop-signal	678	1847985	0.0-25.45-1.45	beast_fmri_test	349	1845791,/,1846471,/,1847151,/,1847830,/,1848511,/,1849189,/,1849869,/,1850550,/	t,t,t,t,t,t,t,t	<img class = center src='/static/experiments/beast_fmri_test/images/D.png'></img>	89,71	2750.0	test	<img class = center src='/static/experiments/beast_fmri_test/images/redD.png'></img>	go	1950.0	2.0	45.0	go	non-target	D	89,Middle Finger	71,Index Finger	750.0	800.0	2000.0	1950.0	1.0	800.0	1.0	n/a	ITI
204618	500.0	n/a	-1	-1	500	0.0	fixation	poldrack-single-stim	679	1851263	0.0-25.46-0.46	beast_fmri_test	349	1851229,/	t	<div class = centerbox2><div class = fixation>+</div></div>	none	500.0	test	n/a	n/a	n/a	n/a	n/a	n/a	n/a	n/a	n/a	n/a	n/a	n/a	n/a	n/a	n/a	n/a	n/a	n/a	fixation
204559.1918059648	2750.0	n/a	1070	71	2750	60.8081940351	stim	stop-signal	680	1854015	0.0-25.46-1.46	beast_fmri_test	349	1851909,/,1852589,/,1853268,/,1853947,/	t,t,t,t	<img class = center src='/static/experiments/beast_fmri_test/images/B.png'></img>	89,71	2750.0	test	<img class = center src='/static/experiments/beast_fmri_test/images/redB.png'></img>	go	1950.0	2.0	46.0	go	non-target	B	89,Middle Finger	71,Index Finger	750.0	800.0	2000.0	1950.0	1.0	800.0	1.0	n/a	go_stim
207309.1918059648	60.8081940351	n/a	1070	71	2750	60.8081940351	stim	stop-signal	680	1854015	0.0-25.46-1.46	beast_fmri_test	349	1851909,/,1852589,/,1853268,/,1853947,/	t,t,t,t	<img class = center src='/static/experiments/beast_fmri_test/images/B.png'></img>	89,71	2750.0	test	<img class = center src='/static/experiments/beast_fmri_test/images/redB.png'></img>	go	1950.0	2.0	46.0	go	non-target	B	89,Middle Finger	71,Index Finger	750.0	800.0	2000.0	1950.0	1.0	800.0	1.0	n/a	ITI
222495	15000.0	n/a	-1	-1	15000	0.0	practice-no-stop-feedback	poldrack-single-stim	681	1869140	0.0-26.0	beast_fmri_test	349	1854629,/,1855307,/,1855987,/,1856666,/,1857346,/,1858025,/,1858706,/,1859385,/,1860065,/,1860745,/,1861424,/,1862105,/,1862785,/,1863465,/,1864143,/,1864824,/,1865502,/,1866183,/,1866861,/,1867541,/,1868221,/,1868902,/	t,t,t,t,t,t,t,t,t,t,t,t,t,t,t,t,t,t,t,t,t,t	"<div class = ""centerbox""><p class = ""block-text"">Your delay is 3 trials.</p><p class = block-text>Please wait for the scanner to start the block</p></div>"	77	15000.0	n/a	n/a	n/a	n/a	n/a	n/a	n/a	n/a	n/a	n/a	n/a	n/a	n/a	n/a	n/a	n/a	n/a	n/a	n/a	practice-no-stop-feedback
222998	500.0	n/a	-1	-1	500	0.0	fixation	poldrack-single-stim	682	1869643	0.0-27.0-0.0	beast_fmri_test	349	1869581,/	t	<div class = centerbox2><div class = fixation>+</div></div>	none	500.0	test	n/a	n/a	n/a	n/a	n/a	n/a	n/a	n/a	n/a	n/a	n/a	n/a	n/a	n/a	n/a	n/a	n/a	n/a	fixation
222604.45283005456	2750.0	n/a	1277	71	2750	394.547169945	stim	stop-signal	683	1872394	0.0-27.0-1.0	beast_fmri_test	349	1870261,/,1870939,/,1871619,/,1872300,/	t,t,t,t	<img class = center src='/static/experiments/beast_fmri_test/images/T.png'></img>	89,71	2750.0	test	<img class = center src='/static/experiments/beast_fmri_test/images/redT.png'></img>	go	-1.0	3.0	0.0	go	temp-non-target	T	89,Middle Finger	71,Index Finger	750.0	800.0	2000.0	1950.0	0.0	n/a	n/a	n/a	go_stim
225354.45283005456	394.547169945	n/a	1277	71	2750	394.547169945	stim	stop-signal	683	1872394	0.0-27.0-1.0	beast_fmri_test	349	1870261,/,1870939,/,1871619,/,1872300,/	t,t,t,t	<img class = center src='/static/experiments/beast_fmri_test/images/T.png'></img>	89,71	2750.0	test	<img class = center src='/static/experiments/beast_fmri_test/images/redT.png'></img>	go	-1.0	3.0	0.0	go	temp-non-target	T	89,Middle Finger	71,Index Finger	750.0	800.0	2000.0	1950.0	0.0	n/a	n/a	n/a	ITI
226718	500.0	n/a	-1	-1	500	0.0	fixation	poldrack-single-stim	684	1873363	0.0-27.1-0.1	beast_fmri_test	349	1872980,/	t	<div class = centerbox2><div class = fixation>+</div></div>	none	500.0	test	n/a	n/a	n/a	n/a	n/a	n/a	n/a	n/a	n/a	n/a	n/a	n/a	n/a	n/a	n/a	n/a	n/a	n/a	fixation
225568.46340758214	2750.0	n/a	1326	71	2750	1150.53659242	stim	stop-signal	685	1876114	0.0-27.1-1.1	beast_fmri_test	349	1873660,/,1874339,/,1875017,/,1875697,/,1876378,/,1877056,/	t,t,t,t,t,t	<img class = center src='/static/experiments/beast_fmri_test/images/B.png'></img>	89,71	2750.0	test	<img class = center src='/static/experiments/beast_fmri_test/images/redB.png'></img>	go	-1.0	3.0	1.0	go	temp-non-target	B	89,Middle Finger	71,Index Finger	750.0	800.0	2000.0	1950.0	0.0	n/a	n/a	n/a	go_stim
228318.46340758214	1150.53659242	n/a	1326	71	2750	1150.53659242	stim	stop-signal	685	1876114	0.0-27.1-1.1	beast_fmri_test	349	1873660,/,1874339,/,1875017,/,1875697,/,1876378,/,1877056,/	t,t,t,t,t,t	<img class = center src='/static/experiments/beast_fmri_test/images/B.png'></img>	89,71	2750.0	test	<img class = center src='/static/experiments/beast_fmri_test/images/redB.png'></img>	go	-1.0	3.0	1.0	go	temp-non-target	B	89,Middle Finger	71,Index Finger	750.0	800.0	2000.0	1950.0	0.0	n/a	n/a	n/a	ITI
231191	500.0	n/a	-1	-1	500	0.0	fixation	poldrack-single-stim	686	1877836	0.0-27.2-0.2	beast_fmri_test	349	1877737,/	t	<div class = centerbox2><div class = fixation>+</div></div>	none	500.0	test	n/a	n/a	n/a	n/a	n/a	n/a	n/a	n/a	n/a	n/a	n/a	n/a	n/a	n/a	n/a	n/a	n/a	n/a	fixation
230316.65714594838	2750.0	n/a	813	71	2750	877.342854052	stim	stop-signal	687	1880589	0.0-27.2-1.2	beast_fmri_test	349	1878416,/,1879097,/,1879775,/,1880455,/,1881134,/	t,t,t,t,t	<img class = center src='/static/experiments/beast_fmri_test/images/B.png'></img>	89,71	2750.0	test	<img class = center src='/static/experiments/beast_fmri_test/images/redB.png'></img>	go	-1.0	3.0	2.0	go	temp-non-target	B	89,Middle Finger	71,Index Finger	750.0	800.0	2000.0	1950.0	0.0	n/a	n/a	n/a	go_stim
233066.65714594838	877.342854052	n/a	813	71	2750	877.342854052	stim	stop-signal	687	1880589	0.0-27.2-1.2	beast_fmri_test	349	1878416,/,1879097,/,1879775,/,1880455,/,1881134,/	t,t,t,t,t	<img class = center src='/static/experiments/beast_fmri_test/images/B.png'></img>	89,71	2750.0	test	<img class = center src='/static/experiments/beast_fmri_test/images/redB.png'></img>	go	-1.0	3.0	2.0	go	temp-non-target	B	89,Middle Finger	71,Index Finger	750.0	800.0	2000.0	1950.0	0.0	n/a	n/a	n/a	ITI
235394	500.0	n/a	-1	-1	500	0.0	fixation	poldrack-single-stim	688	1882039	0.0-27.3-0.3	beast_fmri_test	349	1881816,/	t	<div class = centerbox2><div class = fixation>+</div></div>	none	500.0	test	n/a	n/a	n/a	n/a	n/a	n/a	n/a	n/a	n/a	n/a	n/a	n/a	n/a	n/a	n/a	n/a	n/a	n/a	fixation
234781.81868508295	2750.0	n/a	1021	71	2750	614.181314917	stim	stop-signal	689	1884791	0.0-27.3-1.3	beast_fmri_test	349	1882495,/,1883173,/,1883854,/,1884534,/,1885213,/	t,t,t,t,t	<img class = center src='/static/experiments/beast_fmri_test/images/D.png'></img>	89,71	2750.0	test	<img class = center src='/static/experiments/beast_fmri_test/images/redD.png'></img>	go	1950.0	3.0	3.0	go	non-target	D	89,Middle Finger	71,Index Finger	750.0	800.0	2000.0	1950.0	1.0	800.0	1.0	n/a	go_stim
237531.81868508295	614.181314917	n/a	1021	71	2750	614.181314917	stim	stop-signal	689	1884791	0.0-27.3-1.3	beast_fmri_test	349	1882495,/,1883173,/,1883854,/,1884534,/,1885213,/	t,t,t,t,t	<img class = center src='/static/experiments/beast_fmri_test/images/D.png'></img>	89,71	2750.0	test	<img class = center src='/static/experiments/beast_fmri_test/images/redD.png'></img>	go	1950.0	3.0	3.0	go	non-target	D	89,Middle Finger	71,Index Finger	750.0	800.0	2000.0	1950.0	1.0	800.0	1.0	n/a	ITI
239336	500.0	n/a	-1	-1	500	0.0	fixation	poldrack-single-stim	690	1885981	0.0-27.4-0.4	beast_fmri_test	349	1885892,/	t	<div class = centerbox2><div class = fixation>+</div></div>	none	500.0	test	n/a	n/a	n/a	n/a	n/a	n/a	n/a	n/a	n/a	n/a	n/a	n/a	n/a	n/a	n/a	n/a	n/a	n/a	fixation
238598.43167104921	800.0	n/a	1622	71	2750	739.568328951	stim	stop-signal	691	1888733	0.0-27.4-1.4	beast_fmri_test	349	1886573,/,1887253,/,1887932,/,1888612,/,1889292,/	t,t,t,t,t	<img class = center src='/static/experiments/beast_fmri_test/images/D.png'></img>	89,71	2750.0	test	<img class = center src='/static/experiments/beast_fmri_test/images/redD.png'></img>	stop	1950.0	3.0	4.0	stop	non-target	D	89,Middle Finger	71,Index Finger	750.0	800.0	2000.0	1950.0	0.0	800.0	n/a	0.0	go_stim
240548.43167104921	1950.0	n/a	1622	71	2750	739.568328951	stim	stop-signal	691	1888733	0.0-27.4-1.4	beast_fmri_test	349	1886573,/,1887253,/,1887932,/,1888612,/,1889292,/	t,t,t,t,t	<img class = center src='/static/experiments/beast_fmri_test/images/D.png'></img>	89,71	2750.0	test	<img class = center src='/static/experiments/beast_fmri_test/images/redD.png'></img>	stop	1950.0	3.0	4.0	stop	non-target	D	89,Middle Finger	71,Index Finger	750.0	800.0	2000.0	1950.0	0.0	800.0	n/a	0.0	stop_stim
241348.43167104921	739.568328951	n/a	1622	71	2750	739.568328951	stim	stop-signal	691	1888733	0.0-27.4-1.4	beast_fmri_test	349	1886573,/,1887253,/,1887932,/,1888612,/,1889292,/	t,t,t,t,t	<img class = center src='/static/experiments/beast_fmri_test/images/D.png'></img>	89,71	2750.0	test	<img class = center src='/static/experiments/beast_fmri_test/images/redD.png'></img>	stop	1950.0	3.0	4.0	stop	non-target	D	89,Middle Finger	71,Index Finger	750.0	800.0	2000.0	1950.0	0.0	800.0	n/a	0.0	ITI
243401	500.0	n/a	-1	-1	500	0.0	fixation	poldrack-single-stim	692	1890046	0.0-27.5-0.5	beast_fmri_test	349	1889970,/	t	<div class = centerbox2><div class = fixation>+</div></div>	none	500.0	test	n/a	n/a	n/a	n/a	n/a	n/a	n/a	n/a	n/a	n/a	n/a	n/a	n/a	n/a	n/a	n/a	n/a	n/a	fixation
242194.30976011069	2750.0	n/a	2079	71	2750	1208.69023989	stim	stop-signal	693	1892798	0.0-27.5-1.5	beast_fmri_test	349	1890652,/,1891330,/,1892011,/,1892690,/,1893371,/	t,t,t,t,t	<img class = center src='/static/experiments/beast_fmri_test/images/T.png'></img>	89,71	2750.0	test	<img class = center src='/static/experiments/beast_fmri_test/images/redT.png'></img>	go	2000.0	3.0	5.0	go	non-target	T	89,Middle Finger	71,Index Finger	750.0	750.0	2000.0	2000.0	1.0	750.0	1.0	n/a	go_stim
244944.30976011069	1208.69023989	n/a	2079	71	2750	1208.69023989	stim	stop-signal	693	1892798	0.0-27.5-1.5	beast_fmri_test	349	1890652,/,1891330,/,1892011,/,1892690,/,1893371,/	t,t,t,t,t	<img class = center src='/static/experiments/beast_fmri_test/images/T.png'></img>	89,71	2750.0	test	<img class = center src='/static/experiments/beast_fmri_test/images/redT.png'></img>	go	2000.0	3.0	5.0	go	non-target	T	89,Middle Finger	71,Index Finger	750.0	750.0	2000.0	2000.0	1.0	750.0	1.0	n/a	ITI
247935	500.0	n/a	-1	-1	500	0.0	fixation	poldrack-single-stim	694	1894580	0.0-27.6-0.6	beast_fmri_test	349	1894078,/	t	<div class = centerbox2><div class = fixation>+</div></div>	none	500.0	test	n/a	n/a	n/a	n/a	n/a	n/a	n/a	n/a	n/a	n/a	n/a	n/a	n/a	n/a	n/a	n/a	n/a	n/a	fixation
245897.18965095747	2750.0	n/a	1208	71	2750	2039.81034904	stim	stop-signal	695	1897332	0.0-27.6-1.6	beast_fmri_test	349	1894729,/,1895409,/,1896088,/,1896769,/,1897448,/,1898128,/,1898807,/	t,t,t,t,t,t,t	<img class = center src='/static/experiments/beast_fmri_test/images/P.png'></img>	89,71	2750.0	test	<img class = center src='/static/experiments/beast_fmri_test/images/redP.png'></img>	go	2000.0	3.0	6.0	go	non-target	P	89,Middle Finger	71,Index Finger	750.0	750.0	2000.0	2000.0	1.0	750.0	1.0	n/a	go_stim
248647.18965095747	2039.81034904	n/a	1208	71	2750	2039.81034904	stim	stop-signal	695	1897332	0.0-27.6-1.6	beast_fmri_test	349	1894729,/,1895409,/,1896088,/,1896769,/,1897448,/,1898128,/,1898807,/	t,t,t,t,t,t,t	<img class = center src='/static/experiments/beast_fmri_test/images/P.png'></img>	89,71	2750.0	test	<img class = center src='/static/experiments/beast_fmri_test/images/redP.png'></img>	go	2000.0	3.0	6.0	go	non-target	P	89,Middle Finger	71,Index Finger	750.0	750.0	2000.0	2000.0	1.0	750.0	1.0	n/a	ITI
253295	500.0	n/a	-1	-1	500	0.0	fixation	poldrack-single-stim	696	1899940	0.0-27.7-0.7	beast_fmri_test	349	1899487,/	t	<div class = centerbox2><div class = fixation>+</div></div>	none	500.0	test	n/a	n/a	n/a	n/a	n/a	n/a	n/a	n/a	n/a	n/a	n/a	n/a	n/a	n/a	n/a	n/a	n/a	n/a	fixation
251478.04162366665	2750.0	n/a	1734	71	2750	1817.95837633	stim	stop-signal	697	1902691	0.0-27.7-1.7	beast_fmri_test	349	1900166,/,1900847,/,1901526,/,1902206,/,1902886,/,1903565,/,1904245,/	t,t,t,t,t,t,t	<img class = center src='/static/experiments/beast_fmri_test/images/B.png'></img>	89,71	2750.0	test	<img class = center src='/static/experiments/beast_fmri_test/images/redB.png'></img>	go	2000.0	3.0	7.0	go	non-target	B	89,Middle Finger	71,Index Finger	750.0	750.0	2000.0	2000.0	1.0	750.0	1.0	n/a	go_stim
254228.04162366665	1817.95837633	n/a	1734	71	2750	1817.95837633	stim	stop-signal	697	1902691	0.0-27.7-1.7	beast_fmri_test	349	1900166,/,1900847,/,1901526,/,1902206,/,1902886,/,1903565,/,1904245,/	t,t,t,t,t,t,t	<img class = center src='/static/experiments/beast_fmri_test/images/B.png'></img>	89,71	2750.0	test	<img class = center src='/static/experiments/beast_fmri_test/images/redB.png'></img>	go	2000.0	3.0	7.0	go	non-target	B	89,Middle Finger	71,Index Finger	750.0	750.0	2000.0	2000.0	1.0	750.0	1.0	n/a	ITI
258434	500.0	n/a	-1	-1	500	0.0	fixation	poldrack-single-stim	698	1905079	0.0-27.8-0.8	beast_fmri_test	349	1904925,/	t	<div class = centerbox2><div class = fixation>+</div></div>	none	500.0	test	n/a	n/a	n/a	n/a	n/a	n/a	n/a	n/a	n/a	n/a	n/a	n/a	n/a	n/a	n/a	n/a	n/a	n/a	fixation
257733.78365768935	2750.0	n/a	1580	89	2750	702.216342311	stim	stop-signal	699	1907831	0.0-27.8-1.8	beast_fmri_test	349	1905603,/,1906283,/,1906964,/,1907642,/,1908323,/	t,t,t,t,t	<img class = center src='/static/experiments/beast_fmri_test/images/T.png'></img>	89,71	2750.0	test	<img class = center src='/static/experiments/beast_fmri_test/images/redT.png'></img>	go	2000.0	3.0	8.0	go	target	T	89,Middle Finger	71,Index Finger	750.0	750.0	2000.0	2000.0	1.0	750.0	1.0	n/a	go_stim
260483.78365768935	702.216342311	n/a	1580	89	2750	702.216342311	stim	stop-signal	699	1907831	0.0-27.8-1.8	beast_fmri_test	349	1905603,/,1906283,/,1906964,/,1907642,/,1908323,/	t,t,t,t,t	<img class = center src='/static/experiments/beast_fmri_test/images/T.png'></img>	89,71	2750.0	test	<img class = center src='/static/experiments/beast_fmri_test/images/redT.png'></img>	go	2000.0	3.0	8.0	go	target	T	89,Middle Finger	71,Index Finger	750.0	750.0	2000.0	2000.0	1.0	750.0	1.0	n/a	ITI
262473	500.0	n/a	-1	-1	500	0.0	fixation	poldrack-single-stim	700	1909118	0.0-27.9-0.9	beast_fmri_test	349	1909002,/	t	<div class = centerbox2><div class = fixation>+</div></div>	none	500.0	test	n/a	n/a	n/a	n/a	n/a	n/a	n/a	n/a	n/a	n/a	n/a	n/a	n/a	n/a	n/a	n/a	n/a	n/a	fixation
261981.26041569514	2750.0	n/a	874	89	2750	493.739584305	stim	stop-signal	701	1911870	0.0-27.9-1.9	beast_fmri_test	349	1909683,/,1910361,/,1911041,/,1911721,/	t,t,t,t	<img class = center src='/static/experiments/beast_fmri_test/images/P.png'></img>	89,71	2750.0	test	<img class = center src='/static/experiments/beast_fmri_test/images/redP.png'></img>	go	2000.0	3.0	9.0	go	target	P	89,Middle Finger	71,Index Finger	750.0	750.0	2000.0	2000.0	1.0	750.0	1.0	n/a	go_stim
264731.26041569514	493.739584305	n/a	874	89	2750	493.739584305	stim	stop-signal	701	1911870	0.0-27.9-1.9	beast_fmri_test	349	1909683,/,1910361,/,1911041,/,1911721,/	t,t,t,t	<img class = center src='/static/experiments/beast_fmri_test/images/P.png'></img>	89,71	2750.0	test	<img class = center src='/static/experiments/beast_fmri_test/images/redP.png'></img>	go	2000.0	3.0	9.0	go	target	P	89,Middle Finger	71,Index Finger	750.0	750.0	2000.0	2000.0	1.0	750.0	1.0	n/a	ITI
266297	500.0	n/a	-1	-1	500	0.0	fixation	poldrack-single-stim	702	1912942	0.0-27.10-0.10	beast_fmri_test	349	1912440,/	t	<div class = centerbox2><div class = fixation>+</div></div>	none	500.0	test	n/a	n/a	n/a	n/a	n/a	n/a	n/a	n/a	n/a	n/a	n/a	n/a	n/a	n/a	n/a	n/a	n/a	n/a	fixation
265606.58940393105	2750.0	n/a	752	89	2750	693.410596069	stim	stop-signal	703	1915695	0.0-27.10-1.10	beast_fmri_test	349	1913081,/,1913761,/,1914440,/,1915120,/,1915800,/	t,t,t,t,t	<img class = center src='/static/experiments/beast_fmri_test/images/B.png'></img>	89,71	2750.0	test	<img class = center src='/static/experiments/beast_fmri_test/images/redB.png'></img>	go	2000.0	3.0	10.0	go	target	B	89,Middle Finger	71,Index Finger	750.0	750.0	2000.0	2000.0	1.0	750.0	1.0	n/a	go_stim
268356.58940393105	693.410596069	n/a	752	89	2750	693.410596069	stim	stop-signal	703	1915695	0.0-27.10-1.10	beast_fmri_test	349	1913081,/,1913761,/,1914440,/,1915120,/,1915800,/	t,t,t,t,t	<img class = center src='/static/experiments/beast_fmri_test/images/B.png'></img>	89,71	2750.0	test	<img class = center src='/static/experiments/beast_fmri_test/images/redB.png'></img>	go	2000.0	3.0	10.0	go	target	B	89,Middle Finger	71,Index Finger	750.0	750.0	2000.0	2000.0	1.0	750.0	1.0	n/a	ITI
270313	500.0	n/a	-1	-1	500	0.0	fixation	poldrack-single-stim	704	1916958	0.0-27.11-0.11	beast_fmri_test	349	1916480,/	t	<div class = centerbox2><div class = fixation>+</div></div>	none	500.0	test	n/a	n/a	n/a	n/a	n/a	n/a	n/a	n/a	n/a	n/a	n/a	n/a	n/a	n/a	n/a	n/a	n/a	n/a	fixation
269509.85144213866	2750.0	n/a	754	71	2750	808.148557861	stim	stop-signal	705	1919713	0.0-27.11-1.11	beast_fmri_test	349	1917160,/,1917837,/,1918519,/,1919197,/,1919879,/	t,t,t,t,t	<img class = center src='/static/experiments/beast_fmri_test/images/D.png'></img>	89,71	2750.0	test	<img class = center src='/static/experiments/beast_fmri_test/images/redD.png'></img>	go	2000.0	3.0	11.0	go	non-target	D	89,Middle Finger	71,Index Finger	750.0	750.0	2000.0	2000.0	1.0	750.0	1.0	n/a	go_stim
272259.85144213866	808.148557861	n/a	754	71	2750	808.148557861	stim	stop-signal	705	1919713	0.0-27.11-1.11	beast_fmri_test	349	1917160,/,1917837,/,1918519,/,1919197,/,1919879,/	t,t,t,t,t	<img class = center src='/static/experiments/beast_fmri_test/images/D.png'></img>	89,71	2750.0	test	<img class = center src='/static/experiments/beast_fmri_test/images/redD.png'></img>	go	2000.0	3.0	11.0	go	non-target	D	89,Middle Finger	71,Index Finger	750.0	750.0	2000.0	2000.0	1.0	750.0	1.0	n/a	ITI
274444	500.0	n/a	-1	-1	500	0.0	fixation	poldrack-single-stim	706	1921089	0.0-27.12-0.12	beast_fmri_test	349	1920588,/	t	<div class = centerbox2><div class = fixation>+</div></div>	none	500.0	test	n/a	n/a	n/a	n/a	n/a	n/a	n/a	n/a	n/a	n/a	n/a	n/a	n/a	n/a	n/a	n/a	n/a	n/a	fixation
273483.58840248361	750.0	n/a	1854	71	2750	963.411597516	stim	stop-signal	707	1923842	0.0-27.12-1.12	beast_fmri_test	349	1921237,/,1921916,/,1922596,/,1923275,/,1923957,/,1924635,/	t,t,t,t,t,t	<img class = center src='/static/experiments/beast_fmri_test/images/B.png'></img>	89,71	2750.0	test	<img class = center src='/static/experiments/beast_fmri_test/images/redB.png'></img>	stop	2000.0	3.0	12.0	stop	non-target	B	89,Middle Finger	71,Index Finger	750.0	750.0	2000.0	2000.0	0.0	750.0	n/a	0.0	go_stim
275483.58840248361	2000.0	n/a	1854	71	2750	963.411597516	stim	stop-signal	707	1923842	0.0-27.12-1.12	beast_fmri_test	349	1921237,/,1921916,/,1922596,/,1923275,/,1923957,/,1924635,/	t,t,t,t,t,t	<img class = center src='/static/experiments/beast_fmri_test/images/B.png'></img>	89,71	2750.0	test	<img class = center src='/static/experiments/beast_fmri_test/images/redB.png'></img>	stop	2000.0	3.0	12.0	stop	non-target	B	89,Middle Finger	71,Index Finger	750.0	750.0	2000.0	2000.0	0.0	750.0	n/a	0.0	stop_stim
276233.58840248361	963.411597516	n/a	1854	71	2750	963.411597516	stim	stop-signal	707	1923842	0.0-27.12-1.12	beast_fmri_test	349	1921237,/,1921916,/,1922596,/,1923275,/,1923957,/,1924635,/	t,t,t,t,t,t	<img class = center src='/static/experiments/beast_fmri_test/images/B.png'></img>	89,71	2750.0	test	<img class = center src='/static/experiments/beast_fmri_test/images/redB.png'></img>	stop	2000.0	3.0	12.0	stop	non-target	B	89,Middle Finger	71,Index Finger	750.0	750.0	2000.0	2000.0	0.0	750.0	n/a	0.0	ITI
278728	500.0	n/a	-1	-1	500	0.0	fixation	poldrack-single-stim	708	1925373	0.0-27.13-0.13	beast_fmri_test	349	1925316,/	t	<div class = centerbox2><div class = fixation>+</div></div>	none	500.0	test	n/a	n/a	n/a	n/a	n/a	n/a	n/a	n/a	n/a	n/a	n/a	n/a	n/a	n/a	n/a	n/a	n/a	n/a	fixation
276430.05672387453	700.0	n/a	2213	89	2750	2297.94327613	stim	stop-signal	709	1928123	0.0-27.13-1.13	beast_fmri_test	349	1925995,/,1926674,/,1927355,/,1928033,/,1928714,/,1929394,/,1930072,/	t,t,t,t,t,t,t	<img class = center src='/static/experiments/beast_fmri_test/images/T.png'></img>	89,71	2750.0	test	<img class = center src='/static/experiments/beast_fmri_test/images/redT.png'></img>	stop	2050.0	3.0	13.0	stop	non-target	T	89,Middle Finger	71,Index Finger	750.0	700.0	2000.0	2050.0	0.0	700.0	n/a	0.0	go_stim
278480.05672387453	2050.0	n/a	2213	89	2750	2297.94327613	stim	stop-signal	709	1928123	0.0-27.13-1.13	beast_fmri_test	349	1925995,/,1926674,/,1927355,/,1928033,/,1928714,/,1929394,/,1930072,/	t,t,t,t,t,t,t	<img class = center src='/static/experiments/beast_fmri_test/images/T.png'></img>	89,71	2750.0	test	<img class = center src='/static/experiments/beast_fmri_test/images/redT.png'></img>	stop	2050.0	3.0	13.0	stop	non-target	T	89,Middle Finger	71,Index Finger	750.0	700.0	2000.0	2050.0	0.0	700.0	n/a	0.0	stop_stim
279180.05672387453	2297.94327613	n/a	2213	89	2750	2297.94327613	stim	stop-signal	709	1928123	0.0-27.13-1.13	beast_fmri_test	349	1925995,/,1926674,/,1927355,/,1928033,/,1928714,/,1929394,/,1930072,/	t,t,t,t,t,t,t	<img class = center src='/static/experiments/beast_fmri_test/images/T.png'></img>	89,71	2750.0	test	<img class = center src='/static/experiments/beast_fmri_test/images/redT.png'></img>	stop	2050.0	3.0	13.0	stop	non-target	T	89,Middle Finger	71,Index Finger	750.0	700.0	2000.0	2050.0	0.0	700.0	n/a	0.0	ITI
284339	500.0	n/a	-1	-1	500	0.0	fixation	poldrack-single-stim	710	1930984	0.0-27.14-0.14	beast_fmri_test	349	1930752,/	t	<div class = centerbox2><div class = fixation>+</div></div>	none	500.0	test	n/a	n/a	n/a	n/a	n/a	n/a	n/a	n/a	n/a	n/a	n/a	n/a	n/a	n/a	n/a	n/a	n/a	n/a	fixation
282941.52755783615	650.0	n/a	2539	71	2750	1399.47244216	stim	stop-signal	711	1933736	0.0-27.14-1.14	beast_fmri_test	349	1931433,/,1932111,/,1932792,/,1933471,/,1934151,/,1934830,/	t,t,t,t,t,t	<img class = center src='/static/experiments/beast_fmri_test/images/P.png'></img>	89,71	2750.0	test	<img class = center src='/static/experiments/beast_fmri_test/images/redP.png'></img>	stop	2100.0	3.0	14.0	stop	non-target	P	89,Middle Finger	71,Index Finger	750.0	650.0	2000.0	2100.0	0.0	650.0	n/a	0.0	go_stim
285041.52755783615	2100.0	n/a	2539	71	2750	1399.47244216	stim	stop-signal	711	1933736	0.0-27.14-1.14	beast_fmri_test	349	1931433,/,1932111,/,1932792,/,1933471,/,1934151,/,1934830,/	t,t,t,t,t,t	<img class = center src='/static/experiments/beast_fmri_test/images/P.png'></img>	89,71	2750.0	test	<img class = center src='/static/experiments/beast_fmri_test/images/redP.png'></img>	stop	2100.0	3.0	14.0	stop	non-target	P	89,Middle Finger	71,Index Finger	750.0	650.0	2000.0	2100.0	0.0	650.0	n/a	0.0	stop_stim
285691.52755783615	1399.47244216	n/a	2539	71	2750	1399.47244216	stim	stop-signal	711	1933736	0.0-27.14-1.14	beast_fmri_test	349	1931433,/,1932111,/,1932792,/,1933471,/,1934151,/,1934830,/	t,t,t,t,t,t	<img class = center src='/static/experiments/beast_fmri_test/images/P.png'></img>	89,71	2750.0	test	<img class = center src='/static/experiments/beast_fmri_test/images/redP.png'></img>	stop	2100.0	3.0	14.0	stop	non-target	P	89,Middle Finger	71,Index Finger	750.0	650.0	2000.0	2100.0	0.0	650.0	n/a	0.0	ITI
289055	500.0	n/a	-1	-1	500	0.0	fixation	poldrack-single-stim	712	1935700	0.0-27.15-0.15	beast_fmri_test	349	1935511,/	t	<div class = centerbox2><div class = fixation>+</div></div>	none	500.0	test	n/a	n/a	n/a	n/a	n/a	n/a	n/a	n/a	n/a	n/a	n/a	n/a	n/a	n/a	n/a	n/a	n/a	n/a	fixation
288263.19074452622	2750.0	n/a	1147	89	2750	791.809255474	stim	stop-signal	713	1938450	0.0-27.15-1.15	beast_fmri_test	349	1936190,/,1936870,/,1937550,/,1938229,/,1938909,/	t,t,t,t,t	<img class = center src='/static/experiments/beast_fmri_test/images/B.png'></img>	89,71	2750.0	test	<img class = center src='/static/experiments/beast_fmri_test/images/redB.png'></img>	go	2000.0	3.0	15.0	go	target	B	89,Middle Finger	71,Index Finger	750.0	600.0	2000.0	2100.0	1.0	750.0	1.0	n/a	go_stim
291013.19074452622	791.809255474	n/a	1147	89	2750	791.809255474	stim	stop-signal	713	1938450	0.0-27.15-1.15	beast_fmri_test	349	1936190,/,1936870,/,1937550,/,1938229,/,1938909,/	t,t,t,t,t	<img class = center src='/static/experiments/beast_fmri_test/images/B.png'></img>	89,71	2750.0	test	<img class = center src='/static/experiments/beast_fmri_test/images/redB.png'></img>	go	2000.0	3.0	15.0	go	target	B	89,Middle Finger	71,Index Finger	750.0	600.0	2000.0	2100.0	1.0	750.0	1.0	n/a	ITI
293169	500.0	n/a	-1	-1	500	0.0	fixation	poldrack-single-stim	714	1939814	0.0-27.16-0.16	beast_fmri_test	349	1939589,/	t	<div class = centerbox2><div class = fixation>+</div></div>	none	500.0	test	n/a	n/a	n/a	n/a	n/a	n/a	n/a	n/a	n/a	n/a	n/a	n/a	n/a	n/a	n/a	n/a	n/a	n/a	fixation
291847.63600595249	2750.0	n/a	924	71	2750	1321.36399405	stim	stop-signal	715	1942564	0.0-27.16-1.16	beast_fmri_test	349	1940268,/,1940946,/,1941628,/,1942306,/,1942987,/,1943666,/	t,t,t,t,t,t	<img class = center src='/static/experiments/beast_fmri_test/images/B.png'></img>	89,71	2750.0	test	<img class = center src='/static/experiments/beast_fmri_test/images/redB.png'></img>	go	2150.0	3.0	16.0	go	non-target	B	89,Middle Finger	71,Index Finger	750.0	600.0	2000.0	2150.0	1.0	600.0	1.0	n/a	go_stim
294597.63600595249	1321.36399405	n/a	924	71	2750	1321.36399405	stim	stop-signal	715	1942564	0.0-27.16-1.16	beast_fmri_test	349	1940268,/,1940946,/,1941628,/,1942306,/,1942987,/,1943666,/	t,t,t,t,t,t	<img class = center src='/static/experiments/beast_fmri_test/images/B.png'></img>	89,71	2750.0	test	<img class = center src='/static/experiments/beast_fmri_test/images/redB.png'></img>	go	2150.0	3.0	16.0	go	non-target	B	89,Middle Finger	71,Index Finger	750.0	600.0	2000.0	2150.0	1.0	600.0	1.0	n/a	ITI
297805	500.0	n/a	-1	-1	500	0.0	fixation	poldrack-single-stim	716	1944450	0.0-27.17-0.17	beast_fmri_test	349	1944347,/	t	<div class = centerbox2><div class = fixation>+</div></div>	none	500.0	test	n/a	n/a	n/a	n/a	n/a	n/a	n/a	n/a	n/a	n/a	n/a	n/a	n/a	n/a	n/a	n/a	n/a	n/a	fixation
295715.773632169	750.0	n/a	-1	-1	2750	2090.22636783	stim	stop-signal	717	1947201	0.0-27.17-1.17	beast_fmri_test	349	1945025,/,1945706,/,1946385,/,1947063,/,1947745,/,1948424,/,1949104,/	t,t,t,t,t,t,t	<img class = center src='/static/experiments/beast_fmri_test/images/P.png'></img>	89,71	2750.0	test	<img class = center src='/static/experiments/beast_fmri_test/images/redP.png'></img>	stop	2000.0	3.0	17.0	stop	target	P	89,Middle Finger	71,Index Finger	750.0	600.0	2000.0	2150.0	0.0	750.0	n/a	1.0	go_stim
297715.773632169	2000.0	n/a	-1	-1	2750	2090.22636783	stim	stop-signal	717	1947201	0.0-27.17-1.17	beast_fmri_test	349	1945025,/,1945706,/,1946385,/,1947063,/,1947745,/,1948424,/,1949104,/	t,t,t,t,t,t,t	<img class = center src='/static/experiments/beast_fmri_test/images/P.png'></img>	89,71	2750.0	test	<img class = center src='/static/experiments/beast_fmri_test/images/redP.png'></img>	stop	2000.0	3.0	17.0	stop	target	P	89,Middle Finger	71,Index Finger	750.0	600.0	2000.0	2150.0	0.0	750.0	n/a	1.0	stop_stim
298465.773632169	2090.22636783	n/a	-1	-1	2750	2090.22636783	stim	stop-signal	717	1947201	0.0-27.17-1.17	beast_fmri_test	349	1945025,/,1945706,/,1946385,/,1947063,/,1947745,/,1948424,/,1949104,/	t,t,t,t,t,t,t	<img class = center src='/static/experiments/beast_fmri_test/images/P.png'></img>	89,71	2750.0	test	<img class = center src='/static/experiments/beast_fmri_test/images/redP.png'></img>	stop	2000.0	3.0	17.0	stop	target	P	89,Middle Finger	71,Index Finger	750.0	600.0	2000.0	2150.0	0.0	750.0	n/a	1.0	ITI
303215	500.0	n/a	-1	-1	500	0.0	fixation	poldrack-single-stim	718	1949860	0.0-27.18-0.18	beast_fmri_test	349	1949784,/	t	<div class = centerbox2><div class = fixation>+</div></div>	none	500.0	test	n/a	n/a	n/a	n/a	n/a	n/a	n/a	n/a	n/a	n/a	n/a	n/a	n/a	n/a	n/a	n/a	n/a	n/a	fixation
303046.70746181253	2750.0	n/a	1856	71	2750	169.292538187	stim	stop-signal	719	1952611	0.0-27.18-1.18	beast_fmri_test	349	1950464,/,1951144,/,1951822,/,1952503,/	t,t,t,t	<img class = center src='/static/experiments/beast_fmri_test/images/V.png'></img>	89,71	2750.0	test	<img class = center src='/static/experiments/beast_fmri_test/images/redV.png'></img>	go	2150.0	3.0	18.0	go	non-target	V	89,Middle Finger	71,Index Finger	800.0	600.0	2000.0	2150.0	1.0	600.0	1.0	n/a	go_stim
305796.70746181253	169.292538187	n/a	1856	71	2750	169.292538187	stim	stop-signal	719	1952611	0.0-27.18-1.18	beast_fmri_test	349	1950464,/,1951144,/,1951822,/,1952503,/	t,t,t,t	<img class = center src='/static/experiments/beast_fmri_test/images/V.png'></img>	89,71	2750.0	test	<img class = center src='/static/experiments/beast_fmri_test/images/redV.png'></img>	go	2150.0	3.0	18.0	go	non-target	V	89,Middle Finger	71,Index Finger	800.0	600.0	2000.0	2150.0	1.0	600.0	1.0	n/a	ITI
306703	500.0	n/a	-1	-1	500	0.0	fixation	poldrack-single-stim	720	1953348	0.0-27.19-0.19	beast_fmri_test	349	1953183,/	t	<div class = centerbox2><div class = fixation>+</div></div>	none	500.0	test	n/a	n/a	n/a	n/a	n/a	n/a	n/a	n/a	n/a	n/a	n/a	n/a	n/a	n/a	n/a	n/a	n/a	n/a	fixation
305368.846076719	2750.0	n/a	-1	-1	2750	1334.15392328	stim	stop-signal	721	1956098	0.0-27.19-1.19	beast_fmri_test	349	1953863,/,1954541,/,1955221,/,1955901,/,1956580,/,1957260,/	t,t,t,t,t,t	<img class = center src='/static/experiments/beast_fmri_test/images/T.png'></img>	89,71	2750.0	test	<img class = center src='/static/experiments/beast_fmri_test/images/redT.png'></img>	go	2150.0	3.0	19.0	go	non-target	T	89,Middle Finger	71,Index Finger	800.0	600.0	2000.0	2150.0	0.0	600.0	0.0	n/a	go_stim
308118.846076719	1334.15392328	n/a	-1	-1	2750	1334.15392328	stim	stop-signal	721	1956098	0.0-27.19-1.19	beast_fmri_test	349	1953863,/,1954541,/,1955221,/,1955901,/,1956580,/,1957260,/	t,t,t,t,t,t	<img class = center src='/static/experiments/beast_fmri_test/images/T.png'></img>	89,71	2750.0	test	<img class = center src='/static/experiments/beast_fmri_test/images/redT.png'></img>	go	2150.0	3.0	19.0	go	non-target	T	89,Middle Finger	71,Index Finger	800.0	600.0	2000.0	2150.0	0.0	600.0	0.0	n/a	ITI
311356	500.0	n/a	-1	-1	500	0.0	fixation	poldrack-single-stim	722	1958001	0.0-27.20-0.20	beast_fmri_test	349	1957940,/	t	<div class = centerbox2><div class = fixation>+</div></div>	none	500.0	test	n/a	n/a	n/a	n/a	n/a	n/a	n/a	n/a	n/a	n/a	n/a	n/a	n/a	n/a	n/a	n/a	n/a	n/a	fixation
310337.32429682813	2750.0	n/a	1715	71	2750	1021.67570317	stim	stop-signal	723	1960754	0.0-27.20-1.20	beast_fmri_test	349	1958619,/,1959299,/,1959979,/,1960659,/,1961338,/	t,t,t,t,t	<img class = center src='/static/experiments/beast_fmri_test/images/D.png'></img>	89,71	2750.0	test	<img class = center src='/static/experiments/beast_fmri_test/images/redD.png'></img>	go	2150.0	3.0	20.0	go	non-target	D	89,Middle Finger	71,Index Finger	800.0	600.0	2000.0	2150.0	1.0	600.0	1.0	n/a	go_stim
313087.32429682813	1021.67570317	n/a	1715	71	2750	1021.67570317	stim	stop-signal	723	1960754	0.0-27.20-1.20	beast_fmri_test	349	1958619,/,1959299,/,1959979,/,1960659,/,1961338,/	t,t,t,t,t	<img class = center src='/static/experiments/beast_fmri_test/images/D.png'></img>	89,71	2750.0	test	<img class = center src='/static/experiments/beast_fmri_test/images/redD.png'></img>	go	2150.0	3.0	20.0	go	non-target	D	89,Middle Finger	71,Index Finger	800.0	600.0	2000.0	2150.0	1.0	600.0	1.0	n/a	ITI
315714	500.0	n/a	-1	-1	500	0.0	fixation	poldrack-single-stim	724	1962359	0.0-27.21-0.21	beast_fmri_test	349	1962017,/	t	<div class = centerbox2><div class = fixation>+</div></div>	none	500.0	test	n/a	n/a	n/a	n/a	n/a	n/a	n/a	n/a	n/a	n/a	n/a	n/a	n/a	n/a	n/a	n/a	n/a	n/a	fixation
315328.02207896113	2750.0	n/a	2368	71	2750	387.977921039	stim	stop-signal	725	1965111	0.0-27.21-1.21	beast_fmri_test	349	1962701,/,1963379,/,1964057,/,1964736,/,1965416,/	t,t,t,t,t	<img class = center src='/static/experiments/beast_fmri_test/images/V.png'></img>	89,71	2750.0	test	<img class = center src='/static/experiments/beast_fmri_test/images/redV.png'></img>	go	1950.0	3.0	21.0	go	target	V	89,Middle Finger	71,Index Finger	800.0	600.0	1950.0	2150.0	0.0	800.0	0.0	n/a	go_stim
318078.02207896113	387.977921039	n/a	2368	71	2750	387.977921039	stim	stop-signal	725	1965111	0.0-27.21-1.21	beast_fmri_test	349	1962701,/,1963379,/,1964057,/,1964736,/,1965416,/	t,t,t,t,t	<img class = center src='/static/experiments/beast_fmri_test/images/V.png'></img>	89,71	2750.0	test	<img class = center src='/static/experiments/beast_fmri_test/images/redV.png'></img>	go	1950.0	3.0	21.0	go	target	V	89,Middle Finger	71,Index Finger	800.0	600.0	1950.0	2150.0	0.0	800.0	0.0	n/a	ITI
319423	500.0	n/a	-1	-1	500	0.0	fixation	poldrack-single-stim	726	1966068	0.0-27.22-0.22	beast_fmri_test	349	n/a	n/a	<div class = centerbox2><div class = fixation>+</div></div>	none	500.0	test	n/a	n/a	n/a	n/a	n/a	n/a	n/a	n/a	n/a	n/a	n/a	n/a	n/a	n/a	n/a	n/a	n/a	n/a	fixation
318936.65606251149	2750.0	n/a	2724	71	2750	486.343937489	stim	stop-signal	727	1968818	0.0-27.22-1.22	beast_fmri_test	349	1966095,/,1966775,/,1967456,/,1968134,/,1968814,/	t,t,t,t,t	<img class = center src='/static/experiments/beast_fmri_test/images/P.png'></img>	89,71	2750.0	test	<img class = center src='/static/experiments/beast_fmri_test/images/redP.png'></img>	go	2150.0	3.0	22.0	go	non-target	P	89,Middle Finger	71,Index Finger	800.0	600.0	1950.0	2150.0	1.0	600.0	1.0	n/a	go_stim
321686.65606251149	486.343937489	n/a	2724	71	2750	486.343937489	stim	stop-signal	727	1968818	0.0-27.22-1.22	beast_fmri_test	349	1966095,/,1966775,/,1967456,/,1968134,/,1968814,/	t,t,t,t,t	<img class = center src='/static/experiments/beast_fmri_test/images/P.png'></img>	89,71	2750.0	test	<img class = center src='/static/experiments/beast_fmri_test/images/redP.png'></img>	go	2150.0	3.0	22.0	go	non-target	P	89,Middle Finger	71,Index Finger	800.0	600.0	1950.0	2150.0	1.0	600.0	1.0	n/a	ITI
323243	500.0	n/a	-1	-1	500	0.0	fixation	poldrack-single-stim	728	1969888	0.0-27.23-0.23	beast_fmri_test	349	1969494,/	t	<div class = centerbox2><div class = fixation>+</div></div>	none	500.0	test	n/a	n/a	n/a	n/a	n/a	n/a	n/a	n/a	n/a	n/a	n/a	n/a	n/a	n/a	n/a	n/a	n/a	n/a	fixation
