onset	duration	text	rt	key_press	block_duration	timing_post_trial	trial_id	trial_type	trial_index	time_elapsed	internal_node_id	exp_id	subject_id	trigger_times	triggers	stimulus	possible_responses	stim_duration	exp_stage	SS_stimulus	SS_trial_type	SS_duration	load	trial_num	stop_trial_type	adaptive_trial_type	stim	yes_response_key	no_response_key	SSD_target	SSD_non_target	SSTarget	SSNonTarget	go_acc	stop_acc	SS_delay	adaptive_acc	new_trial_type
test	10880	n/a	-1	-1	10880	0.0	practice-no-stop-feedback	poldrack-single-stim	198	701246	0.0-12.0	beast_fmri_test	278	690370,/,691048,/,691727,/,692407,/,693087,/,693763,/,694443,/,695123,/,695803,/,696483,/,697163,/,697844,/,698522,/,699202,/,699882,/,700563,/,701242,/	t,t,t,t,t,t,t,t,t,t,t,t,t,t,t,t,t	"<div class = ""centerbox""><p class = ""block-text"">Your delay is 3 trials.</p><p class = block-text>Please wait for the scanner to start the block</p></div>"	77	10880.0	n/a	n/a	n/a	n/a	n/a	n/a	n/a	n/a	n/a	n/a	n/a	n/a	n/a	n/a	n/a	n/a	n/a	n/a	n/a	start_functional_block
11380	500	n/a	-1	-1	500	0.0	fixation	poldrack-single-stim	199	701750	0.0-13.0-0.0	beast_fmri_test	278	n/a	n/a	<div class = centerbox2><div class = fixation>+</div></div>	none	500.0	test	n/a	n/a	n/a	n/a	n/a	n/a	n/a	n/a	n/a	n/a	n/a	n/a	n/a	n/a	n/a	n/a	n/a	n/a	fixation
8277.5385241281474	2750	n/a	575	89	2750	3100.46147587	stim	stop-signal	200	704498	0.0-13.0-1.0	beast_fmri_test	278	701923,/,702602,/,703281,/,703957,/,704639,/,705319,/,705998,/,706679,/,707358,/	t,t,t,t,t,t,t,t,t	<img class = center src='/static/experiments/beast_fmri_test/images/T.png'></img>	71,89	2750.0	test	<img class = center src='/static/experiments/beast_fmri_test/images/redT.png'></img>	go	-1.0	3.0	0.0	go	temp-non-target	T	71,Index Finger	89,Middle Finger	400.0	500.0	2350.0	2250.0	0.0	n/a	n/a	n/a	go_stim
11027.538524128147	3100.4614758719067	n/a	575	89	2750	3100.46147587	stim	stop-signal	200	704498	0.0-13.0-1.0	beast_fmri_test	278	701923,/,702602,/,703281,/,703957,/,704639,/,705319,/,705998,/,706679,/,707358,/	t,t,t,t,t,t,t,t,t	<img class = center src='/static/experiments/beast_fmri_test/images/T.png'></img>	71,89	2750.0	test	<img class = center src='/static/experiments/beast_fmri_test/images/redT.png'></img>	go	-1.0	3.0	0.0	go	temp-non-target	T	71,Index Finger	89,Middle Finger	400.0	500.0	2350.0	2250.0	0.0	n/a	n/a	n/a	ITI
17754	500	n/a	-1	-1	500	0.0	fixation	poldrack-single-stim	201	708124	0.0-13.1-0.1	beast_fmri_test	278	708039,/	t	<div class = centerbox2><div class = fixation>+</div></div>	none	500.0	test	n/a	n/a	n/a	n/a	n/a	n/a	n/a	n/a	n/a	n/a	n/a	n/a	n/a	n/a	n/a	n/a	n/a	n/a	fixation
17736.803541392088	2750	n/a	625	89	2750	21.1964586079	stim	stop-signal	202	710878	0.0-13.1-1.1	beast_fmri_test	278	708719,/,709399,/,710078,/,710759,/	t,t,t,t	<img class = center src='/static/experiments/beast_fmri_test/images/V.png'></img>	71,89	2750.0	test	<img class = center src='/static/experiments/beast_fmri_test/images/redV.png'></img>	go	-1.0	3.0	1.0	go	temp-non-target	V	71,Index Finger	89,Middle Finger	400.0	500.0	2350.0	2250.0	0.0	n/a	n/a	n/a	go_stim
20486.803541392088	21.196458607886427	n/a	625	89	2750	21.1964586079	stim	stop-signal	202	710878	0.0-13.1-1.1	beast_fmri_test	278	708719,/,709399,/,710078,/,710759,/	t,t,t,t	<img class = center src='/static/experiments/beast_fmri_test/images/V.png'></img>	71,89	2750.0	test	<img class = center src='/static/experiments/beast_fmri_test/images/redV.png'></img>	go	-1.0	3.0	1.0	go	temp-non-target	V	71,Index Finger	89,Middle Finger	400.0	500.0	2350.0	2250.0	0.0	n/a	n/a	n/a	ITI
21051	500	n/a	-1	-1	500	0.0	fixation	poldrack-single-stim	203	711421	0.0-13.2-0.2	beast_fmri_test	278	n/a	n/a	<div class = centerbox2><div class = fixation>+</div></div>	none	500.0	test	n/a	n/a	n/a	n/a	n/a	n/a	n/a	n/a	n/a	n/a	n/a	n/a	n/a	n/a	n/a	n/a	n/a	n/a	fixation
19813.548073978745	2750	n/a	613	89	2750	1235.45192602	stim	stop-signal	204	714169	0.0-13.2-1.2	beast_fmri_test	278	711439,/,712119,/,712797,/,713475,/,714154,/,714834,/	t,t,t,t,t,t	<img class = center src='/static/experiments/beast_fmri_test/images/P.png'></img>	71,89	2750.0	test	<img class = center src='/static/experiments/beast_fmri_test/images/redP.png'></img>	go	-1.0	3.0	2.0	go	temp-non-target	P	71,Index Finger	89,Middle Finger	400.0	500.0	2350.0	2250.0	0.0	n/a	n/a	n/a	go_stim
22563.548073978745	1235.4519260212041	n/a	613	89	2750	1235.45192602	stim	stop-signal	204	714169	0.0-13.2-1.2	beast_fmri_test	278	711439,/,712119,/,712797,/,713475,/,714154,/,714834,/	t,t,t,t,t,t	<img class = center src='/static/experiments/beast_fmri_test/images/P.png'></img>	71,89	2750.0	test	<img class = center src='/static/experiments/beast_fmri_test/images/redP.png'></img>	go	-1.0	3.0	2.0	go	temp-non-target	P	71,Index Finger	89,Middle Finger	400.0	500.0	2350.0	2250.0	0.0	n/a	n/a	n/a	ITI
25559	500	n/a	-1	-1	500	0.0	fixation	poldrack-single-stim	205	715929	0.0-13.3-0.3	beast_fmri_test	278	715513,/	t	<div class = centerbox2><div class = fixation>+</div></div>	none	500.0	test	n/a	n/a	n/a	n/a	n/a	n/a	n/a	n/a	n/a	n/a	n/a	n/a	n/a	n/a	n/a	n/a	n/a	n/a	fixation
24839.070009709452	2750	n/a	539	71	2750	723.929990291	stim	stop-signal	206	718683	0.0-13.3-1.3	beast_fmri_test	278	716195,/,716874,/,717554,/,718233,/,718914,/	t,t,t,t,t	<img class = center src='/static/experiments/beast_fmri_test/images/T.png'></img>	71,89	2750.0	test	<img class = center src='/static/experiments/beast_fmri_test/images/redT.png'></img>	go	2350.0	3.0	3.0	go	target	T	71,Index Finger	89,Middle Finger	400.0	500.0	2350.0	2250.0	1.0	n/a	400.0	1.0	go_stim
27589.070009709452	723.92999029054431	n/a	539	71	2750	723.929990291	stim	stop-signal	206	718683	0.0-13.3-1.3	beast_fmri_test	278	716195,/,716874,/,717554,/,718233,/,718914,/	t,t,t,t,t	<img class = center src='/static/experiments/beast_fmri_test/images/T.png'></img>	71,89	2750.0	test	<img class = center src='/static/experiments/beast_fmri_test/images/redT.png'></img>	go	2350.0	3.0	3.0	go	target	T	71,Index Finger	89,Middle Finger	400.0	500.0	2350.0	2250.0	1.0	n/a	400.0	1.0	ITI
29563	500	n/a	-1	-1	500	0.0	fixation	poldrack-single-stim	207	719933	0.0-13.4-0.4	beast_fmri_test	278	719594,/	t	<div class = centerbox2><div class = fixation>+</div></div>	none	500.0	test	n/a	n/a	n/a	n/a	n/a	n/a	n/a	n/a	n/a	n/a	n/a	n/a	n/a	n/a	n/a	n/a	n/a	n/a	fixation
29078.394282382331	400.0	n/a	-1	-1	2750	486.605717618	stim	stop-signal	208	722685	0.0-13.4-1.4	beast_fmri_test	278	720274,/,720954,/,721634,/,722313,/,722992,/	t,t,t,t,t	<img class = center src='/static/experiments/beast_fmri_test/images/V.png'></img>	71,89	2750.0	test	<img class = center src='/static/experiments/beast_fmri_test/images/redV.png'></img>	stop	2350.0	3.0	4.0	stop	target	V	71,Index Finger	89,Middle Finger	400.0	500.0	2350.0	2250.0	0.0	1.0	400.0	n/a	go_stim
31428.394282382331	2350.0	n/a	-1	-1	2750	486.605717618	stim	stop-signal	208	722685	0.0-13.4-1.4	beast_fmri_test	278	720274,/,720954,/,721634,/,722313,/,722992,/	t,t,t,t,t	<img class = center src='/static/experiments/beast_fmri_test/images/V.png'></img>	71,89	2750.0	test	<img class = center src='/static/experiments/beast_fmri_test/images/redV.png'></img>	stop	2350.0	3.0	4.0	stop	target	V	71,Index Finger	89,Middle Finger	400.0	500.0	2350.0	2250.0	0.0	1.0	400.0	n/a	stop_stim
31828.394282382331	486.6057176177157	n/a	-1	-1	2750	486.605717618	stim	stop-signal	208	722685	0.0-13.4-1.4	beast_fmri_test	278	720274,/,720954,/,721634,/,722313,/,722992,/	t,t,t,t,t	<img class = center src='/static/experiments/beast_fmri_test/images/V.png'></img>	71,89	2750.0	test	<img class = center src='/static/experiments/beast_fmri_test/images/redV.png'></img>	stop	2350.0	3.0	4.0	stop	target	V	71,Index Finger	89,Middle Finger	400.0	500.0	2350.0	2250.0	0.0	1.0	400.0	n/a	ITI
33320	500	n/a	-1	-1	500	0.0	fixation	poldrack-single-stim	209	723690	0.0-13.5-0.5	beast_fmri_test	278	723669,/	t	<div class = centerbox2><div class = fixation>+</div></div>	none	500.0	test	n/a	n/a	n/a	n/a	n/a	n/a	n/a	n/a	n/a	n/a	n/a	n/a	n/a	n/a	n/a	n/a	n/a	n/a	fixation
31606.828592224512	2750	n/a	452	71	2750	1714.17140778	stim	stop-signal	210	726441	0.0-13.5-1.5	beast_fmri_test	278	724348,/,725029,/,725710,/,726388,/,727070,/,727749,/	t,t,t,t,t,t	<img class = center src='/static/experiments/beast_fmri_test/images/P.png'></img>	71,89	2750.0	test	<img class = center src='/static/experiments/beast_fmri_test/images/redP.png'></img>	go	2300.0	3.0	5.0	go	target	P	71,Index Finger	89,Middle Finger	450.0	500.0	2300.0	2250.0	1.0	n/a	450.0	1.0	go_stim
34356.828592224512	1714.1714077755139	n/a	452	71	2750	1714.17140778	stim	stop-signal	210	726441	0.0-13.5-1.5	beast_fmri_test	278	724348,/,725029,/,725710,/,726388,/,727070,/,727749,/	t,t,t,t,t,t	<img class = center src='/static/experiments/beast_fmri_test/images/P.png'></img>	71,89	2750.0	test	<img class = center src='/static/experiments/beast_fmri_test/images/redP.png'></img>	go	2300.0	3.0	5.0	go	target	P	71,Index Finger	89,Middle Finger	450.0	500.0	2300.0	2250.0	1.0	n/a	450.0	1.0	ITI
38311	500	n/a	-1	-1	500	0.0	fixation	poldrack-single-stim	211	728681	0.0-13.6-0.6	beast_fmri_test	278	728428,/	t	<div class = centerbox2><div class = fixation>+</div></div>	none	500.0	test	n/a	n/a	n/a	n/a	n/a	n/a	n/a	n/a	n/a	n/a	n/a	n/a	n/a	n/a	n/a	n/a	n/a	n/a	fixation
37773.339427536936	500.0	n/a	865	89	2750	540.660572463	stim	stop-signal	212	731434	0.0-13.6-1.6	beast_fmri_test	278	729109,/,729789,/,730470,/,731149,/,731828,/	t,t,t,t,t	<img class = center src='/static/experiments/beast_fmri_test/images/B.png'></img>	71,89	2750.0	test	<img class = center src='/static/experiments/beast_fmri_test/images/redB.png'></img>	stop	2250.0	3.0	6.0	stop	non-target	B	71,Index Finger	89,Middle Finger	450.0	500.0	2300.0	2250.0	0.0	0.0	500.0	n/a	go_stim
40023.339427536936	2250.0	n/a	865	89	2750	540.660572463	stim	stop-signal	212	731434	0.0-13.6-1.6	beast_fmri_test	278	729109,/,729789,/,730470,/,731149,/,731828,/	t,t,t,t,t	<img class = center src='/static/experiments/beast_fmri_test/images/B.png'></img>	71,89	2750.0	test	<img class = center src='/static/experiments/beast_fmri_test/images/redB.png'></img>	stop	2250.0	3.0	6.0	stop	non-target	B	71,Index Finger	89,Middle Finger	450.0	500.0	2300.0	2250.0	0.0	0.0	500.0	n/a	stop_stim
40523.339427536936	540.66057246303944	n/a	865	89	2750	540.660572463	stim	stop-signal	212	731434	0.0-13.6-1.6	beast_fmri_test	278	729109,/,729789,/,730470,/,731149,/,731828,/	t,t,t,t,t	<img class = center src='/static/experiments/beast_fmri_test/images/B.png'></img>	71,89	2750.0	test	<img class = center src='/static/experiments/beast_fmri_test/images/redB.png'></img>	stop	2250.0	3.0	6.0	stop	non-target	B	71,Index Finger	89,Middle Finger	450.0	500.0	2300.0	2250.0	0.0	0.0	500.0	n/a	ITI
42133	500	n/a	-1	-1	500	0.0	fixation	poldrack-single-stim	213	732503	0.0-13.7-0.7	beast_fmri_test	278	n/a	n/a	<div class = centerbox2><div class = fixation>+</div></div>	none	500.0	test	n/a	n/a	n/a	n/a	n/a	n/a	n/a	n/a	n/a	n/a	n/a	n/a	n/a	n/a	n/a	n/a	n/a	n/a	fixation
41782.138023906853	2750	n/a	1064	71	2750	348.861976093	stim	stop-signal	214	735251	0.0-13.7-1.7	beast_fmri_test	278	732510,/,733188,/,733864,/,734545,/,735225,/	t,t,t,t,t	<img class = center src='/static/experiments/beast_fmri_test/images/P.png'></img>	71,89	2750.0	test	<img class = center src='/static/experiments/beast_fmri_test/images/redP.png'></img>	go	2300.0	3.0	7.0	go	non-target	P	71,Index Finger	89,Middle Finger	450.0	450.0	2300.0	2300.0	0.0	n/a	450.0	0.0	go_stim
44532.138023906853	348.86197609312921	n/a	1064	71	2750	348.861976093	stim	stop-signal	214	735251	0.0-13.7-1.7	beast_fmri_test	278	732510,/,733188,/,733864,/,734545,/,735225,/	t,t,t,t,t	<img class = center src='/static/experiments/beast_fmri_test/images/P.png'></img>	71,89	2750.0	test	<img class = center src='/static/experiments/beast_fmri_test/images/redP.png'></img>	go	2300.0	3.0	7.0	go	non-target	P	71,Index Finger	89,Middle Finger	450.0	450.0	2300.0	2300.0	0.0	n/a	450.0	0.0	ITI
45755	500	n/a	-1	-1	500	0.0	fixation	poldrack-single-stim	215	736125	0.0-13.8-0.8	beast_fmri_test	278	735906,/	t	<div class = centerbox2><div class = fixation>+</div></div>	none	500.0	test	n/a	n/a	n/a	n/a	n/a	n/a	n/a	n/a	n/a	n/a	n/a	n/a	n/a	n/a	n/a	n/a	n/a	n/a	fixation
44961.592723656329	450.0	n/a	-1	-1	2750	795.407276344	stim	stop-signal	216	738877	0.0-13.8-1.8	beast_fmri_test	278	736586,/,737264,/,737945,/,738625,/,739305,/	t,t,t,t,t	<img class = center src='/static/experiments/beast_fmri_test/images/D.png'></img>	71,89	2750.0	test	<img class = center src='/static/experiments/beast_fmri_test/images/redD.png'></img>	stop	2300.0	3.0	8.0	stop	non-target	D	71,Index Finger	89,Middle Finger	450.0	450.0	2300.0	2300.0	0.0	1.0	450.0	n/a	go_stim
47261.592723656329	2300.0	n/a	-1	-1	2750	795.407276344	stim	stop-signal	216	738877	0.0-13.8-1.8	beast_fmri_test	278	736586,/,737264,/,737945,/,738625,/,739305,/	t,t,t,t,t	<img class = center src='/static/experiments/beast_fmri_test/images/D.png'></img>	71,89	2750.0	test	<img class = center src='/static/experiments/beast_fmri_test/images/redD.png'></img>	stop	2300.0	3.0	8.0	stop	non-target	D	71,Index Finger	89,Middle Finger	450.0	450.0	2300.0	2300.0	0.0	1.0	450.0	n/a	stop_stim
47711.592723656329	795.40727634366078	n/a	-1	-1	2750	795.407276344	stim	stop-signal	216	738877	0.0-13.8-1.8	beast_fmri_test	278	736586,/,737264,/,737945,/,738625,/,739305,/	t,t,t,t,t	<img class = center src='/static/experiments/beast_fmri_test/images/D.png'></img>	71,89	2750.0	test	<img class = center src='/static/experiments/beast_fmri_test/images/redD.png'></img>	stop	2300.0	3.0	8.0	stop	non-target	D	71,Index Finger	89,Middle Finger	450.0	450.0	2300.0	2300.0	0.0	1.0	450.0	n/a	ITI
49828	500	n/a	-1	-1	500	0.0	fixation	poldrack-single-stim	217	740198	0.0-13.9-0.9	beast_fmri_test	278	739986,/	t	<div class = centerbox2><div class = fixation>+</div></div>	none	500.0	test	n/a	n/a	n/a	n/a	n/a	n/a	n/a	n/a	n/a	n/a	n/a	n/a	n/a	n/a	n/a	n/a	n/a	n/a	fixation
48506.659905823413	500.0	n/a	-1	-1	2750	1322.34009418	stim	stop-signal	218	742949	0.0-13.9-1.9	beast_fmri_test	278	740665,/,741345,/,742025,/,742705,/,743382,/,744061,/	t,t,t,t,t,t	<img class = center src='/static/experiments/beast_fmri_test/images/V.png'></img>	71,89	2750.0	test	<img class = center src='/static/experiments/beast_fmri_test/images/redV.png'></img>	stop	2250.0	3.0	9.0	stop	non-target	V	71,Index Finger	89,Middle Finger	450.0	500.0	2300.0	2250.0	0.0	1.0	500.0	n/a	go_stim
50756.659905823413	2250.0	n/a	-1	-1	2750	1322.34009418	stim	stop-signal	218	742949	0.0-13.9-1.9	beast_fmri_test	278	740665,/,741345,/,742025,/,742705,/,743382,/,744061,/	t,t,t,t,t,t	<img class = center src='/static/experiments/beast_fmri_test/images/V.png'></img>	71,89	2750.0	test	<img class = center src='/static/experiments/beast_fmri_test/images/redV.png'></img>	stop	2250.0	3.0	9.0	stop	non-target	V	71,Index Finger	89,Middle Finger	450.0	500.0	2300.0	2250.0	0.0	1.0	500.0	n/a	stop_stim
51256.659905823413	1322.340094176642	n/a	-1	-1	2750	1322.34009418	stim	stop-signal	218	742949	0.0-13.9-1.9	beast_fmri_test	278	740665,/,741345,/,742025,/,742705,/,743382,/,744061,/	t,t,t,t,t,t	<img class = center src='/static/experiments/beast_fmri_test/images/V.png'></img>	71,89	2750.0	test	<img class = center src='/static/experiments/beast_fmri_test/images/redV.png'></img>	stop	2250.0	3.0	9.0	stop	non-target	V	71,Index Finger	89,Middle Finger	450.0	500.0	2300.0	2250.0	0.0	1.0	500.0	n/a	ITI
54423	500	n/a	-1	-1	500	0.0	fixation	poldrack-single-stim	219	744793	0.0-13.10-0.10	beast_fmri_test	278	744741,/	t	<div class = centerbox2><div class = fixation>+</div></div>	none	500.0	test	n/a	n/a	n/a	n/a	n/a	n/a	n/a	n/a	n/a	n/a	n/a	n/a	n/a	n/a	n/a	n/a	n/a	n/a	fixation
53302.378254365409	450.0	n/a	-1	-1	2750	1122.62174563	stim	stop-signal	220	747545	0.0-13.10-1.10	beast_fmri_test	278	745420,/,746101,/,746780,/,747459,/,748140,/	t,t,t,t,t	<img class = center src='/static/experiments/beast_fmri_test/images/P.png'></img>	71,89	2750.0	test	<img class = center src='/static/experiments/beast_fmri_test/images/redP.png'></img>	stop	2300.0	3.0	10.0	stop	target	P	71,Index Finger	89,Middle Finger	450.0	550.0	2300.0	2250.0	0.0	1.0	450.0	n/a	go_stim
55602.378254365409	2300.0	n/a	-1	-1	2750	1122.62174563	stim	stop-signal	220	747545	0.0-13.10-1.10	beast_fmri_test	278	745420,/,746101,/,746780,/,747459,/,748140,/	t,t,t,t,t	<img class = center src='/static/experiments/beast_fmri_test/images/P.png'></img>	71,89	2750.0	test	<img class = center src='/static/experiments/beast_fmri_test/images/redP.png'></img>	stop	2300.0	3.0	10.0	stop	target	P	71,Index Finger	89,Middle Finger	450.0	550.0	2300.0	2250.0	0.0	1.0	450.0	n/a	stop_stim
56052.378254365409	1122.621745634596	n/a	-1	-1	2750	1122.62174563	stim	stop-signal	220	747545	0.0-13.10-1.10	beast_fmri_test	278	745420,/,746101,/,746780,/,747459,/,748140,/	t,t,t,t,t	<img class = center src='/static/experiments/beast_fmri_test/images/P.png'></img>	71,89	2750.0	test	<img class = center src='/static/experiments/beast_fmri_test/images/redP.png'></img>	stop	2300.0	3.0	10.0	stop	target	P	71,Index Finger	89,Middle Finger	450.0	550.0	2300.0	2250.0	0.0	1.0	450.0	n/a	ITI
58826	500	n/a	-1	-1	500	0.0	fixation	poldrack-single-stim	221	749196	0.0-13.11-0.11	beast_fmri_test	278	748819,/	t	<div class = centerbox2><div class = fixation>+</div></div>	none	500.0	test	n/a	n/a	n/a	n/a	n/a	n/a	n/a	n/a	n/a	n/a	n/a	n/a	n/a	n/a	n/a	n/a	n/a	n/a	fixation
58828.255835360498	2750	n/a	1378	89	2750	1.74416463953	stim	stop-signal	222	751950	0.0-13.11-1.11	beast_fmri_test	278	749501,/,750179,/,750859,/,751540,/	t,t,t,t	<img class = center src='/static/experiments/beast_fmri_test/images/T.png'></img>	71,89	2750.0	test	<img class = center src='/static/experiments/beast_fmri_test/images/redT.png'></img>	go	2200.0	3.0	11.0	go	non-target	T	71,Index Finger	89,Middle Finger	500.0	550.0	2300.0	2200.0	1.0	n/a	550.0	1.0	go_stim
61578.255835360498	1.7441646395292223	n/a	1378	89	2750	1.74416463953	stim	stop-signal	222	751950	0.0-13.11-1.11	beast_fmri_test	278	749501,/,750179,/,750859,/,751540,/	t,t,t,t	<img class = center src='/static/experiments/beast_fmri_test/images/T.png'></img>	71,89	2750.0	test	<img class = center src='/static/experiments/beast_fmri_test/images/redT.png'></img>	go	2200.0	3.0	11.0	go	non-target	T	71,Index Finger	89,Middle Finger	500.0	550.0	2300.0	2200.0	1.0	n/a	550.0	1.0	ITI
62115	500	n/a	-1	-1	500	0.0	fixation	poldrack-single-stim	223	752485	0.0-13.12-0.12	beast_fmri_test	278	752220,/	t	<div class = centerbox2><div class = fixation>+</div></div>	none	500.0	test	n/a	n/a	n/a	n/a	n/a	n/a	n/a	n/a	n/a	n/a	n/a	n/a	n/a	n/a	n/a	n/a	n/a	n/a	fixation
61402.485540851485	500.0	n/a	-1	-1	2750	710.514459149	stim	stop-signal	224	755233	0.0-13.12-1.12	beast_fmri_test	278	752900,/,753576,/,754255,/,754935,/,755615,/	t,t,t,t,t	<img class = center src='/static/experiments/beast_fmri_test/images/V.png'></img>	71,89	2750.0	test	<img class = center src='/static/experiments/beast_fmri_test/images/redV.png'></img>	stop	2250.0	3.0	12.0	stop	target	V	71,Index Finger	89,Middle Finger	500.0	550.0	2250.0	2200.0	0.0	1.0	500.0	n/a	go_stim
63652.485540851485	2250.0	n/a	-1	-1	2750	710.514459149	stim	stop-signal	224	755233	0.0-13.12-1.12	beast_fmri_test	278	752900,/,753576,/,754255,/,754935,/,755615,/	t,t,t,t,t	<img class = center src='/static/experiments/beast_fmri_test/images/V.png'></img>	71,89	2750.0	test	<img class = center src='/static/experiments/beast_fmri_test/images/redV.png'></img>	stop	2250.0	3.0	12.0	stop	target	V	71,Index Finger	89,Middle Finger	500.0	550.0	2250.0	2200.0	0.0	1.0	500.0	n/a	stop_stim
64152.485540851485	710.51445914852081	n/a	-1	-1	2750	710.514459149	stim	stop-signal	224	755233	0.0-13.12-1.12	beast_fmri_test	278	752900,/,753576,/,754255,/,754935,/,755615,/	t,t,t,t,t	<img class = center src='/static/experiments/beast_fmri_test/images/V.png'></img>	71,89	2750.0	test	<img class = center src='/static/experiments/beast_fmri_test/images/redV.png'></img>	stop	2250.0	3.0	12.0	stop	target	V	71,Index Finger	89,Middle Finger	500.0	550.0	2250.0	2200.0	0.0	1.0	500.0	n/a	ITI
66099	500	n/a	-1	-1	500	0.0	fixation	poldrack-single-stim	225	756469	0.0-13.13-0.13	beast_fmri_test	278	756295,/	t	<div class = centerbox2><div class = fixation>+</div></div>	none	500.0	test	n/a	n/a	n/a	n/a	n/a	n/a	n/a	n/a	n/a	n/a	n/a	n/a	n/a	n/a	n/a	n/a	n/a	n/a	fixation
63502.528976758593	2750	n/a	946	89	2750	2598.47102324	stim	stop-signal	226	759221	0.0-13.13-1.13	beast_fmri_test	278	756974,/,757656,/,758335,/,759015,/,759695,/,760376,/,761055,/,761735,/	t,t,t,t,t,t,t,t	<img class = center src='/static/experiments/beast_fmri_test/images/V.png'></img>	71,89	2750.0	test	<img class = center src='/static/experiments/beast_fmri_test/images/redV.png'></img>	go	2200.0	3.0	13.0	go	non-target	V	71,Index Finger	89,Middle Finger	550.0	550.0	2250.0	2200.0	1.0	n/a	550.0	1.0	go_stim
66252.528976758593	2598.4710232414373	n/a	946	89	2750	2598.47102324	stim	stop-signal	226	759221	0.0-13.13-1.13	beast_fmri_test	278	756974,/,757656,/,758335,/,759015,/,759695,/,760376,/,761055,/,761735,/	t,t,t,t,t,t,t,t	<img class = center src='/static/experiments/beast_fmri_test/images/V.png'></img>	71,89	2750.0	test	<img class = center src='/static/experiments/beast_fmri_test/images/redV.png'></img>	go	2200.0	3.0	13.0	go	non-target	V	71,Index Finger	89,Middle Finger	550.0	550.0	2250.0	2200.0	1.0	n/a	550.0	1.0	ITI
71976	500	n/a	-1	-1	500	0.0	fixation	poldrack-single-stim	227	762346	0.0-13.14-0.14	beast_fmri_test	278	n/a	n/a	<div class = centerbox2><div class = fixation>+</div></div>	none	500.0	test	n/a	n/a	n/a	n/a	n/a	n/a	n/a	n/a	n/a	n/a	n/a	n/a	n/a	n/a	n/a	n/a	n/a	n/a	fixation
71106.094869138091	2750	n/a	698	89	2750	867.905130862	stim	stop-signal	228	765094	0.0-13.14-1.14	beast_fmri_test	278	762415,/,763094,/,763771,/,764450,/,765130,/,765811,/	t,t,t,t,t,t	<img class = center src='/static/experiments/beast_fmri_test/images/T.png'></img>	71,89	2750.0	test	<img class = center src='/static/experiments/beast_fmri_test/images/redT.png'></img>	go	2200.0	3.0	14.0	go	target	T	71,Index Finger	89,Middle Finger	550.0	550.0	2200.0	2200.0	0.0	n/a	550.0	0.0	go_stim
73856.094869138091	867.90513086193403	n/a	698	89	2750	867.905130862	stim	stop-signal	228	765094	0.0-13.14-1.14	beast_fmri_test	278	762415,/,763094,/,763771,/,764450,/,765130,/,765811,/	t,t,t,t,t,t	<img class = center src='/static/experiments/beast_fmri_test/images/T.png'></img>	71,89	2750.0	test	<img class = center src='/static/experiments/beast_fmri_test/images/redT.png'></img>	go	2200.0	3.0	14.0	go	target	T	71,Index Finger	89,Middle Finger	550.0	550.0	2200.0	2200.0	0.0	n/a	550.0	0.0	ITI
76120	500	n/a	-1	-1	500	0.0	fixation	poldrack-single-stim	229	766490	0.0-13.15-0.15	beast_fmri_test	278	n/a	n/a	<div class = centerbox2><div class = fixation>+</div></div>	none	500.0	test	n/a	n/a	n/a	n/a	n/a	n/a	n/a	n/a	n/a	n/a	n/a	n/a	n/a	n/a	n/a	n/a	n/a	n/a	fixation
74872.473687593942	2750	n/a	849	71	2750	1251.52631241	stim	stop-signal	230	769244	0.0-13.15-1.15	beast_fmri_test	278	766494,/,767172,/,767850,/,768530,/,769211,/,769890,/	t,t,t,t,t,t	<img class = center src='/static/experiments/beast_fmri_test/images/V.png'></img>	71,89	2750.0	test	<img class = center src='/static/experiments/beast_fmri_test/images/redV.png'></img>	go	2200.0	3.0	15.0	go	target	V	71,Index Finger	89,Middle Finger	550.0	550.0	2200.0	2200.0	1.0	n/a	550.0	1.0	go_stim
77622.473687593942	1251.5263124061075	n/a	849	71	2750	1251.52631241	stim	stop-signal	230	769244	0.0-13.15-1.15	beast_fmri_test	278	766494,/,767172,/,767850,/,768530,/,769211,/,769890,/	t,t,t,t,t,t	<img class = center src='/static/experiments/beast_fmri_test/images/V.png'></img>	71,89	2750.0	test	<img class = center src='/static/experiments/beast_fmri_test/images/redV.png'></img>	go	2200.0	3.0	15.0	go	target	V	71,Index Finger	89,Middle Finger	550.0	550.0	2200.0	2200.0	1.0	n/a	550.0	1.0	ITI
80650	500	n/a	-1	-1	500	0.0	fixation	poldrack-single-stim	231	771020	0.0-13.16-0.16	beast_fmri_test	278	770570,/	t	<div class = centerbox2><div class = fixation>+</div></div>	none	500.0	test	n/a	n/a	n/a	n/a	n/a	n/a	n/a	n/a	n/a	n/a	n/a	n/a	n/a	n/a	n/a	n/a	n/a	n/a	fixation
80579.799041687627	2750	n/a	653	89	2750	68.2009583123	stim	stop-signal	232	773768	0.0-13.16-1.16	beast_fmri_test	278	771252,/,771931,/,772610,/,773289,/	t,t,t,t	<img class = center src='/static/experiments/beast_fmri_test/images/T.png'></img>	71,89	2750.0	test	<img class = center src='/static/experiments/beast_fmri_test/images/redT.png'></img>	go	2200.0	3.0	16.0	go	non-target	T	71,Index Finger	89,Middle Finger	550.0	550.0	2200.0	2200.0	1.0	n/a	550.0	1.0	go_stim
83329.799041687627	68.20095831232554	n/a	653	89	2750	68.2009583123	stim	stop-signal	232	773768	0.0-13.16-1.16	beast_fmri_test	278	771252,/,771931,/,772610,/,773289,/	t,t,t,t	<img class = center src='/static/experiments/beast_fmri_test/images/T.png'></img>	71,89	2750.0	test	<img class = center src='/static/experiments/beast_fmri_test/images/redT.png'></img>	go	2200.0	3.0	16.0	go	non-target	T	71,Index Finger	89,Middle Finger	550.0	550.0	2200.0	2200.0	1.0	n/a	550.0	1.0	ITI
83995	500	n/a	-1	-1	500	0.0	fixation	poldrack-single-stim	233	774365	0.0-13.17-0.17	beast_fmri_test	278	773965,/	t	<div class = centerbox2><div class = fixation>+</div></div>	none	500.0	test	n/a	n/a	n/a	n/a	n/a	n/a	n/a	n/a	n/a	n/a	n/a	n/a	n/a	n/a	n/a	n/a	n/a	n/a	fixation
82955.488534516771	2750	n/a	854	89	2750	1042.51146548	stim	stop-signal	234	777118	0.0-13.17-1.17	beast_fmri_test	278	774646,/,775326,/,776005,/,776686,/,777366,/,778045,/	t,t,t,t,t,t	<img class = center src='/static/experiments/beast_fmri_test/images/B.png'></img>	71,89	2750.0	test	<img class = center src='/static/experiments/beast_fmri_test/images/redB.png'></img>	go	2200.0	3.0	17.0	go	non-target	B	71,Index Finger	89,Middle Finger	550.0	550.0	2200.0	2200.0	1.0	n/a	550.0	1.0	go_stim
85705.488534516771	1042.5114654832773	n/a	854	89	2750	1042.51146548	stim	stop-signal	234	777118	0.0-13.17-1.17	beast_fmri_test	278	774646,/,775326,/,776005,/,776686,/,777366,/,778045,/	t,t,t,t,t,t	<img class = center src='/static/experiments/beast_fmri_test/images/B.png'></img>	71,89	2750.0	test	<img class = center src='/static/experiments/beast_fmri_test/images/redB.png'></img>	go	2200.0	3.0	17.0	go	non-target	B	71,Index Finger	89,Middle Finger	550.0	550.0	2200.0	2200.0	1.0	n/a	550.0	1.0	ITI
88317	500	n/a	-1	-1	500	0.0	fixation	poldrack-single-stim	235	778687	0.0-13.18-0.18	beast_fmri_test	278	n/a	n/a	<div class = centerbox2><div class = fixation>+</div></div>	none	500.0	test	n/a	n/a	n/a	n/a	n/a	n/a	n/a	n/a	n/a	n/a	n/a	n/a	n/a	n/a	n/a	n/a	n/a	n/a	fixation
87919.656569496612	2750	n/a	667	71	2750	400.343430503	stim	stop-signal	236	781440	0.0-13.18-1.18	beast_fmri_test	278	778725,/,779406,/,780086,/,780766,/,781446,/	t,t,t,t,t	<img class = center src='/static/experiments/beast_fmri_test/images/V.png'></img>	71,89	2750.0	test	<img class = center src='/static/experiments/beast_fmri_test/images/redV.png'></img>	go	2200.0	3.0	18.0	go	target	V	71,Index Finger	89,Middle Finger	550.0	550.0	2200.0	2200.0	1.0	n/a	550.0	1.0	go_stim
90669.656569496612	400.34343050338913	n/a	667	71	2750	400.343430503	stim	stop-signal	236	781440	0.0-13.18-1.18	beast_fmri_test	278	778725,/,779406,/,780086,/,780766,/,781446,/	t,t,t,t,t	<img class = center src='/static/experiments/beast_fmri_test/images/V.png'></img>	71,89	2750.0	test	<img class = center src='/static/experiments/beast_fmri_test/images/redV.png'></img>	go	2200.0	3.0	18.0	go	target	V	71,Index Finger	89,Middle Finger	550.0	550.0	2200.0	2200.0	1.0	n/a	550.0	1.0	ITI
91994	500	n/a	-1	-1	500	0.0	fixation	poldrack-single-stim	237	782364	0.0-13.19-0.19	beast_fmri_test	278	782125,/	t	<div class = centerbox2><div class = fixation>+</div></div>	none	500.0	test	n/a	n/a	n/a	n/a	n/a	n/a	n/a	n/a	n/a	n/a	n/a	n/a	n/a	n/a	n/a	n/a	n/a	n/a	fixation
91524.297541136271	550.0	n/a	640	89	2750	468.702458864	stim	stop-signal	238	785113	0.0-13.19-1.19	beast_fmri_test	278	782805,/,783483,/,784161,/,784841,/,785522,/	t,t,t,t,t	<img class = center src='/static/experiments/beast_fmri_test/images/P.png'></img>	71,89	2750.0	test	<img class = center src='/static/experiments/beast_fmri_test/images/redP.png'></img>	stop	2200.0	3.0	19.0	stop	non-target	P	71,Index Finger	89,Middle Finger	550.0	550.0	2200.0	2200.0	0.0	0.0	550.0	n/a	go_stim
93724.297541136271	2200.0	n/a	640	89	2750	468.702458864	stim	stop-signal	238	785113	0.0-13.19-1.19	beast_fmri_test	278	782805,/,783483,/,784161,/,784841,/,785522,/	t,t,t,t,t	<img class = center src='/static/experiments/beast_fmri_test/images/P.png'></img>	71,89	2750.0	test	<img class = center src='/static/experiments/beast_fmri_test/images/redP.png'></img>	stop	2200.0	3.0	19.0	stop	non-target	P	71,Index Finger	89,Middle Finger	550.0	550.0	2200.0	2200.0	0.0	0.0	550.0	n/a	stop_stim
94274.297541136271	468.70245886367439	n/a	640	89	2750	468.702458864	stim	stop-signal	238	785113	0.0-13.19-1.19	beast_fmri_test	278	782805,/,783483,/,784161,/,784841,/,785522,/	t,t,t,t,t	<img class = center src='/static/experiments/beast_fmri_test/images/P.png'></img>	71,89	2750.0	test	<img class = center src='/static/experiments/beast_fmri_test/images/redP.png'></img>	stop	2200.0	3.0	19.0	stop	non-target	P	71,Index Finger	89,Middle Finger	550.0	550.0	2200.0	2200.0	0.0	0.0	550.0	n/a	ITI
95733	500	n/a	-1	-1	500	0.0	fixation	poldrack-single-stim	239	786103	0.0-13.20-0.20	beast_fmri_test	278	n/a	n/a	<div class = centerbox2><div class = fixation>+</div></div>	none	500.0	test	n/a	n/a	n/a	n/a	n/a	n/a	n/a	n/a	n/a	n/a	n/a	n/a	n/a	n/a	n/a	n/a	n/a	n/a	fixation
95148.698577573523	2750	n/a	1164	89	2750	588.301422426	stim	stop-signal	240	788857	0.0-13.20-1.20	beast_fmri_test	278	786202,/,786882,/,787562,/,788242,/,788921,/	t,t,t,t,t	<img class = center src='/static/experiments/beast_fmri_test/images/B.png'></img>	71,89	2750.0	test	<img class = center src='/static/experiments/beast_fmri_test/images/redB.png'></img>	go	2200.0	3.0	20.0	go	target	B	71,Index Finger	89,Middle Finger	550.0	500.0	2200.0	2200.0	0.0	n/a	550.0	0.0	go_stim
97898.698577573523	588.30142242648412	n/a	1164	89	2750	588.301422426	stim	stop-signal	240	788857	0.0-13.20-1.20	beast_fmri_test	278	786202,/,786882,/,787562,/,788242,/,788921,/	t,t,t,t,t	<img class = center src='/static/experiments/beast_fmri_test/images/B.png'></img>	71,89	2750.0	test	<img class = center src='/static/experiments/beast_fmri_test/images/redB.png'></img>	go	2200.0	3.0	20.0	go	target	B	71,Index Finger	89,Middle Finger	550.0	500.0	2200.0	2200.0	0.0	n/a	550.0	0.0	ITI
99603	500	n/a	-1	-1	500	0.0	fixation	poldrack-single-stim	241	789973	0.0-13.21-0.21	beast_fmri_test	278	789601,/	t	<div class = centerbox2><div class = fixation>+</div></div>	none	500.0	test	n/a	n/a	n/a	n/a	n/a	n/a	n/a	n/a	n/a	n/a	n/a	n/a	n/a	n/a	n/a	n/a	n/a	n/a	fixation
99563.56827083067	500.0	n/a	-1	-1	2750	42.4317291693	stim	stop-signal	242	792726	0.0-13.21-1.21	beast_fmri_test	278	790283,/,790963,/,791643,/,792323,/	t,t,t,t	<img class = center src='/static/experiments/beast_fmri_test/images/T.png'></img>	71,89	2750.0	test	<img class = center src='/static/experiments/beast_fmri_test/images/redT.png'></img>	stop	2250.0	3.0	21.0	stop	non-target	T	71,Index Finger	89,Middle Finger	550.0	500.0	2200.0	2250.0	0.0	1.0	500.0	n/a	go_stim
101813.56827083067	2250.0	n/a	-1	-1	2750	42.4317291693	stim	stop-signal	242	792726	0.0-13.21-1.21	beast_fmri_test	278	790283,/,790963,/,791643,/,792323,/	t,t,t,t	<img class = center src='/static/experiments/beast_fmri_test/images/T.png'></img>	71,89	2750.0	test	<img class = center src='/static/experiments/beast_fmri_test/images/redT.png'></img>	stop	2250.0	3.0	21.0	stop	non-target	T	71,Index Finger	89,Middle Finger	550.0	500.0	2200.0	2250.0	0.0	1.0	500.0	n/a	stop_stim
102313.56827083067	42.431729169319112	n/a	-1	-1	2750	42.4317291693	stim	stop-signal	242	792726	0.0-13.21-1.21	beast_fmri_test	278	790283,/,790963,/,791643,/,792323,/	t,t,t,t	<img class = center src='/static/experiments/beast_fmri_test/images/T.png'></img>	71,89	2750.0	test	<img class = center src='/static/experiments/beast_fmri_test/images/redT.png'></img>	stop	2250.0	3.0	21.0	stop	non-target	T	71,Index Finger	89,Middle Finger	550.0	500.0	2200.0	2250.0	0.0	1.0	500.0	n/a	ITI
102918	500	n/a	-1	-1	500	0.0	fixation	poldrack-single-stim	243	793288	0.0-13.22-0.22	beast_fmri_test	278	793000,/	t	<div class = centerbox2><div class = fixation>+</div></div>	none	500.0	test	n/a	n/a	n/a	n/a	n/a	n/a	n/a	n/a	n/a	n/a	n/a	n/a	n/a	n/a	n/a	n/a	n/a	n/a	fixation
99591.85604054248	2750	n/a	587	71	2750	3327.14395946	stim	stop-signal	244	796039	0.0-13.22-1.22	beast_fmri_test	278	793678,/,794358,/,795037,/,795717,/,796397,/,797078,/,797757,/,798437,/,799118,/	t,t,t,t,t,t,t,t,t	<img class = center src='/static/experiments/beast_fmri_test/images/P.png'></img>	71,89	2750.0	test	<img class = center src='/static/experiments/beast_fmri_test/images/redP.png'></img>	go	2200.0	3.0	22.0	go	target	P	71,Index Finger	89,Middle Finger	550.0	550.0	2200.0	2250.0	1.0	n/a	550.0	1.0	go_stim
102341.85604054248	3327.1439594575118	n/a	587	71	2750	3327.14395946	stim	stop-signal	244	796039	0.0-13.22-1.22	beast_fmri_test	278	793678,/,794358,/,795037,/,795717,/,796397,/,797078,/,797757,/,798437,/,799118,/	t,t,t,t,t,t,t,t,t	<img class = center src='/static/experiments/beast_fmri_test/images/P.png'></img>	71,89	2750.0	test	<img class = center src='/static/experiments/beast_fmri_test/images/redP.png'></img>	go	2200.0	3.0	22.0	go	target	P	71,Index Finger	89,Middle Finger	550.0	550.0	2200.0	2250.0	1.0	n/a	550.0	1.0	ITI
109524	500	n/a	-1	-1	500	0.0	fixation	poldrack-single-stim	245	799894	0.0-13.23-0.23	beast_fmri_test	278	799797,/	t	<div class = centerbox2><div class = fixation>+</div></div>	none	500.0	test	n/a	n/a	n/a	n/a	n/a	n/a	n/a	n/a	n/a	n/a	n/a	n/a	n/a	n/a	n/a	n/a	n/a	n/a	fixation
106351.81988805789	550.0	n/a	693	89	2750	3174.18011194	stim	stop-signal	246	802646	0.0-13.23-1.23	beast_fmri_test	278	800488,/,801157,/,801838,/,802517,/,803195,/,803872,/,804551,/,805232,/	t,t,t,t,t,t,t,t	<img class = center src='/static/experiments/beast_fmri_test/images/T.png'></img>	71,89	2750.0	test	<img class = center src='/static/experiments/beast_fmri_test/images/redT.png'></img>	stop	2200.0	3.0	23.0	stop	non-target	T	71,Index Finger	89,Middle Finger	550.0	550.0	2200.0	2200.0	0.0	0.0	550.0	n/a	go_stim
108551.81988805789	2200.0	n/a	693	89	2750	3174.18011194	stim	stop-signal	246	802646	0.0-13.23-1.23	beast_fmri_test	278	800488,/,801157,/,801838,/,802517,/,803195,/,803872,/,804551,/,805232,/	t,t,t,t,t,t,t,t	<img class = center src='/static/experiments/beast_fmri_test/images/T.png'></img>	71,89	2750.0	test	<img class = center src='/static/experiments/beast_fmri_test/images/redT.png'></img>	stop	2200.0	3.0	23.0	stop	non-target	T	71,Index Finger	89,Middle Finger	550.0	550.0	2200.0	2200.0	0.0	0.0	550.0	n/a	stop_stim
109101.81988805789	3174.1801119420961	n/a	693	89	2750	3174.18011194	stim	stop-signal	246	802646	0.0-13.23-1.23	beast_fmri_test	278	800488,/,801157,/,801838,/,802517,/,803195,/,803872,/,804551,/,805232,/	t,t,t,t,t,t,t,t	<img class = center src='/static/experiments/beast_fmri_test/images/T.png'></img>	71,89	2750.0	test	<img class = center src='/static/experiments/beast_fmri_test/images/redT.png'></img>	stop	2200.0	3.0	23.0	stop	non-target	T	71,Index Finger	89,Middle Finger	550.0	550.0	2200.0	2200.0	0.0	0.0	550.0	n/a	ITI
115975	500	n/a	-1	-1	500	0.0	fixation	poldrack-single-stim	247	806345	0.0-13.24-0.24	beast_fmri_test	278	805911,/	t	<div class = centerbox2><div class = fixation>+</div></div>	none	500.0	test	n/a	n/a	n/a	n/a	n/a	n/a	n/a	n/a	n/a	n/a	n/a	n/a	n/a	n/a	n/a	n/a	n/a	n/a	fixation
114467.24441334989	2750	n/a	637	89	2750	1510.75558665	stim	stop-signal	248	809098	0.0-13.24-1.24	beast_fmri_test	278	806593,/,807271,/,807952,/,808631,/,809313,/,809992,/	t,t,t,t,t,t	<img class = center src='/static/experiments/beast_fmri_test/images/D.png'></img>	71,89	2750.0	test	<img class = center src='/static/experiments/beast_fmri_test/images/redD.png'></img>	go	2250.0	3.0	24.0	go	non-target	D	71,Index Finger	89,Middle Finger	550.0	500.0	2200.0	2250.0	1.0	n/a	500.0	1.0	go_stim
117217.24441334989	1510.7555866501471	n/a	637	89	2750	1510.75558665	stim	stop-signal	248	809098	0.0-13.24-1.24	beast_fmri_test	278	806593,/,807271,/,807952,/,808631,/,809313,/,809992,/	t,t,t,t,t,t	<img class = center src='/static/experiments/beast_fmri_test/images/D.png'></img>	71,89	2750.0	test	<img class = center src='/static/experiments/beast_fmri_test/images/redD.png'></img>	go	2250.0	3.0	24.0	go	non-target	D	71,Index Finger	89,Middle Finger	550.0	500.0	2200.0	2250.0	1.0	n/a	500.0	1.0	ITI
120767	500	n/a	-1	-1	500	0.0	fixation	poldrack-single-stim	249	811137	0.0-13.25-0.25	beast_fmri_test	278	810671,/	t	<div class = centerbox2><div class = fixation>+</div></div>	none	500.0	test	n/a	n/a	n/a	n/a	n/a	n/a	n/a	n/a	n/a	n/a	n/a	n/a	n/a	n/a	n/a	n/a	n/a	n/a	fixation
120728.2734652661	2750	n/a	638	89	2750	37.7265347339	stim	stop-signal	250	813886	0.0-13.25-1.25	beast_fmri_test	278	811352,/,812032,/,812710,/,813389,/	t,t,t,t	<img class = center src='/static/experiments/beast_fmri_test/images/V.png'></img>	71,89	2750.0	test	<img class = center src='/static/experiments/beast_fmri_test/images/redV.png'></img>	go	2250.0	3.0	25.0	go	non-target	V	71,Index Finger	89,Middle Finger	550.0	500.0	2200.0	2250.0	1.0	n/a	500.0	1.0	go_stim
123478.2734652661	37.72653473393801	n/a	638	89	2750	37.7265347339	stim	stop-signal	250	813886	0.0-13.25-1.25	beast_fmri_test	278	811352,/,812032,/,812710,/,813389,/	t,t,t,t	<img class = center src='/static/experiments/beast_fmri_test/images/V.png'></img>	71,89	2750.0	test	<img class = center src='/static/experiments/beast_fmri_test/images/redV.png'></img>	go	2250.0	3.0	25.0	go	non-target	V	71,Index Finger	89,Middle Finger	550.0	500.0	2200.0	2250.0	1.0	n/a	500.0	1.0	ITI
124079	500	n/a	-1	-1	500	0.0	fixation	poldrack-single-stim	251	814449	0.0-13.26-0.26	beast_fmri_test	278	814066,/	t	<div class = centerbox2><div class = fixation>+</div></div>	none	500.0	test	n/a	n/a	n/a	n/a	n/a	n/a	n/a	n/a	n/a	n/a	n/a	n/a	n/a	n/a	n/a	n/a	n/a	n/a	fixation
123837.13649338589	2750	n/a	1091	89	2750	244.863506614	stim	stop-signal	252	817202	0.0-13.26-1.26	beast_fmri_test	278	814746,/,815428,/,816107,/,816788,/	t,t,t,t	<img class = center src='/static/experiments/beast_fmri_test/images/V.png'></img>	71,89	2750.0	test	<img class = center src='/static/experiments/beast_fmri_test/images/redV.png'></img>	go	2250.0	3.0	26.0	go	non-target	V	71,Index Finger	89,Middle Finger	550.0	500.0	2200.0	2250.0	1.0	n/a	500.0	1.0	go_stim
126587.13649338589	244.86350661415119	n/a	1091	89	2750	244.863506614	stim	stop-signal	252	817202	0.0-13.26-1.26	beast_fmri_test	278	814746,/,815428,/,816107,/,816788,/	t,t,t,t	<img class = center src='/static/experiments/beast_fmri_test/images/V.png'></img>	71,89	2750.0	test	<img class = center src='/static/experiments/beast_fmri_test/images/redV.png'></img>	go	2250.0	3.0	26.0	go	non-target	V	71,Index Finger	89,Middle Finger	550.0	500.0	2200.0	2250.0	1.0	n/a	500.0	1.0	ITI
127603	500	n/a	-1	-1	500	0.0	fixation	poldrack-single-stim	253	817973	0.0-13.27-0.27	beast_fmri_test	278	817472,/	t	<div class = centerbox2><div class = fixation>+</div></div>	none	500.0	test	n/a	n/a	n/a	n/a	n/a	n/a	n/a	n/a	n/a	n/a	n/a	n/a	n/a	n/a	n/a	n/a	n/a	n/a	fixation
127586.13392182905	2750	n/a	1098	89	2750	20.866078171	stim	stop-signal	254	820727	0.0-13.27-1.27	beast_fmri_test	278	818149,/,818828,/,819508,/,820188,/	t,t,t,t	<img class = center src='/static/experiments/beast_fmri_test/images/B.png'></img>	71,89	2750.0	test	<img class = center src='/static/experiments/beast_fmri_test/images/redB.png'></img>	go	2250.0	3.0	27.0	go	non-target	B	71,Index Finger	89,Middle Finger	550.0	500.0	2200.0	2250.0	1.0	n/a	500.0	1.0	go_stim
130336.13392182905	20.86607817098492	n/a	1098	89	2750	20.866078171	stim	stop-signal	254	820727	0.0-13.27-1.27	beast_fmri_test	278	818149,/,818828,/,819508,/,820188,/	t,t,t,t	<img class = center src='/static/experiments/beast_fmri_test/images/B.png'></img>	71,89	2750.0	test	<img class = center src='/static/experiments/beast_fmri_test/images/redB.png'></img>	go	2250.0	3.0	27.0	go	non-target	B	71,Index Finger	89,Middle Finger	550.0	500.0	2200.0	2250.0	1.0	n/a	500.0	1.0	ITI
130908	500	n/a	-1	-1	500	0.0	fixation	poldrack-single-stim	255	821278	0.0-13.28-0.28	beast_fmri_test	278	820867,/	t	<div class = centerbox2><div class = fixation>+</div></div>	none	500.0	test	n/a	n/a	n/a	n/a	n/a	n/a	n/a	n/a	n/a	n/a	n/a	n/a	n/a	n/a	n/a	n/a	n/a	n/a	fixation
130348.21109382471	2750	n/a	751	89	2750	557.788906175	stim	stop-signal	256	824026	0.0-13.28-1.28	beast_fmri_test	278	821548,/,822227,/,822906,/,823584,/,824263,/	t,t,t,t,t	<img class = center src='/static/experiments/beast_fmri_test/images/T.png'></img>	71,89	2750.0	test	<img class = center src='/static/experiments/beast_fmri_test/images/redT.png'></img>	go	2250.0	3.0	28.0	go	non-target	T	71,Index Finger	89,Middle Finger	550.0	500.0	2200.0	2250.0	1.0	n/a	500.0	1.0	go_stim
133098.21109382471	557.7889061753217	n/a	751	89	2750	557.788906175	stim	stop-signal	256	824026	0.0-13.28-1.28	beast_fmri_test	278	821548,/,822227,/,822906,/,823584,/,824263,/	t,t,t,t,t	<img class = center src='/static/experiments/beast_fmri_test/images/T.png'></img>	71,89	2750.0	test	<img class = center src='/static/experiments/beast_fmri_test/images/redT.png'></img>	go	2250.0	3.0	28.0	go	non-target	T	71,Index Finger	89,Middle Finger	550.0	500.0	2200.0	2250.0	1.0	n/a	500.0	1.0	ITI
134744	500	n/a	-1	-1	500	0.0	fixation	poldrack-single-stim	257	825114	0.0-13.29-0.29	beast_fmri_test	278	824943,/	t	<div class = centerbox2><div class = fixation>+</div></div>	none	500.0	test	n/a	n/a	n/a	n/a	n/a	n/a	n/a	n/a	n/a	n/a	n/a	n/a	n/a	n/a	n/a	n/a	n/a	n/a	fixation
133330.47445903404	2750	n/a	747	89	2750	1414.52554097	stim	stop-signal	258	827865	0.0-13.29-1.29	beast_fmri_test	278	825624,/,826303,/,826982,/,827664,/,828343,/,829022,/	t,t,t,t,t,t	<img class = center src='/static/experiments/beast_fmri_test/images/T.png'></img>	71,89	2750.0	test	<img class = center src='/static/experiments/beast_fmri_test/images/redT.png'></img>	go	2250.0	3.0	29.0	go	non-target	T	71,Index Finger	89,Middle Finger	550.0	500.0	2200.0	2250.0	1.0	n/a	500.0	1.0	go_stim
136080.47445903404	1414.5255409659565	n/a	747	89	2750	1414.52554097	stim	stop-signal	258	827865	0.0-13.29-1.29	beast_fmri_test	278	825624,/,826303,/,826982,/,827664,/,828343,/,829022,/	t,t,t,t,t,t	<img class = center src='/static/experiments/beast_fmri_test/images/T.png'></img>	71,89	2750.0	test	<img class = center src='/static/experiments/beast_fmri_test/images/redT.png'></img>	go	2250.0	3.0	29.0	go	non-target	T	71,Index Finger	89,Middle Finger	550.0	500.0	2200.0	2250.0	1.0	n/a	500.0	1.0	ITI
139441	500	n/a	-1	-1	500	0.0	fixation	poldrack-single-stim	259	829811	0.0-13.30-0.30	beast_fmri_test	278	829703,/	t	<div class = centerbox2><div class = fixation>+</div></div>	none	500.0	test	n/a	n/a	n/a	n/a	n/a	n/a	n/a	n/a	n/a	n/a	n/a	n/a	n/a	n/a	n/a	n/a	n/a	n/a	fixation
139400.06150360475	2750	n/a	785	71	2750	43.9384963953	stim	stop-signal	260	832564	0.0-13.30-1.30	beast_fmri_test	278	830384,/,831063,/,831742,/,832424,/	t,t,t,t	<img class = center src='/static/experiments/beast_fmri_test/images/B.png'></img>	71,89	2750.0	test	<img class = center src='/static/experiments/beast_fmri_test/images/redB.png'></img>	go	2200.0	3.0	30.0	go	target	B	71,Index Finger	89,Middle Finger	550.0	500.0	2200.0	2250.0	1.0	n/a	550.0	1.0	go_stim
142150.06150360475	43.938496395272779	n/a	785	71	2750	43.9384963953	stim	stop-signal	260	832564	0.0-13.30-1.30	beast_fmri_test	278	830384,/,831063,/,831742,/,832424,/	t,t,t,t	<img class = center src='/static/experiments/beast_fmri_test/images/B.png'></img>	71,89	2750.0	test	<img class = center src='/static/experiments/beast_fmri_test/images/redB.png'></img>	go	2200.0	3.0	30.0	go	target	B	71,Index Finger	89,Middle Finger	550.0	500.0	2200.0	2250.0	1.0	n/a	550.0	1.0	ITI
142762	500	n/a	-1	-1	500	0.0	fixation	poldrack-single-stim	261	833132	0.0-13.31-0.31	beast_fmri_test	278	833102,/	t	<div class = centerbox2><div class = fixation>+</div></div>	none	500.0	test	n/a	n/a	n/a	n/a	n/a	n/a	n/a	n/a	n/a	n/a	n/a	n/a	n/a	n/a	n/a	n/a	n/a	n/a	fixation
142526.34970939485	2750	n/a	550	71	2750	235.650290605	stim	stop-signal	262	835882	0.0-13.31-1.31	beast_fmri_test	278	833778,/,834458,/,835138,/,835817,/	t,t,t,t	<img class = center src='/static/experiments/beast_fmri_test/images/T.png'></img>	71,89	2750.0	test	<img class = center src='/static/experiments/beast_fmri_test/images/redT.png'></img>	go	2200.0	3.0	31.0	go	target	T	71,Index Finger	89,Middle Finger	550.0	500.0	2200.0	2250.0	1.0	n/a	550.0	1.0	go_stim
145276.34970939485	235.6502906051403	n/a	550	71	2750	235.650290605	stim	stop-signal	262	835882	0.0-13.31-1.31	beast_fmri_test	278	833778,/,834458,/,835138,/,835817,/	t,t,t,t	<img class = center src='/static/experiments/beast_fmri_test/images/T.png'></img>	71,89	2750.0	test	<img class = center src='/static/experiments/beast_fmri_test/images/redT.png'></img>	go	2200.0	3.0	31.0	go	target	T	71,Index Finger	89,Middle Finger	550.0	500.0	2200.0	2250.0	1.0	n/a	550.0	1.0	ITI
146278	500	n/a	-1	-1	500	0.0	fixation	poldrack-single-stim	263	836648	0.0-13.32-0.32	beast_fmri_test	278	836499,/	t	<div class = centerbox2><div class = fixation>+</div></div>	none	500.0	test	n/a	n/a	n/a	n/a	n/a	n/a	n/a	n/a	n/a	n/a	n/a	n/a	n/a	n/a	n/a	n/a	n/a	n/a	fixation
146221.99304789398	550.0	n/a	741	71	2750	59.006952106	stim	stop-signal	264	839401	0.0-13.32-1.32	beast_fmri_test	278	837177,/,837859,/,838539,/,839219,/	t,t,t,t	<img class = center src='/static/experiments/beast_fmri_test/images/T.png'></img>	71,89	2750.0	test	<img class = center src='/static/experiments/beast_fmri_test/images/redT.png'></img>	stop	2200.0	3.0	32.0	stop	target	T	71,Index Finger	89,Middle Finger	550.0	500.0	2200.0	2250.0	0.0	0.0	550.0	n/a	go_stim
148421.99304789398	2200.0	n/a	741	71	2750	59.006952106	stim	stop-signal	264	839401	0.0-13.32-1.32	beast_fmri_test	278	837177,/,837859,/,838539,/,839219,/	t,t,t,t	<img class = center src='/static/experiments/beast_fmri_test/images/T.png'></img>	71,89	2750.0	test	<img class = center src='/static/experiments/beast_fmri_test/images/redT.png'></img>	stop	2200.0	3.0	32.0	stop	target	T	71,Index Finger	89,Middle Finger	550.0	500.0	2200.0	2250.0	0.0	0.0	550.0	n/a	stop_stim
148971.99304789398	59.006952105993072	n/a	741	71	2750	59.006952106	stim	stop-signal	264	839401	0.0-13.32-1.32	beast_fmri_test	278	837177,/,837859,/,838539,/,839219,/	t,t,t,t	<img class = center src='/static/experiments/beast_fmri_test/images/T.png'></img>	71,89	2750.0	test	<img class = center src='/static/experiments/beast_fmri_test/images/redT.png'></img>	stop	2200.0	3.0	32.0	stop	target	T	71,Index Finger	89,Middle Finger	550.0	500.0	2200.0	2250.0	0.0	0.0	550.0	n/a	ITI
149620	500	n/a	-1	-1	500	0.0	fixation	poldrack-single-stim	265	839990	0.0-13.33-0.33	beast_fmri_test	278	839897,/	t	<div class = centerbox2><div class = fixation>+</div></div>	none	500.0	test	n/a	n/a	n/a	n/a	n/a	n/a	n/a	n/a	n/a	n/a	n/a	n/a	n/a	n/a	n/a	n/a	n/a	n/a	fixation
149496.19747819635	2750	n/a	657	71	2750	125.802521804	stim	stop-signal	266	842742	0.0-13.33-1.33	beast_fmri_test	278	840578,/,841257,/,841937,/,842618,/	t,t,t,t	<img class = center src='/static/experiments/beast_fmri_test/images/B.png'></img>	71,89	2750.0	test	<img class = center src='/static/experiments/beast_fmri_test/images/redB.png'></img>	go	2250.0	3.0	33.0	go	target	B	71,Index Finger	89,Middle Finger	500.0	500.0	2250.0	2250.0	1.0	n/a	500.0	1.0	go_stim
152246.19747819635	125.80252180365228	n/a	657	71	2750	125.802521804	stim	stop-signal	266	842742	0.0-13.33-1.33	beast_fmri_test	278	840578,/,841257,/,841937,/,842618,/	t,t,t,t	<img class = center src='/static/experiments/beast_fmri_test/images/B.png'></img>	71,89	2750.0	test	<img class = center src='/static/experiments/beast_fmri_test/images/redB.png'></img>	go	2250.0	3.0	33.0	go	target	B	71,Index Finger	89,Middle Finger	500.0	500.0	2250.0	2250.0	1.0	n/a	500.0	1.0	ITI
153022	500	n/a	-1	-1	500	0.0	fixation	poldrack-single-stim	267	843392	0.0-13.34-0.34	beast_fmri_test	278	843295,/	t	<div class = centerbox2><div class = fixation>+</div></div>	none	500.0	test	n/a	n/a	n/a	n/a	n/a	n/a	n/a	n/a	n/a	n/a	n/a	n/a	n/a	n/a	n/a	n/a	n/a	n/a	fixation
152986.25590205356	2750	n/a	895	71	2750	35.7440979465	stim	stop-signal	268	846142	0.0-13.34-1.34	beast_fmri_test	278	843973,/,844654,/,845334,/,846015,/	t,t,t,t	<img class = center src='/static/experiments/beast_fmri_test/images/V.png'></img>	71,89	2750.0	test	<img class = center src='/static/experiments/beast_fmri_test/images/redV.png'></img>	go	2250.0	3.0	34.0	go	non-target	V	71,Index Finger	89,Middle Finger	500.0	500.0	2250.0	2250.0	0.0	n/a	500.0	0.0	go_stim
155736.25590205356	35.744097946481133	n/a	895	71	2750	35.7440979465	stim	stop-signal	268	846142	0.0-13.34-1.34	beast_fmri_test	278	843973,/,844654,/,845334,/,846015,/	t,t,t,t	<img class = center src='/static/experiments/beast_fmri_test/images/V.png'></img>	71,89	2750.0	test	<img class = center src='/static/experiments/beast_fmri_test/images/redV.png'></img>	go	2250.0	3.0	34.0	go	non-target	V	71,Index Finger	89,Middle Finger	500.0	500.0	2250.0	2250.0	0.0	n/a	500.0	0.0	ITI
156340	500	n/a	-1	-1	500	0.0	fixation	poldrack-single-stim	269	846710	0.0-13.35-0.35	beast_fmri_test	278	846695,/	t	<div class = centerbox2><div class = fixation>+</div></div>	none	500.0	test	n/a	n/a	n/a	n/a	n/a	n/a	n/a	n/a	n/a	n/a	n/a	n/a	n/a	n/a	n/a	n/a	n/a	n/a	fixation
155098.96094551042	500.0	n/a	993	89	2750	1244.03905449	stim	stop-signal	270	849463	0.0-13.35-1.35	beast_fmri_test	278	847375,/,848054,/,848735,/,849414,/,850094,/	t,t,t,t,t	<img class = center src='/static/experiments/beast_fmri_test/images/P.png'></img>	71,89	2750.0	test	<img class = center src='/static/experiments/beast_fmri_test/images/redP.png'></img>	stop	2250.0	3.0	35.0	stop	non-target	P	71,Index Finger	89,Middle Finger	500.0	500.0	2250.0	2250.0	0.0	0.0	500.0	n/a	go_stim
157348.96094551042	2250.0	n/a	993	89	2750	1244.03905449	stim	stop-signal	270	849463	0.0-13.35-1.35	beast_fmri_test	278	847375,/,848054,/,848735,/,849414,/,850094,/	t,t,t,t,t	<img class = center src='/static/experiments/beast_fmri_test/images/P.png'></img>	71,89	2750.0	test	<img class = center src='/static/experiments/beast_fmri_test/images/redP.png'></img>	stop	2250.0	3.0	35.0	stop	non-target	P	71,Index Finger	89,Middle Finger	500.0	500.0	2250.0	2250.0	0.0	0.0	500.0	n/a	stop_stim
157848.96094551042	1244.0390544896302	n/a	993	89	2750	1244.03905449	stim	stop-signal	270	849463	0.0-13.35-1.35	beast_fmri_test	278	847375,/,848054,/,848735,/,849414,/,850094,/	t,t,t,t,t	<img class = center src='/static/experiments/beast_fmri_test/images/P.png'></img>	71,89	2750.0	test	<img class = center src='/static/experiments/beast_fmri_test/images/redP.png'></img>	stop	2250.0	3.0	35.0	stop	non-target	P	71,Index Finger	89,Middle Finger	500.0	500.0	2250.0	2250.0	0.0	0.0	500.0	n/a	ITI
160867	500	n/a	-1	-1	500	0.0	fixation	poldrack-single-stim	271	851237	0.0-13.36-0.36	beast_fmri_test	278	850778,/	t	<div class = centerbox2><div class = fixation>+</div></div>	none	500.0	test	n/a	n/a	n/a	n/a	n/a	n/a	n/a	n/a	n/a	n/a	n/a	n/a	n/a	n/a	n/a	n/a	n/a	n/a	fixation
160229.09100711206	450.0	n/a	-1	-1	2750	635.908992888	stim	stop-signal	272	853985	0.0-13.36-1.36	beast_fmri_test	278	851455,/,852135,/,852814,/,853490,/,854169,/	t,t,t,t,t	<img class = center src='/static/experiments/beast_fmri_test/images/V.png'></img>	71,89	2750.0	test	<img class = center src='/static/experiments/beast_fmri_test/images/redV.png'></img>	stop	2300.0	3.0	36.0	stop	non-target	V	71,Index Finger	89,Middle Finger	500.0	450.0	2250.0	2300.0	0.0	1.0	450.0	n/a	go_stim
162529.09100711206	2300.0	n/a	-1	-1	2750	635.908992888	stim	stop-signal	272	853985	0.0-13.36-1.36	beast_fmri_test	278	851455,/,852135,/,852814,/,853490,/,854169,/	t,t,t,t,t	<img class = center src='/static/experiments/beast_fmri_test/images/V.png'></img>	71,89	2750.0	test	<img class = center src='/static/experiments/beast_fmri_test/images/redV.png'></img>	stop	2300.0	3.0	36.0	stop	non-target	V	71,Index Finger	89,Middle Finger	500.0	450.0	2250.0	2300.0	0.0	1.0	450.0	n/a	stop_stim
162979.09100711206	635.90899288788228	n/a	-1	-1	2750	635.908992888	stim	stop-signal	272	853985	0.0-13.36-1.36	beast_fmri_test	278	851455,/,852135,/,852814,/,853490,/,854169,/	t,t,t,t,t	<img class = center src='/static/experiments/beast_fmri_test/images/V.png'></img>	71,89	2750.0	test	<img class = center src='/static/experiments/beast_fmri_test/images/redV.png'></img>	stop	2300.0	3.0	36.0	stop	non-target	V	71,Index Finger	89,Middle Finger	500.0	450.0	2250.0	2300.0	0.0	1.0	450.0	n/a	ITI
164784	500	n/a	-1	-1	500	0.0	fixation	poldrack-single-stim	273	855154	0.0-13.37-0.37	beast_fmri_test	278	854850,/	t	<div class = centerbox2><div class = fixation>+</div></div>	none	500.0	test	n/a	n/a	n/a	n/a	n/a	n/a	n/a	n/a	n/a	n/a	n/a	n/a	n/a	n/a	n/a	n/a	n/a	n/a	fixation
164209.78742929525	2750	n/a	620	89	2750	579.212570705	stim	stop-signal	274	857909	0.0-13.37-1.37	beast_fmri_test	278	855530,/,856209,/,856890,/,857569,/,858249,/	t,t,t,t,t	<img class = center src='/static/experiments/beast_fmri_test/images/D.png'></img>	71,89	2750.0	test	<img class = center src='/static/experiments/beast_fmri_test/images/redD.png'></img>	go	2250.0	3.0	37.0	go	non-target	D	71,Index Finger	89,Middle Finger	500.0	500.0	2250.0	2250.0	1.0	n/a	500.0	1.0	go_stim
166959.78742929525	579.21257070480738	n/a	620	89	2750	579.212570705	stim	stop-signal	274	857909	0.0-13.37-1.37	beast_fmri_test	278	855530,/,856209,/,856890,/,857569,/,858249,/	t,t,t,t,t	<img class = center src='/static/experiments/beast_fmri_test/images/D.png'></img>	71,89	2750.0	test	<img class = center src='/static/experiments/beast_fmri_test/images/redD.png'></img>	go	2250.0	3.0	37.0	go	non-target	D	71,Index Finger	89,Middle Finger	500.0	500.0	2250.0	2250.0	1.0	n/a	500.0	1.0	ITI
168650	500	n/a	-1	-1	500	0.0	fixation	poldrack-single-stim	275	859020	0.0-13.38-0.38	beast_fmri_test	278	858930,/	t	<div class = centerbox2><div class = fixation>+</div></div>	none	500.0	test	n/a	n/a	n/a	n/a	n/a	n/a	n/a	n/a	n/a	n/a	n/a	n/a	n/a	n/a	n/a	n/a	n/a	n/a	fixation
167750.66761010198	2750	n/a	860	89	2750	902.332389898	stim	stop-signal	276	861773	0.0-13.38-1.38	beast_fmri_test	278	859609,/,860289,/,860969,/,861649,/,862330,/	t,t,t,t,t	<img class = center src='/static/experiments/beast_fmri_test/images/V.png'></img>	71,89	2750.0	test	<img class = center src='/static/experiments/beast_fmri_test/images/redV.png'></img>	go	2250.0	3.0	38.0	go	non-target	V	71,Index Finger	89,Middle Finger	500.0	500.0	2250.0	2250.0	1.0	n/a	500.0	1.0	go_stim
170500.66761010198	902.33238989796473	n/a	860	89	2750	902.332389898	stim	stop-signal	276	861773	0.0-13.38-1.38	beast_fmri_test	278	859609,/,860289,/,860969,/,861649,/,862330,/	t,t,t,t,t	<img class = center src='/static/experiments/beast_fmri_test/images/V.png'></img>	71,89	2750.0	test	<img class = center src='/static/experiments/beast_fmri_test/images/redV.png'></img>	go	2250.0	3.0	38.0	go	non-target	V	71,Index Finger	89,Middle Finger	500.0	500.0	2250.0	2250.0	1.0	n/a	500.0	1.0	ITI
172830	500	n/a	-1	-1	500	0.0	fixation	poldrack-single-stim	277	863200	0.0-13.39-0.39	beast_fmri_test	278	863007,/	t	<div class = centerbox2><div class = fixation>+</div></div>	none	500.0	test	n/a	n/a	n/a	n/a	n/a	n/a	n/a	n/a	n/a	n/a	n/a	n/a	n/a	n/a	n/a	n/a	n/a	n/a	fixation
171826.36109482415	500.0	n/a	692	71	2750	1004.63890518	stim	stop-signal	278	865951	0.0-13.39-1.39	beast_fmri_test	278	863684,/,864364,/,865044,/,865725,/,866405,/	t,t,t,t,t	<img class = center src='/static/experiments/beast_fmri_test/images/V.png'></img>	71,89	2750.0	test	<img class = center src='/static/experiments/beast_fmri_test/images/redV.png'></img>	stop	2250.0	3.0	39.0	stop	target	V	71,Index Finger	89,Middle Finger	500.0	500.0	2250.0	2250.0	0.0	0.0	500.0	n/a	go_stim
174076.36109482415	2250.0	n/a	692	71	2750	1004.63890518	stim	stop-signal	278	865951	0.0-13.39-1.39	beast_fmri_test	278	863684,/,864364,/,865044,/,865725,/,866405,/	t,t,t,t,t	<img class = center src='/static/experiments/beast_fmri_test/images/V.png'></img>	71,89	2750.0	test	<img class = center src='/static/experiments/beast_fmri_test/images/redV.png'></img>	stop	2250.0	3.0	39.0	stop	target	V	71,Index Finger	89,Middle Finger	500.0	500.0	2250.0	2250.0	0.0	0.0	500.0	n/a	stop_stim
174576.36109482415	1004.6389051758257	n/a	692	71	2750	1004.63890518	stim	stop-signal	278	865951	0.0-13.39-1.39	beast_fmri_test	278	863684,/,864364,/,865044,/,865725,/,866405,/	t,t,t,t,t	<img class = center src='/static/experiments/beast_fmri_test/images/V.png'></img>	71,89	2750.0	test	<img class = center src='/static/experiments/beast_fmri_test/images/redV.png'></img>	stop	2250.0	3.0	39.0	stop	target	V	71,Index Finger	89,Middle Finger	500.0	500.0	2250.0	2250.0	0.0	0.0	500.0	n/a	ITI
177120	500	n/a	-1	-1	500	0.0	fixation	poldrack-single-stim	279	867490	0.0-13.40-0.40	beast_fmri_test	278	867085,/	t	<div class = centerbox2><div class = fixation>+</div></div>	none	500.0	test	n/a	n/a	n/a	n/a	n/a	n/a	n/a	n/a	n/a	n/a	n/a	n/a	n/a	n/a	n/a	n/a	n/a	n/a	fixation
175247.99480476114	500.0	n/a	628	89	2750	1874.00519524	stim	stop-signal	280	870242	0.0-13.40-1.40	beast_fmri_test	278	867765,/,868447,/,869124,/,869804,/,870485,/,871164,/,871845,/	t,t,t,t,t,t,t	<img class = center src='/static/experiments/beast_fmri_test/images/B.png'></img>	71,89	2750.0	test	<img class = center src='/static/experiments/beast_fmri_test/images/redB.png'></img>	stop	2250.0	3.0	40.0	stop	non-target	B	71,Index Finger	89,Middle Finger	450.0	500.0	2250.0	2250.0	0.0	0.0	500.0	n/a	go_stim
177497.99480476114	2250.0	n/a	628	89	2750	1874.00519524	stim	stop-signal	280	870242	0.0-13.40-1.40	beast_fmri_test	278	867765,/,868447,/,869124,/,869804,/,870485,/,871164,/,871845,/	t,t,t,t,t,t,t	<img class = center src='/static/experiments/beast_fmri_test/images/B.png'></img>	71,89	2750.0	test	<img class = center src='/static/experiments/beast_fmri_test/images/redB.png'></img>	stop	2250.0	3.0	40.0	stop	non-target	B	71,Index Finger	89,Middle Finger	450.0	500.0	2250.0	2250.0	0.0	0.0	500.0	n/a	stop_stim
177997.99480476114	1874.0051952388785	n/a	628	89	2750	1874.00519524	stim	stop-signal	280	870242	0.0-13.40-1.40	beast_fmri_test	278	867765,/,868447,/,869124,/,869804,/,870485,/,871164,/,871845,/	t,t,t,t,t,t,t	<img class = center src='/static/experiments/beast_fmri_test/images/B.png'></img>	71,89	2750.0	test	<img class = center src='/static/experiments/beast_fmri_test/images/redB.png'></img>	stop	2250.0	3.0	40.0	stop	non-target	B	71,Index Finger	89,Middle Finger	450.0	500.0	2250.0	2250.0	0.0	0.0	500.0	n/a	ITI
182280	500	n/a	-1	-1	500	0.0	fixation	poldrack-single-stim	281	872650	0.0-13.41-0.41	beast_fmri_test	278	872524,/	t	<div class = centerbox2><div class = fixation>+</div></div>	none	500.0	test	n/a	n/a	n/a	n/a	n/a	n/a	n/a	n/a	n/a	n/a	n/a	n/a	n/a	n/a	n/a	n/a	n/a	n/a	fixation
181995.34837033658	2750	n/a	759	89	2750	282.651629663	stim	stop-signal	282	875398	0.0-13.41-1.41	beast_fmri_test	278	873202,/,873879,/,874559,/,875241,/	t,t,t,t	<img class = center src='/static/experiments/beast_fmri_test/images/T.png'></img>	71,89	2750.0	test	<img class = center src='/static/experiments/beast_fmri_test/images/redT.png'></img>	go	2300.0	3.0	41.0	go	non-target	T	71,Index Finger	89,Middle Finger	450.0	450.0	2250.0	2300.0	1.0	n/a	450.0	1.0	go_stim
184745.34837033658	282.65162966340631	n/a	759	89	2750	282.651629663	stim	stop-signal	282	875398	0.0-13.41-1.41	beast_fmri_test	278	873202,/,873879,/,874559,/,875241,/	t,t,t,t	<img class = center src='/static/experiments/beast_fmri_test/images/T.png'></img>	71,89	2750.0	test	<img class = center src='/static/experiments/beast_fmri_test/images/redT.png'></img>	go	2300.0	3.0	41.0	go	non-target	T	71,Index Finger	89,Middle Finger	450.0	450.0	2250.0	2300.0	1.0	n/a	450.0	1.0	ITI
185841	500	n/a	-1	-1	500	0.0	fixation	poldrack-single-stim	283	876211	0.0-13.42-0.42	beast_fmri_test	278	875921,/	t	<div class = centerbox2><div class = fixation>+</div></div>	none	500.0	test	n/a	n/a	n/a	n/a	n/a	n/a	n/a	n/a	n/a	n/a	n/a	n/a	n/a	n/a	n/a	n/a	n/a	n/a	fixation
185433.16846254072	450.0	n/a	-1	-1	2750	409.831537459	stim	stop-signal	284	878963	0.0-13.42-1.42	beast_fmri_test	278	876600,/,877280,/,877960,/,878640,/,879320,/	t,t,t,t,t	<img class = center src='/static/experiments/beast_fmri_test/images/T.png'></img>	71,89	2750.0	test	<img class = center src='/static/experiments/beast_fmri_test/images/redT.png'></img>	stop	2300.0	3.0	42.0	stop	non-target	T	71,Index Finger	89,Middle Finger	450.0	450.0	2250.0	2300.0	0.0	1.0	450.0	n/a	go_stim
187733.16846254072	2300.0	n/a	-1	-1	2750	409.831537459	stim	stop-signal	284	878963	0.0-13.42-1.42	beast_fmri_test	278	876600,/,877280,/,877960,/,878640,/,879320,/	t,t,t,t,t	<img class = center src='/static/experiments/beast_fmri_test/images/T.png'></img>	71,89	2750.0	test	<img class = center src='/static/experiments/beast_fmri_test/images/redT.png'></img>	stop	2300.0	3.0	42.0	stop	non-target	T	71,Index Finger	89,Middle Finger	450.0	450.0	2250.0	2300.0	0.0	1.0	450.0	n/a	stop_stim
188183.16846254072	409.83153745927683	n/a	-1	-1	2750	409.831537459	stim	stop-signal	284	878963	0.0-13.42-1.42	beast_fmri_test	278	876600,/,877280,/,877960,/,878640,/,879320,/	t,t,t,t,t	<img class = center src='/static/experiments/beast_fmri_test/images/T.png'></img>	71,89	2750.0	test	<img class = center src='/static/experiments/beast_fmri_test/images/redT.png'></img>	stop	2300.0	3.0	42.0	stop	non-target	T	71,Index Finger	89,Middle Finger	450.0	450.0	2250.0	2300.0	0.0	1.0	450.0	n/a	ITI
189536	500	n/a	-1	-1	500	0.0	fixation	poldrack-single-stim	285	879906	0.0-13.43-0.43	beast_fmri_test	278	n/a	n/a	<div class = centerbox2><div class = fixation>+</div></div>	none	500.0	test	n/a	n/a	n/a	n/a	n/a	n/a	n/a	n/a	n/a	n/a	n/a	n/a	n/a	n/a	n/a	n/a	n/a	n/a	fixation
188528.75362002349	2750	n/a	794	89	2750	1010.24637998	stim	stop-signal	286	882659	0.0-13.43-1.43	beast_fmri_test	278	879999,/,880681,/,881360,/,882039,/,882719,/,883397,/	t,t,t,t,t,t	<img class = center src='/static/experiments/beast_fmri_test/images/V.png'></img>	71,89	2750.0	test	<img class = center src='/static/experiments/beast_fmri_test/images/redV.png'></img>	go	2250.0	3.0	43.0	go	non-target	V	71,Index Finger	89,Middle Finger	450.0	500.0	2250.0	2250.0	1.0	n/a	500.0	1.0	go_stim
191278.75362002349	1010.246379976452	n/a	794	89	2750	1010.24637998	stim	stop-signal	286	882659	0.0-13.43-1.43	beast_fmri_test	278	879999,/,880681,/,881360,/,882039,/,882719,/,883397,/	t,t,t,t,t,t	<img class = center src='/static/experiments/beast_fmri_test/images/V.png'></img>	71,89	2750.0	test	<img class = center src='/static/experiments/beast_fmri_test/images/redV.png'></img>	go	2250.0	3.0	43.0	go	non-target	V	71,Index Finger	89,Middle Finger	450.0	500.0	2250.0	2250.0	1.0	n/a	500.0	1.0	ITI
193823	500	n/a	-1	-1	500	0.0	fixation	poldrack-single-stim	287	884193	0.0-13.44-0.44	beast_fmri_test	278	884076,/	t	<div class = centerbox2><div class = fixation>+</div></div>	none	500.0	test	n/a	n/a	n/a	n/a	n/a	n/a	n/a	n/a	n/a	n/a	n/a	n/a	n/a	n/a	n/a	n/a	n/a	n/a	fixation
191993.25261751749	2750	n/a	832	89	2750	1833.74738248	stim	stop-signal	288	886947	0.0-13.44-1.44	beast_fmri_test	278	884755,/,885435,/,886115,/,886795,/,887474,/,888154,/	t,t,t,t,t,t	<img class = center src='/static/experiments/beast_fmri_test/images/B.png'></img>	71,89	2750.0	test	<img class = center src='/static/experiments/beast_fmri_test/images/redB.png'></img>	go	2250.0	3.0	44.0	go	non-target	B	71,Index Finger	89,Middle Finger	450.0	500.0	2250.0	2250.0	1.0	n/a	500.0	1.0	go_stim
194743.25261751749	1833.747382482497	n/a	832	89	2750	1833.74738248	stim	stop-signal	288	886947	0.0-13.44-1.44	beast_fmri_test	278	884755,/,885435,/,886115,/,886795,/,887474,/,888154,/	t,t,t,t,t,t	<img class = center src='/static/experiments/beast_fmri_test/images/B.png'></img>	71,89	2750.0	test	<img class = center src='/static/experiments/beast_fmri_test/images/redB.png'></img>	go	2250.0	3.0	44.0	go	non-target	B	71,Index Finger	89,Middle Finger	450.0	500.0	2250.0	2250.0	1.0	n/a	500.0	1.0	ITI
198944	500	n/a	-1	-1	500	0.0	fixation	poldrack-single-stim	289	889314	0.0-13.45-0.45	beast_fmri_test	278	888835,/	t	<div class = centerbox2><div class = fixation>+</div></div>	none	500.0	test	n/a	n/a	n/a	n/a	n/a	n/a	n/a	n/a	n/a	n/a	n/a	n/a	n/a	n/a	n/a	n/a	n/a	n/a	fixation
197569.53687770967	2750	n/a	1192	71	2750	1377.46312229	stim	stop-signal	290	892067	0.0-13.45-1.45	beast_fmri_test	278	889516,/,890195,/,890876,/,891556,/,892235,/,892914,/	t,t,t,t,t,t	<img class = center src='/static/experiments/beast_fmri_test/images/B.png'></img>	71,89	2750.0	test	<img class = center src='/static/experiments/beast_fmri_test/images/redB.png'></img>	go	2250.0	3.0	45.0	go	non-target	B	71,Index Finger	89,Middle Finger	450.0	500.0	2250.0	2250.0	0.0	n/a	500.0	0.0	go_stim
200319.53687770967	1377.4631222903095	n/a	1192	71	2750	1377.46312229	stim	stop-signal	290	892067	0.0-13.45-1.45	beast_fmri_test	278	889516,/,890195,/,890876,/,891556,/,892235,/,892914,/	t,t,t,t,t,t	<img class = center src='/static/experiments/beast_fmri_test/images/B.png'></img>	71,89	2750.0	test	<img class = center src='/static/experiments/beast_fmri_test/images/redB.png'></img>	go	2250.0	3.0	45.0	go	non-target	B	71,Index Finger	89,Middle Finger	450.0	500.0	2250.0	2250.0	0.0	n/a	500.0	0.0	ITI
203602	500	n/a	-1	-1	500	0.0	fixation	poldrack-single-stim	291	893972	0.0-13.46-0.46	beast_fmri_test	278	893592,/	t	<div class = centerbox2><div class = fixation>+</div></div>	none	500.0	test	n/a	n/a	n/a	n/a	n/a	n/a	n/a	n/a	n/a	n/a	n/a	n/a	n/a	n/a	n/a	n/a	n/a	n/a	fixation
202463.81358188391	2750	n/a	663	89	2750	1140.18641812	stim	stop-signal	292	896724	0.0-13.46-1.46	beast_fmri_test	278	894270,/,894950,/,895631,/,896309,/,896990,/,897670,/	t,t,t,t,t,t	<img class = center src='/static/experiments/beast_fmri_test/images/B.png'></img>	71,89	2750.0	test	<img class = center src='/static/experiments/beast_fmri_test/images/redB.png'></img>	go	2250.0	3.0	46.0	go	non-target	B	71,Index Finger	89,Middle Finger	450.0	500.0	2250.0	2250.0	1.0	n/a	500.0	1.0	go_stim
205213.81358188391	1140.1864181161238	n/a	663	89	2750	1140.18641812	stim	stop-signal	292	896724	0.0-13.46-1.46	beast_fmri_test	278	894270,/,894950,/,895631,/,896309,/,896990,/,897670,/	t,t,t,t,t,t	<img class = center src='/static/experiments/beast_fmri_test/images/B.png'></img>	71,89	2750.0	test	<img class = center src='/static/experiments/beast_fmri_test/images/redB.png'></img>	go	2250.0	3.0	46.0	go	non-target	B	71,Index Finger	89,Middle Finger	450.0	500.0	2250.0	2250.0	1.0	n/a	500.0	1.0	ITI
208022	500	n/a	-1	-1	500	0.0	fixation	poldrack-single-stim	293	898392	0.0-13.47-0.47	beast_fmri_test	278	898350,/	t	<div class = centerbox2><div class = fixation>+</div></div>	none	500.0	test	n/a	n/a	n/a	n/a	n/a	n/a	n/a	n/a	n/a	n/a	n/a	n/a	n/a	n/a	n/a	n/a	n/a	n/a	fixation
207987.67900794523	2750	n/a	595	89	2750	37.3209920547	stim	stop-signal	294	901145	0.0-13.47-1.47	beast_fmri_test	278	899030,/,899711,/,900390,/,901071,/	t,t,t,t	<img class = center src='/static/experiments/beast_fmri_test/images/D.png'></img>	71,89	2750.0	test	<img class = center src='/static/experiments/beast_fmri_test/images/redD.png'></img>	go	2250.0	3.0	47.0	go	non-target	D	71,Index Finger	89,Middle Finger	450.0	500.0	2250.0	2250.0	1.0	n/a	500.0	1.0	go_stim
210737.67900794523	37.320992054732493	n/a	595	89	2750	37.3209920547	stim	stop-signal	294	901145	0.0-13.47-1.47	beast_fmri_test	278	899030,/,899711,/,900390,/,901071,/	t,t,t,t	<img class = center src='/static/experiments/beast_fmri_test/images/D.png'></img>	71,89	2750.0	test	<img class = center src='/static/experiments/beast_fmri_test/images/redD.png'></img>	go	2250.0	3.0	47.0	go	non-target	D	71,Index Finger	89,Middle Finger	450.0	500.0	2250.0	2250.0	1.0	n/a	500.0	1.0	ITI
225830	15000	n/a	-1	-1	15000	0.0	practice-no-stop-feedback	poldrack-single-stim	295	916200	0.0-14.0	beast_fmri_test	278	901751,/,902432,/,903110,/,903787,/,904467,/,905147,/,905826,/,906506,/,907187,/,907867,/,908546,/,909226,/,909907,/,910587,/,911266,/,911947,/,912626,/,913303,/,913982,/,914662,/,915341,/,916022,/	t,t,t,t,t,t,t,t,t,t,t,t,t,t,t,t,t,t,t,t,t,t	"<div class = ""centerbox""><p class = ""block-text"">Your delay is 3 trials.</p><p class = block-text>Please wait for the scanner to start the block</p></div>"	77	15000.0	n/a	n/a	n/a	n/a	n/a	n/a	n/a	n/a	n/a	n/a	n/a	n/a	n/a	n/a	n/a	n/a	n/a	n/a	n/a	practice-no-stop-feedback
226333	500	n/a	-1	-1	500	0.0	fixation	poldrack-single-stim	296	916703	0.0-15.0-0.0	beast_fmri_test	278	916701,/	t	<div class = centerbox2><div class = fixation>+</div></div>	none	500.0	test	n/a	n/a	n/a	n/a	n/a	n/a	n/a	n/a	n/a	n/a	n/a	n/a	n/a	n/a	n/a	n/a	n/a	n/a	fixation
224803.08623495244	temp_go_duration	n/a	988	89	2750	1531.91376505	stim	stop-signal	297	919455	0.0-15.0-1.0	beast_fmri_test	278	917381,/,918061,/,918742,/,919421,/,920101,/,920781,/	t,t,t,t,t,t	<img class = center src='/static/experiments/beast_fmri_test/images/B.png'></img>	71,89	2750.0	test	<img class = center src='/static/experiments/beast_fmri_test/images/redB.png'></img>	stop	-1.0	3.0	0.0	stop	temp-non-target	B	71,Index Finger	89,Middle Finger	450.0	500.0	2250.0	2250.0	0.0	0.0	n/a	n/a	go_stim
temp-non-target	temp_stop_duration	n/a	988	89	2750	1531.91376505	stim	stop-signal	297	919455	0.0-15.0-1.0	beast_fmri_test	278	917381,/,918061,/,918742,/,919421,/,920101,/,920781,/	t,t,t,t,t,t	<img class = center src='/static/experiments/beast_fmri_test/images/B.png'></img>	71,89	2750.0	test	<img class = center src='/static/experiments/beast_fmri_test/images/redB.png'></img>	stop	-1.0	3.0	0.0	stop	temp-non-target	B	71,Index Finger	89,Middle Finger	450.0	500.0	2250.0	2250.0	0.0	0.0	n/a	n/a	stop_stim
227553.08623495244	1531.9137650476098	n/a	988	89	2750	1531.91376505	stim	stop-signal	297	919455	0.0-15.0-1.0	beast_fmri_test	278	917381,/,918061,/,918742,/,919421,/,920101,/,920781,/	t,t,t,t,t,t	<img class = center src='/static/experiments/beast_fmri_test/images/B.png'></img>	71,89	2750.0	test	<img class = center src='/static/experiments/beast_fmri_test/images/redB.png'></img>	stop	-1.0	3.0	0.0	stop	temp-non-target	B	71,Index Finger	89,Middle Finger	450.0	500.0	2250.0	2250.0	0.0	0.0	n/a	n/a	ITI
231153	500	n/a	-1	-1	500	0.0	fixation	poldrack-single-stim	298	921523	0.0-15.1-0.1	beast_fmri_test	278	921462,/	t	<div class = centerbox2><div class = fixation>+</div></div>	none	500.0	test	n/a	n/a	n/a	n/a	n/a	n/a	n/a	n/a	n/a	n/a	n/a	n/a	n/a	n/a	n/a	n/a	n/a	n/a	fixation
231086.40547823394	2750	n/a	674	89	2750	64.594521766	stim	stop-signal	299	924271	0.0-15.1-1.1	beast_fmri_test	278	922142,/,922820,/,923498,/,924176,/	t,t,t,t	<img class = center src='/static/experiments/beast_fmri_test/images/T.png'></img>	71,89	2750.0	test	<img class = center src='/static/experiments/beast_fmri_test/images/redT.png'></img>	go	-1.0	3.0	1.0	go	temp-non-target	T	71,Index Finger	89,Middle Finger	450.0	500.0	2250.0	2250.0	0.0	n/a	n/a	n/a	go_stim
233836.40547823394	64.594521766048942	n/a	674	89	2750	64.594521766	stim	stop-signal	299	924271	0.0-15.1-1.1	beast_fmri_test	278	922142,/,922820,/,923498,/,924176,/	t,t,t,t	<img class = center src='/static/experiments/beast_fmri_test/images/T.png'></img>	71,89	2750.0	test	<img class = center src='/static/experiments/beast_fmri_test/images/redT.png'></img>	go	-1.0	3.0	1.0	go	temp-non-target	T	71,Index Finger	89,Middle Finger	450.0	500.0	2250.0	2250.0	0.0	n/a	n/a	n/a	ITI
234498	500	n/a	-1	-1	500	0.0	fixation	poldrack-single-stim	300	924868	0.0-15.2-0.2	beast_fmri_test	278	924857,/	t	<div class = centerbox2><div class = fixation>+</div></div>	none	500.0	test	n/a	n/a	n/a	n/a	n/a	n/a	n/a	n/a	n/a	n/a	n/a	n/a	n/a	n/a	n/a	n/a	n/a	n/a	fixation
233526.66920001735	2750	n/a	930	89	2750	974.330799983	stim	stop-signal	301	927621	0.0-15.2-1.2	beast_fmri_test	278	925535,/,926215,/,926897,/,927577,/,928257,/	t,t,t,t,t	<img class = center src='/static/experiments/beast_fmri_test/images/D.png'></img>	71,89	2750.0	test	<img class = center src='/static/experiments/beast_fmri_test/images/redD.png'></img>	go	-1.0	3.0	2.0	go	temp-non-target	D	71,Index Finger	89,Middle Finger	450.0	500.0	2250.0	2250.0	0.0	n/a	n/a	n/a	go_stim
236276.66920001735	974.33079998264486	n/a	930	89	2750	974.330799983	stim	stop-signal	301	927621	0.0-15.2-1.2	beast_fmri_test	278	925535,/,926215,/,926897,/,927577,/,928257,/	t,t,t,t,t	<img class = center src='/static/experiments/beast_fmri_test/images/D.png'></img>	71,89	2750.0	test	<img class = center src='/static/experiments/beast_fmri_test/images/redD.png'></img>	go	-1.0	3.0	2.0	go	temp-non-target	D	71,Index Finger	89,Middle Finger	450.0	500.0	2250.0	2250.0	0.0	n/a	n/a	n/a	ITI
238759	500	n/a	-1	-1	500	0.0	fixation	poldrack-single-stim	302	929129	0.0-15.3-0.3	beast_fmri_test	278	928937,/	t	<div class = centerbox2><div class = fixation>+</div></div>	none	500.0	test	n/a	n/a	n/a	n/a	n/a	n/a	n/a	n/a	n/a	n/a	n/a	n/a	n/a	n/a	n/a	n/a	n/a	n/a	fixation
235111.89190513536	2750	n/a	692	89	2750	3650.10809486	stim	stop-signal	303	931882	0.0-15.3-1.3	beast_fmri_test	278	929616,/,930298,/,930978,/,931658,/,932338,/,933015,/,933692,/,934372,/,935053,/	t,t,t,t,t,t,t,t,t	<img class = center src='/static/experiments/beast_fmri_test/images/T.png'></img>	71,89	2750.0	test	<img class = center src='/static/experiments/beast_fmri_test/images/redT.png'></img>	go	2250.0	3.0	3.0	go	non-target	T	71,Index Finger	89,Middle Finger	450.0	500.0	2250.0	2250.0	1.0	n/a	500.0	1.0	go_stim
237861.89190513536	3650.1080948646281	n/a	692	89	2750	3650.10809486	stim	stop-signal	303	931882	0.0-15.3-1.3	beast_fmri_test	278	929616,/,930298,/,930978,/,931658,/,932338,/,933015,/,933692,/,934372,/,935053,/	t,t,t,t,t,t,t,t,t	<img class = center src='/static/experiments/beast_fmri_test/images/T.png'></img>	71,89	2750.0	test	<img class = center src='/static/experiments/beast_fmri_test/images/redT.png'></img>	go	2250.0	3.0	3.0	go	non-target	T	71,Index Finger	89,Middle Finger	450.0	500.0	2250.0	2250.0	1.0	n/a	500.0	1.0	ITI
245691	500	n/a	-1	-1	500	0.0	fixation	poldrack-single-stim	304	936061	0.0-15.4-0.4	beast_fmri_test	278	935733,/	t	<div class = centerbox2><div class = fixation>+</div></div>	none	500.0	test	n/a	n/a	n/a	n/a	n/a	n/a	n/a	n/a	n/a	n/a	n/a	n/a	n/a	n/a	n/a	n/a	n/a	n/a	fixation
243509.92137692403	2750	n/a	522	89	2750	2184.07862308	stim	stop-signal	305	938814	0.0-15.4-1.4	beast_fmri_test	278	936413,/,937092,/,937773,/,938451,/,939132,/,939812,/,940493,/	t,t,t,t,t,t,t	<img class = center src='/static/experiments/beast_fmri_test/images/V.png'></img>	71,89	2750.0	test	<img class = center src='/static/experiments/beast_fmri_test/images/redV.png'></img>	go	2250.0	3.0	4.0	go	non-target	V	71,Index Finger	89,Middle Finger	450.0	500.0	2250.0	2250.0	1.0	n/a	500.0	1.0	go_stim
246259.92137692403	2184.0786230759841	n/a	522	89	2750	2184.07862308	stim	stop-signal	305	938814	0.0-15.4-1.4	beast_fmri_test	278	936413,/,937092,/,937773,/,938451,/,939132,/,939812,/,940493,/	t,t,t,t,t,t,t	<img class = center src='/static/experiments/beast_fmri_test/images/V.png'></img>	71,89	2750.0	test	<img class = center src='/static/experiments/beast_fmri_test/images/redV.png'></img>	go	2250.0	3.0	4.0	go	non-target	V	71,Index Finger	89,Middle Finger	450.0	500.0	2250.0	2250.0	1.0	n/a	500.0	1.0	ITI
251165	500	n/a	-1	-1	500	0.0	fixation	poldrack-single-stim	306	941535	0.0-15.5-0.5	beast_fmri_test	278	941173,/	t	<div class = centerbox2><div class = fixation>+</div></div>	none	500.0	test	n/a	n/a	n/a	n/a	n/a	n/a	n/a	n/a	n/a	n/a	n/a	n/a	n/a	n/a	n/a	n/a	n/a	n/a	fixation
251134.86657757417	2750	n/a	691	71	2750	27.1334224259	stim	stop-signal	307	944282	0.0-15.5-1.5	beast_fmri_test	278	941853,/,942532,/,943209,/,943887,/	t,t,t,t	<img class = center src='/static/experiments/beast_fmri_test/images/D.png'></img>	71,89	2750.0	test	<img class = center src='/static/experiments/beast_fmri_test/images/redD.png'></img>	go	2300.0	3.0	5.0	go	target	D	71,Index Finger	89,Middle Finger	450.0	500.0	2300.0	2250.0	1.0	n/a	450.0	1.0	go_stim
253884.86657757417	27.133422425869409	n/a	691	71	2750	27.1334224259	stim	stop-signal	307	944282	0.0-15.5-1.5	beast_fmri_test	278	941853,/,942532,/,943209,/,943887,/	t,t,t,t	<img class = center src='/static/experiments/beast_fmri_test/images/D.png'></img>	71,89	2750.0	test	<img class = center src='/static/experiments/beast_fmri_test/images/redD.png'></img>	go	2300.0	3.0	5.0	go	target	D	71,Index Finger	89,Middle Finger	450.0	500.0	2300.0	2250.0	1.0	n/a	450.0	1.0	ITI
254474	500	n/a	-1	-1	500	0.0	fixation	poldrack-single-stim	308	944844	0.0-15.6-0.6	beast_fmri_test	278	944568,/	t	<div class = centerbox2><div class = fixation>+</div></div>	none	500.0	test	n/a	n/a	n/a	n/a	n/a	n/a	n/a	n/a	n/a	n/a	n/a	n/a	n/a	n/a	n/a	n/a	n/a	n/a	fixation
253013.90377859294	500.0	n/a	-1	-1	2750	1464.09622141	stim	stop-signal	309	947598	0.0-15.6-1.6	beast_fmri_test	278	945247,/,945928,/,946607,/,947288,/,947966,/,948646,/	t,t,t,t,t,t	<img class = center src='/static/experiments/beast_fmri_test/images/D.png'></img>	71,89	2750.0	test	<img class = center src='/static/experiments/beast_fmri_test/images/redD.png'></img>	stop	2250.0	3.0	6.0	stop	non-target	D	71,Index Finger	89,Middle Finger	450.0	500.0	2300.0	2250.0	0.0	1.0	500.0	n/a	go_stim
255263.90377859294	2250.0	n/a	-1	-1	2750	1464.09622141	stim	stop-signal	309	947598	0.0-15.6-1.6	beast_fmri_test	278	945247,/,945928,/,946607,/,947288,/,947966,/,948646,/	t,t,t,t,t,t	<img class = center src='/static/experiments/beast_fmri_test/images/D.png'></img>	71,89	2750.0	test	<img class = center src='/static/experiments/beast_fmri_test/images/redD.png'></img>	stop	2250.0	3.0	6.0	stop	non-target	D	71,Index Finger	89,Middle Finger	450.0	500.0	2300.0	2250.0	0.0	1.0	500.0	n/a	stop_stim
255763.90377859294	1464.0962214071101	n/a	-1	-1	2750	1464.09622141	stim	stop-signal	309	947598	0.0-15.6-1.6	beast_fmri_test	278	945247,/,945928,/,946607,/,947288,/,947966,/,948646,/	t,t,t,t,t,t	<img class = center src='/static/experiments/beast_fmri_test/images/D.png'></img>	71,89	2750.0	test	<img class = center src='/static/experiments/beast_fmri_test/images/redD.png'></img>	stop	2250.0	3.0	6.0	stop	non-target	D	71,Index Finger	89,Middle Finger	450.0	500.0	2300.0	2250.0	0.0	1.0	500.0	n/a	ITI
259229	500	n/a	-1	-1	500	0.0	fixation	poldrack-single-stim	310	949599	0.0-15.7-0.7	beast_fmri_test	278	949328,/	t	<div class = centerbox2><div class = fixation>+</div></div>	none	500.0	test	n/a	n/a	n/a	n/a	n/a	n/a	n/a	n/a	n/a	n/a	n/a	n/a	n/a	n/a	n/a	n/a	n/a	n/a	fixation
259219.35024349811	2750	n/a	2084	89	2750	11.6497565018	stim	stop-signal	311	952351	0.0-15.7-1.7	beast_fmri_test	278	950007,/,950688,/,951367,/,952048,/	t,t,t,t	<img class = center src='/static/experiments/beast_fmri_test/images/V.png'></img>	71,89	2750.0	test	<img class = center src='/static/experiments/beast_fmri_test/images/redV.png'></img>	go	2300.0	3.0	7.0	go	target	V	71,Index Finger	89,Middle Finger	450.0	550.0	2300.0	2250.0	0.0	n/a	450.0	0.0	go_stim
261969.35024349811	11.649756501844776	n/a	2084	89	2750	11.6497565018	stim	stop-signal	311	952351	0.0-15.7-1.7	beast_fmri_test	278	950007,/,950688,/,951367,/,952048,/	t,t,t,t	<img class = center src='/static/experiments/beast_fmri_test/images/V.png'></img>	71,89	2750.0	test	<img class = center src='/static/experiments/beast_fmri_test/images/redV.png'></img>	go	2300.0	3.0	7.0	go	target	V	71,Index Finger	89,Middle Finger	450.0	550.0	2300.0	2250.0	0.0	n/a	450.0	0.0	ITI
262523	500	n/a	-1	-1	500	0.0	fixation	poldrack-single-stim	312	952893	0.0-15.8-0.8	beast_fmri_test	278	952726,/	t	<div class = centerbox2><div class = fixation>+</div></div>	none	500.0	test	n/a	n/a	n/a	n/a	n/a	n/a	n/a	n/a	n/a	n/a	n/a	n/a	n/a	n/a	n/a	n/a	n/a	n/a	fixation
260692.9474016286	2750	n/a	872	89	2750	1829.05259837	stim	stop-signal	313	955642	0.0-15.8-1.8	beast_fmri_test	278	953403,/,954083,/,954763,/,955443,/,956122,/,956803,/	t,t,t,t,t,t	<img class = center src='/static/experiments/beast_fmri_test/images/P.png'></img>	71,89	2750.0	test	<img class = center src='/static/experiments/beast_fmri_test/images/redP.png'></img>	go	2200.0	3.0	8.0	go	non-target	P	71,Index Finger	89,Middle Finger	450.0	550.0	2300.0	2200.0	1.0	n/a	550.0	1.0	go_stim
263442.9474016286	1829.0525983713551	n/a	872	89	2750	1829.05259837	stim	stop-signal	313	955642	0.0-15.8-1.8	beast_fmri_test	278	953403,/,954083,/,954763,/,955443,/,956122,/,956803,/	t,t,t,t,t,t	<img class = center src='/static/experiments/beast_fmri_test/images/P.png'></img>	71,89	2750.0	test	<img class = center src='/static/experiments/beast_fmri_test/images/redP.png'></img>	go	2200.0	3.0	8.0	go	non-target	P	71,Index Finger	89,Middle Finger	450.0	550.0	2300.0	2200.0	1.0	n/a	550.0	1.0	ITI
267635	500	n/a	-1	-1	500	0.0	fixation	poldrack-single-stim	314	958005	0.0-15.9-0.9	beast_fmri_test	278	957503,/	t	<div class = centerbox2><div class = fixation>+</div></div>	none	500.0	test	n/a	n/a	n/a	n/a	n/a	n/a	n/a	n/a	n/a	n/a	n/a	n/a	n/a	n/a	n/a	n/a	n/a	n/a	fixation
267015.88350544136	2750	n/a	624	89	2750	621.116494559	stim	stop-signal	315	960757	0.0-15.9-1.9	beast_fmri_test	278	958164,/,958844,/,959524,/,960204,/,960884,/	t,t,t,t,t	<img class = center src='/static/experiments/beast_fmri_test/images/B.png'></img>	71,89	2750.0	test	<img class = center src='/static/experiments/beast_fmri_test/images/redB.png'></img>	go	2200.0	3.0	9.0	go	non-target	B	71,Index Finger	89,Middle Finger	450.0	550.0	2300.0	2200.0	1.0	n/a	550.0	1.0	go_stim
269765.88350544136	621.11649455858083	n/a	624	89	2750	621.116494559	stim	stop-signal	315	960757	0.0-15.9-1.9	beast_fmri_test	278	958164,/,958844,/,959524,/,960204,/,960884,/	t,t,t,t,t	<img class = center src='/static/experiments/beast_fmri_test/images/B.png'></img>	71,89	2750.0	test	<img class = center src='/static/experiments/beast_fmri_test/images/redB.png'></img>	go	2200.0	3.0	9.0	go	non-target	B	71,Index Finger	89,Middle Finger	450.0	550.0	2300.0	2200.0	1.0	n/a	550.0	1.0	ITI
271543	500	n/a	-1	-1	500	0.0	fixation	poldrack-single-stim	316	961913	0.0-15.10-0.10	beast_fmri_test	278	961564,/	t	<div class = centerbox2><div class = fixation>+</div></div>	none	500.0	test	n/a	n/a	n/a	n/a	n/a	n/a	n/a	n/a	n/a	n/a	n/a	n/a	n/a	n/a	n/a	n/a	n/a	n/a	fixation
270025.03097200172	2750	n/a	642	71	2750	1516.969028	stim	stop-signal	317	964662	0.0-15.10-1.10	beast_fmri_test	278	962244,/,962922,/,963598,/,964278,/,964959,/,965639,/	t,t,t,t,t,t	<img class = center src='/static/experiments/beast_fmri_test/images/V.png'></img>	71,89	2750.0	test	<img class = center src='/static/experiments/beast_fmri_test/images/redV.png'></img>	go	2300.0	3.0	10.0	go	target	V	71,Index Finger	89,Middle Finger	450.0	550.0	2300.0	2200.0	1.0	n/a	450.0	1.0	go_stim
272775.03097200172	1516.9690279982638	n/a	642	71	2750	1516.969028	stim	stop-signal	317	964662	0.0-15.10-1.10	beast_fmri_test	278	962244,/,962922,/,963598,/,964278,/,964959,/,965639,/	t,t,t,t,t,t	<img class = center src='/static/experiments/beast_fmri_test/images/V.png'></img>	71,89	2750.0	test	<img class = center src='/static/experiments/beast_fmri_test/images/redV.png'></img>	go	2300.0	3.0	10.0	go	target	V	71,Index Finger	89,Middle Finger	450.0	550.0	2300.0	2200.0	1.0	n/a	450.0	1.0	ITI
276345	500	n/a	-1	-1	500	0.0	fixation	poldrack-single-stim	318	966715	0.0-15.11-0.11	beast_fmri_test	278	966319,/	t	<div class = centerbox2><div class = fixation>+</div></div>	none	500.0	test	n/a	n/a	n/a	n/a	n/a	n/a	n/a	n/a	n/a	n/a	n/a	n/a	n/a	n/a	n/a	n/a	n/a	n/a	fixation
274900.73832568864	2750	n/a	1007	89	2750	1448.26167431	stim	stop-signal	319	969469	0.0-15.11-1.11	beast_fmri_test	278	966999,/,967679,/,968357,/,969039,/,969718,/,970399,/	t,t,t,t,t,t	<img class = center src='/static/experiments/beast_fmri_test/images/B.png'></img>	71,89	2750.0	test	<img class = center src='/static/experiments/beast_fmri_test/images/redB.png'></img>	go	2200.0	3.0	11.0	go	non-target	B	71,Index Finger	89,Middle Finger	450.0	550.0	2300.0	2200.0	1.0	n/a	550.0	1.0	go_stim
277650.73832568864	1448.2616743114013	n/a	1007	89	2750	1448.26167431	stim	stop-signal	319	969469	0.0-15.11-1.11	beast_fmri_test	278	966999,/,967679,/,968357,/,969039,/,969718,/,970399,/	t,t,t,t,t,t	<img class = center src='/static/experiments/beast_fmri_test/images/B.png'></img>	71,89	2750.0	test	<img class = center src='/static/experiments/beast_fmri_test/images/redB.png'></img>	go	2200.0	3.0	11.0	go	non-target	B	71,Index Finger	89,Middle Finger	450.0	550.0	2300.0	2200.0	1.0	n/a	550.0	1.0	ITI
281082	500	n/a	-1	-1	500	0.0	fixation	poldrack-single-stim	320	971452	0.0-15.12-0.12	beast_fmri_test	278	971078,/	t	<div class = centerbox2><div class = fixation>+</div></div>	none	500.0	test	n/a	n/a	n/a	n/a	n/a	n/a	n/a	n/a	n/a	n/a	n/a	n/a	n/a	n/a	n/a	n/a	n/a	n/a	fixation
279571.33631351474	550.0	n/a	-1	-1	2750	1508.66368649	stim	stop-signal	321	974200	0.0-15.12-1.12	beast_fmri_test	278	971758,/,972439,/,973116,/,973794,/,974473,/,975153,/	t,t,t,t,t,t	<img class = center src='/static/experiments/beast_fmri_test/images/V.png'></img>	71,89	2750.0	test	<img class = center src='/static/experiments/beast_fmri_test/images/redV.png'></img>	stop	2200.0	3.0	12.0	stop	non-target	V	71,Index Finger	89,Middle Finger	450.0	550.0	2300.0	2200.0	0.0	1.0	550.0	n/a	go_stim
281771.33631351474	2200.0	n/a	-1	-1	2750	1508.66368649	stim	stop-signal	321	974200	0.0-15.12-1.12	beast_fmri_test	278	971758,/,972439,/,973116,/,973794,/,974473,/,975153,/	t,t,t,t,t,t	<img class = center src='/static/experiments/beast_fmri_test/images/V.png'></img>	71,89	2750.0	test	<img class = center src='/static/experiments/beast_fmri_test/images/redV.png'></img>	stop	2200.0	3.0	12.0	stop	non-target	V	71,Index Finger	89,Middle Finger	450.0	550.0	2300.0	2200.0	0.0	1.0	550.0	n/a	stop_stim
282321.33631351474	1508.6636864852267	n/a	-1	-1	2750	1508.66368649	stim	stop-signal	321	974200	0.0-15.12-1.12	beast_fmri_test	278	971758,/,972439,/,973116,/,973794,/,974473,/,975153,/	t,t,t,t,t,t	<img class = center src='/static/experiments/beast_fmri_test/images/V.png'></img>	71,89	2750.0	test	<img class = center src='/static/experiments/beast_fmri_test/images/redV.png'></img>	stop	2200.0	3.0	12.0	stop	non-target	V	71,Index Finger	89,Middle Finger	450.0	550.0	2300.0	2200.0	0.0	1.0	550.0	n/a	ITI
285877	500	n/a	-1	-1	500	0.0	fixation	poldrack-single-stim	322	976247	0.0-15.13-0.13	beast_fmri_test	278	975834,/	t	<div class = centerbox2><div class = fixation>+</div></div>	none	500.0	test	n/a	n/a	n/a	n/a	n/a	n/a	n/a	n/a	n/a	n/a	n/a	n/a	n/a	n/a	n/a	n/a	n/a	n/a	fixation
285689.71919027367	600.0	n/a	-1	-1	2750	190.280809726	stim	stop-signal	323	979000	0.0-15.13-1.13	beast_fmri_test	278	976514,/,977194,/,977873,/,978554,/	t,t,t,t	<img class = center src='/static/experiments/beast_fmri_test/images/B.png'></img>	71,89	2750.0	test	<img class = center src='/static/experiments/beast_fmri_test/images/redB.png'></img>	stop	2150.0	3.0	13.0	stop	non-target	B	71,Index Finger	89,Middle Finger	450.0	600.0	2300.0	2150.0	0.0	1.0	600.0	n/a	go_stim
287839.71919027367	2150.0	n/a	-1	-1	2750	190.280809726	stim	stop-signal	323	979000	0.0-15.13-1.13	beast_fmri_test	278	976514,/,977194,/,977873,/,978554,/	t,t,t,t	<img class = center src='/static/experiments/beast_fmri_test/images/B.png'></img>	71,89	2750.0	test	<img class = center src='/static/experiments/beast_fmri_test/images/redB.png'></img>	stop	2150.0	3.0	13.0	stop	non-target	B	71,Index Finger	89,Middle Finger	450.0	600.0	2300.0	2150.0	0.0	1.0	600.0	n/a	stop_stim
288439.71919027367	190.28080972637483	n/a	-1	-1	2750	190.280809726	stim	stop-signal	323	979000	0.0-15.13-1.13	beast_fmri_test	278	976514,/,977194,/,977873,/,978554,/	t,t,t,t	<img class = center src='/static/experiments/beast_fmri_test/images/B.png'></img>	71,89	2750.0	test	<img class = center src='/static/experiments/beast_fmri_test/images/redB.png'></img>	stop	2150.0	3.0	13.0	stop	non-target	B	71,Index Finger	89,Middle Finger	450.0	600.0	2300.0	2150.0	0.0	1.0	600.0	n/a	ITI
289358	500	n/a	-1	-1	500	0.0	fixation	poldrack-single-stim	324	979728	0.0-15.14-0.14	beast_fmri_test	278	979233,/	t	<div class = centerbox2><div class = fixation>+</div></div>	none	500.0	test	n/a	n/a	n/a	n/a	n/a	n/a	n/a	n/a	n/a	n/a	n/a	n/a	n/a	n/a	n/a	n/a	n/a	n/a	fixation
289204.45265549619	450.0	n/a	1106	89	2750	157.547344504	stim	stop-signal	325	982482	0.0-15.14-1.14	beast_fmri_test	278	979913,/,980594,/,981274,/,981954,/,982632,/	t,t,t,t,t	<img class = center src='/static/experiments/beast_fmri_test/images/B.png'></img>	71,89	2750.0	test	<img class = center src='/static/experiments/beast_fmri_test/images/redB.png'></img>	stop	2300.0	3.0	14.0	stop	target	B	71,Index Finger	89,Middle Finger	450.0	650.0	2300.0	2150.0	0.0	0.0	450.0	n/a	go_stim
291504.45265549619	2300.0	n/a	1106	89	2750	157.547344504	stim	stop-signal	325	982482	0.0-15.14-1.14	beast_fmri_test	278	979913,/,980594,/,981274,/,981954,/,982632,/	t,t,t,t,t	<img class = center src='/static/experiments/beast_fmri_test/images/B.png'></img>	71,89	2750.0	test	<img class = center src='/static/experiments/beast_fmri_test/images/redB.png'></img>	stop	2300.0	3.0	14.0	stop	target	B	71,Index Finger	89,Middle Finger	450.0	650.0	2300.0	2150.0	0.0	0.0	450.0	n/a	stop_stim
291954.45265549619	157.54734450377694	n/a	1106	89	2750	157.547344504	stim	stop-signal	325	982482	0.0-15.14-1.14	beast_fmri_test	278	979913,/,980594,/,981274,/,981954,/,982632,/	t,t,t,t,t	<img class = center src='/static/experiments/beast_fmri_test/images/B.png'></img>	71,89	2750.0	test	<img class = center src='/static/experiments/beast_fmri_test/images/redB.png'></img>	stop	2300.0	3.0	14.0	stop	target	B	71,Index Finger	89,Middle Finger	450.0	650.0	2300.0	2150.0	0.0	0.0	450.0	n/a	ITI
292803	500	n/a	-1	-1	500	0.0	fixation	poldrack-single-stim	326	983173	0.0-15.15-0.15	beast_fmri_test	278	n/a	n/a	<div class = centerbox2><div class = fixation>+</div></div>	none	500.0	test	n/a	n/a	n/a	n/a	n/a	n/a	n/a	n/a	n/a	n/a	n/a	n/a	n/a	n/a	n/a	n/a	n/a	n/a	fixation
289694.23950216011	400.0	n/a	-1	-1	2750	3109.76049784	stim	stop-signal	327	985924	0.0-15.15-1.15	beast_fmri_test	278	983310,/,983988,/,984668,/,985348,/,986029,/,986710,/,987387,/,988070,/,988749,/	t,t,t,t,t,t,t,t,t	<img class = center src='/static/experiments/beast_fmri_test/images/V.png'></img>	71,89	2750.0	test	<img class = center src='/static/experiments/beast_fmri_test/images/redV.png'></img>	stop	2350.0	3.0	15.0	stop	target	V	71,Index Finger	89,Middle Finger	400.0	650.0	2350.0	2150.0	0.0	1.0	400.0	n/a	go_stim
292044.23950216011	2350.0	n/a	-1	-1	2750	3109.76049784	stim	stop-signal	327	985924	0.0-15.15-1.15	beast_fmri_test	278	983310,/,983988,/,984668,/,985348,/,986029,/,986710,/,987387,/,988070,/,988749,/	t,t,t,t,t,t,t,t,t	<img class = center src='/static/experiments/beast_fmri_test/images/V.png'></img>	71,89	2750.0	test	<img class = center src='/static/experiments/beast_fmri_test/images/redV.png'></img>	stop	2350.0	3.0	15.0	stop	target	V	71,Index Finger	89,Middle Finger	400.0	650.0	2350.0	2150.0	0.0	1.0	400.0	n/a	stop_stim
292444.23950216011	3109.760497839834	n/a	-1	-1	2750	3109.76049784	stim	stop-signal	327	985924	0.0-15.15-1.15	beast_fmri_test	278	983310,/,983988,/,984668,/,985348,/,986029,/,986710,/,987387,/,988070,/,988749,/	t,t,t,t,t,t,t,t,t	<img class = center src='/static/experiments/beast_fmri_test/images/V.png'></img>	71,89	2750.0	test	<img class = center src='/static/experiments/beast_fmri_test/images/redV.png'></img>	stop	2350.0	3.0	15.0	stop	target	V	71,Index Finger	89,Middle Finger	400.0	650.0	2350.0	2150.0	0.0	1.0	400.0	n/a	ITI
299201	500	n/a	-1	-1	500	0.0	fixation	poldrack-single-stim	328	989571	0.0-15.16-0.16	beast_fmri_test	278	989430,/	t	<div class = centerbox2><div class = fixation>+</div></div>	none	500.0	test	n/a	n/a	n/a	n/a	n/a	n/a	n/a	n/a	n/a	n/a	n/a	n/a	n/a	n/a	n/a	n/a	n/a	n/a	fixation
298910.05311049288	2750	n/a	1059	89	2750	294.946889507	stim	stop-signal	329	992325	0.0-15.16-1.16	beast_fmri_test	278	990110,/,990789,/,991470,/,992150,/	t,t,t,t	<img class = center src='/static/experiments/beast_fmri_test/images/T.png'></img>	71,89	2750.0	test	<img class = center src='/static/experiments/beast_fmri_test/images/redT.png'></img>	go	2100.0	3.0	16.0	go	non-target	T	71,Index Finger	89,Middle Finger	450.0	650.0	2350.0	2100.0	1.0	n/a	650.0	1.0	go_stim
301660.05311049288	294.94688950708024	n/a	1059	89	2750	294.946889507	stim	stop-signal	329	992325	0.0-15.16-1.16	beast_fmri_test	278	990110,/,990789,/,991470,/,992150,/	t,t,t,t	<img class = center src='/static/experiments/beast_fmri_test/images/T.png'></img>	71,89	2750.0	test	<img class = center src='/static/experiments/beast_fmri_test/images/redT.png'></img>	go	2100.0	3.0	16.0	go	non-target	T	71,Index Finger	89,Middle Finger	450.0	650.0	2350.0	2100.0	1.0	n/a	650.0	1.0	ITI
302781	500	n/a	-1	-1	500	0.0	fixation	poldrack-single-stim	330	993151	0.0-15.17-0.17	beast_fmri_test	278	992828,/	t	<div class = centerbox2><div class = fixation>+</div></div>	none	500.0	test	n/a	n/a	n/a	n/a	n/a	n/a	n/a	n/a	n/a	n/a	n/a	n/a	n/a	n/a	n/a	n/a	n/a	n/a	fixation
302507.86450387933	650.0	n/a	834	89	2750	274.135496121	stim	stop-signal	331	995902	0.0-15.17-1.17	beast_fmri_test	278	993506,/,994185,/,994864,/,995545,/	t,t,t,t	<img class = center src='/static/experiments/beast_fmri_test/images/V.png'></img>	71,89	2750.0	test	<img class = center src='/static/experiments/beast_fmri_test/images/redV.png'></img>	stop	2100.0	3.0	17.0	stop	non-target	V	71,Index Finger	89,Middle Finger	450.0	650.0	2350.0	2100.0	0.0	0.0	650.0	n/a	go_stim
304607.86450387933	2100.0	n/a	834	89	2750	274.135496121	stim	stop-signal	331	995902	0.0-15.17-1.17	beast_fmri_test	278	993506,/,994185,/,994864,/,995545,/	t,t,t,t	<img class = center src='/static/experiments/beast_fmri_test/images/V.png'></img>	71,89	2750.0	test	<img class = center src='/static/experiments/beast_fmri_test/images/redV.png'></img>	stop	2100.0	3.0	17.0	stop	non-target	V	71,Index Finger	89,Middle Finger	450.0	650.0	2350.0	2100.0	0.0	0.0	650.0	n/a	stop_stim
305257.86450387933	274.13549612062803	n/a	834	89	2750	274.135496121	stim	stop-signal	331	995902	0.0-15.17-1.17	beast_fmri_test	278	993506,/,994185,/,994864,/,995545,/	t,t,t,t	<img class = center src='/static/experiments/beast_fmri_test/images/V.png'></img>	71,89	2750.0	test	<img class = center src='/static/experiments/beast_fmri_test/images/redV.png'></img>	stop	2100.0	3.0	17.0	stop	non-target	V	71,Index Finger	89,Middle Finger	450.0	650.0	2350.0	2100.0	0.0	0.0	650.0	n/a	ITI
306344	500	n/a	-1	-1	500	0.0	fixation	poldrack-single-stim	332	996714	0.0-15.18-0.18	beast_fmri_test	278	996224,/	t	<div class = centerbox2><div class = fixation>+</div></div>	none	500.0	test	n/a	n/a	n/a	n/a	n/a	n/a	n/a	n/a	n/a	n/a	n/a	n/a	n/a	n/a	n/a	n/a	n/a	n/a	fixation
305132.98360575316	600.0	n/a	-1	-1	2750	1213.01639425	stim	stop-signal	333	999466	0.0-15.18-1.18	beast_fmri_test	278	996904,/,997585,/,998265,/,998944,/,999625,/,1000305,/	t,t,t,t,t,t	<img class = center src='/static/experiments/beast_fmri_test/images/D.png'></img>	71,89	2750.0	test	<img class = center src='/static/experiments/beast_fmri_test/images/redD.png'></img>	stop	2150.0	3.0	18.0	stop	non-target	D	71,Index Finger	89,Middle Finger	450.0	600.0	2350.0	2150.0	0.0	1.0	600.0	n/a	go_stim
307282.98360575316	2150.0	n/a	-1	-1	2750	1213.01639425	stim	stop-signal	333	999466	0.0-15.18-1.18	beast_fmri_test	278	996904,/,997585,/,998265,/,998944,/,999625,/,1000305,/	t,t,t,t,t,t	<img class = center src='/static/experiments/beast_fmri_test/images/D.png'></img>	71,89	2750.0	test	<img class = center src='/static/experiments/beast_fmri_test/images/redD.png'></img>	stop	2150.0	3.0	18.0	stop	non-target	D	71,Index Finger	89,Middle Finger	450.0	600.0	2350.0	2150.0	0.0	1.0	600.0	n/a	stop_stim
307882.98360575316	1213.0163942468409	n/a	-1	-1	2750	1213.01639425	stim	stop-signal	333	999466	0.0-15.18-1.18	beast_fmri_test	278	996904,/,997585,/,998265,/,998944,/,999625,/,1000305,/	t,t,t,t,t,t	<img class = center src='/static/experiments/beast_fmri_test/images/D.png'></img>	71,89	2750.0	test	<img class = center src='/static/experiments/beast_fmri_test/images/redD.png'></img>	stop	2150.0	3.0	18.0	stop	non-target	D	71,Index Finger	89,Middle Finger	450.0	600.0	2350.0	2150.0	0.0	1.0	600.0	n/a	ITI
310847	500	n/a	-1	-1	500	0.0	fixation	poldrack-single-stim	334	1001217	0.0-15.19-0.19	beast_fmri_test	278	1000985,/	t	<div class = centerbox2><div class = fixation>+</div></div>	none	500.0	test	n/a	n/a	n/a	n/a	n/a	n/a	n/a	n/a	n/a	n/a	n/a	n/a	n/a	n/a	n/a	n/a	n/a	n/a	fixation
310816.93701125274	650.0	n/a	445	89	2750	28.0629887473	stim	stop-signal	335	1003965	0.0-15.19-1.19	beast_fmri_test	278	1001665,/,1002345,/,1003022,/,1003699,/	t,t,t,t	<img class = center src='/static/experiments/beast_fmri_test/images/D.png'></img>	71,89	2750.0	test	<img class = center src='/static/experiments/beast_fmri_test/images/redD.png'></img>	stop	2100.0	3.0	19.0	stop	non-target	D	71,Index Finger	89,Middle Finger	450.0	650.0	2350.0	2100.0	0.0	0.0	650.0	n/a	go_stim
312916.93701125274	2100.0	n/a	445	89	2750	28.0629887473	stim	stop-signal	335	1003965	0.0-15.19-1.19	beast_fmri_test	278	1001665,/,1002345,/,1003022,/,1003699,/	t,t,t,t	<img class = center src='/static/experiments/beast_fmri_test/images/D.png'></img>	71,89	2750.0	test	<img class = center src='/static/experiments/beast_fmri_test/images/redD.png'></img>	stop	2100.0	3.0	19.0	stop	non-target	D	71,Index Finger	89,Middle Finger	450.0	650.0	2350.0	2100.0	0.0	0.0	650.0	n/a	stop_stim
313566.93701125274	28.062988747259773	n/a	445	89	2750	28.0629887473	stim	stop-signal	335	1003965	0.0-15.19-1.19	beast_fmri_test	278	1001665,/,1002345,/,1003022,/,1003699,/	t,t,t,t	<img class = center src='/static/experiments/beast_fmri_test/images/D.png'></img>	71,89	2750.0	test	<img class = center src='/static/experiments/beast_fmri_test/images/redD.png'></img>	stop	2100.0	3.0	19.0	stop	non-target	D	71,Index Finger	89,Middle Finger	450.0	650.0	2350.0	2100.0	0.0	0.0	650.0	n/a	ITI
314161	500	n/a	-1	-1	500	0.0	fixation	poldrack-single-stim	336	1004531	0.0-15.20-0.20	beast_fmri_test	278	1004380,/	t	<div class = centerbox2><div class = fixation>+</div></div>	none	500.0	test	n/a	n/a	n/a	n/a	n/a	n/a	n/a	n/a	n/a	n/a	n/a	n/a	n/a	n/a	n/a	n/a	n/a	n/a	fixation
310988.45911665808	2750	n/a	1058	89	2750	3176.54088334	stim	stop-signal	337	1007285	0.0-15.20-1.20	beast_fmri_test	278	1005060,/,1005739,/,1006419,/,1007100,/,1007780,/,1008460,/,1009139,/,1009819,/	t,t,t,t,t,t,t,t	<img class = center src='/static/experiments/beast_fmri_test/images/P.png'></img>	71,89	2750.0	test	<img class = center src='/static/experiments/beast_fmri_test/images/redP.png'></img>	go	2150.0	3.0	20.0	go	non-target	P	71,Index Finger	89,Middle Finger	450.0	600.0	2350.0	2150.0	1.0	n/a	600.0	1.0	go_stim
313738.45911665808	3176.5408833419319	n/a	1058	89	2750	3176.54088334	stim	stop-signal	337	1007285	0.0-15.20-1.20	beast_fmri_test	278	1005060,/,1005739,/,1006419,/,1007100,/,1007780,/,1008460,/,1009139,/,1009819,/	t,t,t,t,t,t,t,t	<img class = center src='/static/experiments/beast_fmri_test/images/P.png'></img>	71,89	2750.0	test	<img class = center src='/static/experiments/beast_fmri_test/images/redP.png'></img>	go	2150.0	3.0	20.0	go	non-target	P	71,Index Finger	89,Middle Finger	450.0	600.0	2350.0	2150.0	1.0	n/a	600.0	1.0	ITI
320631	500	n/a	-1	-1	500	0.0	fixation	poldrack-single-stim	338	1011001	0.0-15.21-0.21	beast_fmri_test	278	1010501,/	t	<div class = centerbox2><div class = fixation>+</div></div>	none	500.0	test	n/a	n/a	n/a	n/a	n/a	n/a	n/a	n/a	n/a	n/a	n/a	n/a	n/a	n/a	n/a	n/a	n/a	n/a	fixation
319701.98975915858	2750	n/a	720	89	2750	926.010240841	stim	stop-signal	339	1013748	0.0-15.21-1.21	beast_fmri_test	278	1011179,/,1011860,/,1012540,/,1013217,/,1013894,/,1014576,/	t,t,t,t,t,t	<img class = center src='/static/experiments/beast_fmri_test/images/T.png'></img>	71,89	2750.0	test	<img class = center src='/static/experiments/beast_fmri_test/images/redT.png'></img>	go	2150.0	3.0	21.0	go	non-target	T	71,Index Finger	89,Middle Finger	450.0	600.0	2350.0	2150.0	1.0	n/a	600.0	1.0	go_stim
