onset	duration	text	rt	key_press	block_duration	timing_post_trial	trial_id	trial_type	trial_index	time_elapsed	internal_node_id	exp_id	subject_id	trigger_times	triggers	stimulus	possible_responses	stim_duration	exp_stage	SS_stimulus	SS_trial_type	SS_duration	load	trial_num	stop_trial_type	adaptive_trial_type	stim	yes_response_key	no_response_key	SSD_target	SSD_non_target	SSTarget	SSNonTarget	go_acc	stop_acc	SS_delay	adaptive_acc	new_trial_type
test	10880	n/a	-1	-1	10880	0.0	practice-no-stop-feedback	poldrack-single-stim	584	1811936	0.0-24.0	beast_fmri_test	278	1801059,/,1801738,/,1802416,/,1803093,/,1803772,/,1804452,/,1805132,/,1805813,/,1806493,/,1807172,/,1807853,/,1808532,/,1809213,/,1809893,/,1810574,/,1811254,/,1811934,/	t,t,t,t,t,t,t,t,t,t,t,t,t,t,t,t,t	"<div class = ""centerbox""><p class = ""block-text"">Your delay is 2 trials.</p><p class = block-text>Please wait for the scanner to start the block</p></div>"	77	10880.0	n/a	n/a	n/a	n/a	n/a	n/a	n/a	n/a	n/a	n/a	n/a	n/a	n/a	n/a	n/a	n/a	n/a	n/a	n/a	start_functional_block
11378	500	n/a	-1	-1	500	0.0	fixation	poldrack-single-stim	585	1812437	0.0-25.0-0.0	beast_fmri_test	278	n/a	n/a	<div class = centerbox2><div class = fixation>+</div></div>	none	500.0	test	n/a	n/a	n/a	n/a	n/a	n/a	n/a	n/a	n/a	n/a	n/a	n/a	n/a	n/a	n/a	n/a	n/a	n/a	fixation
11156.185895296279	2750	n/a	731	89	2750	220.814104704	stim	stop-signal	586	1815186	0.0-25.0-1.0	beast_fmri_test	278	1812612,/,1813289,/,1813968,/,1814647,/,1815327,/	t,t,t,t,t	<img class = center src='/static/experiments/beast_fmri_test/images/V.png'></img>	71,89	2750.0	test	<img class = center src='/static/experiments/beast_fmri_test/images/redV.png'></img>	go	-1.0	2.0	0.0	go	temp-non-target	V	71,Index Finger	89,Middle Finger	300.0	300.0	2400.0	2400.0	0.0	n/a	n/a	n/a	go_stim
13906.185895296279	220.81410470374681	n/a	731	89	2750	220.814104704	stim	stop-signal	586	1815186	0.0-25.0-1.0	beast_fmri_test	278	1812612,/,1813289,/,1813968,/,1814647,/,1815327,/	t,t,t,t,t	<img class = center src='/static/experiments/beast_fmri_test/images/V.png'></img>	71,89	2750.0	test	<img class = center src='/static/experiments/beast_fmri_test/images/redV.png'></img>	go	-1.0	2.0	0.0	go	temp-non-target	V	71,Index Finger	89,Middle Finger	300.0	300.0	2400.0	2400.0	0.0	n/a	n/a	n/a	ITI
14911	500	n/a	-1	-1	500	0.0	fixation	poldrack-single-stim	587	1815970	0.0-25.1-0.1	beast_fmri_test	278	n/a	n/a	<div class = centerbox2><div class = fixation>+</div></div>	none	500.0	test	n/a	n/a	n/a	n/a	n/a	n/a	n/a	n/a	n/a	n/a	n/a	n/a	n/a	n/a	n/a	n/a	n/a	n/a	fixation
14594.198913919739	temp_go_duration	n/a	648	89	2750	318.80108608	stim	stop-signal	588	1818722	0.0-25.1-1.1	beast_fmri_test	278	1816008,/,1816689,/,1817369,/,1818048,/,1818728,/	t,t,t,t,t	<img class = center src='/static/experiments/beast_fmri_test/images/P.png'></img>	71,89	2750.0	test	<img class = center src='/static/experiments/beast_fmri_test/images/redP.png'></img>	stop	-1.0	2.0	1.0	stop	temp-non-target	P	71,Index Finger	89,Middle Finger	300.0	300.0	2400.0	2400.0	0.0	0.0	n/a	n/a	go_stim
temp-non-target	temp_stop_duration	n/a	648	89	2750	318.80108608	stim	stop-signal	588	1818722	0.0-25.1-1.1	beast_fmri_test	278	1816008,/,1816689,/,1817369,/,1818048,/,1818728,/	t,t,t,t,t	<img class = center src='/static/experiments/beast_fmri_test/images/P.png'></img>	71,89	2750.0	test	<img class = center src='/static/experiments/beast_fmri_test/images/redP.png'></img>	stop	-1.0	2.0	1.0	stop	temp-non-target	P	71,Index Finger	89,Middle Finger	300.0	300.0	2400.0	2400.0	0.0	0.0	n/a	n/a	stop_stim
17344.198913919739	318.80108608024506	n/a	648	89	2750	318.80108608	stim	stop-signal	588	1818722	0.0-25.1-1.1	beast_fmri_test	278	1816008,/,1816689,/,1817369,/,1818048,/,1818728,/	t,t,t,t,t	<img class = center src='/static/experiments/beast_fmri_test/images/P.png'></img>	71,89	2750.0	test	<img class = center src='/static/experiments/beast_fmri_test/images/redP.png'></img>	stop	-1.0	2.0	1.0	stop	temp-non-target	P	71,Index Finger	89,Middle Finger	300.0	300.0	2400.0	2400.0	0.0	0.0	n/a	n/a	ITI
18542	500	n/a	-1	-1	500	0.0	fixation	poldrack-single-stim	589	1819601	0.0-25.2-0.2	beast_fmri_test	278	1819409,/	t	<div class = centerbox2><div class = fixation>+</div></div>	none	500.0	test	n/a	n/a	n/a	n/a	n/a	n/a	n/a	n/a	n/a	n/a	n/a	n/a	n/a	n/a	n/a	n/a	n/a	n/a	fixation
16478.201000565663	300.0	n/a	451	71	2750	2065.79899943	stim	stop-signal	590	1822353	0.0-25.2-1.2	beast_fmri_test	278	1820087,/,1820768,/,1821449,/,1822128,/,1822806,/,1823483,/,1824162,/	t,t,t,t,t,t,t	<img class = center src='/static/experiments/beast_fmri_test/images/V.png'></img>	71,89	2750.0	test	<img class = center src='/static/experiments/beast_fmri_test/images/redV.png'></img>	stop	2450.0	2.0	2.0	stop	target	V	71,Index Finger	89,Middle Finger	300.0	300.0	2450.0	2400.0	0.0	0.0	300.0	n/a	go_stim
18928.201000565663	2450.0	n/a	451	71	2750	2065.79899943	stim	stop-signal	590	1822353	0.0-25.2-1.2	beast_fmri_test	278	1820087,/,1820768,/,1821449,/,1822128,/,1822806,/,1823483,/,1824162,/	t,t,t,t,t,t,t	<img class = center src='/static/experiments/beast_fmri_test/images/V.png'></img>	71,89	2750.0	test	<img class = center src='/static/experiments/beast_fmri_test/images/redV.png'></img>	stop	2450.0	2.0	2.0	stop	target	V	71,Index Finger	89,Middle Finger	300.0	300.0	2450.0	2400.0	0.0	0.0	300.0	n/a	stop_stim
19228.201000565663	2065.7989994342965	n/a	451	71	2750	2065.79899943	stim	stop-signal	590	1822353	0.0-25.2-1.2	beast_fmri_test	278	1820087,/,1820768,/,1821449,/,1822128,/,1822806,/,1823483,/,1824162,/	t,t,t,t,t,t,t	<img class = center src='/static/experiments/beast_fmri_test/images/V.png'></img>	71,89	2750.0	test	<img class = center src='/static/experiments/beast_fmri_test/images/redV.png'></img>	stop	2450.0	2.0	2.0	stop	target	V	71,Index Finger	89,Middle Finger	300.0	300.0	2450.0	2400.0	0.0	0.0	300.0	n/a	ITI
23910	500	n/a	-1	-1	500	0.0	fixation	poldrack-single-stim	591	1824969	0.0-25.3-0.3	beast_fmri_test	278	1824843,/	t	<div class = centerbox2><div class = fixation>+</div></div>	none	500.0	test	n/a	n/a	n/a	n/a	n/a	n/a	n/a	n/a	n/a	n/a	n/a	n/a	n/a	n/a	n/a	n/a	n/a	n/a	fixation
23642.519447051454	2750	n/a	518	71	2750	270.480552949	stim	stop-signal	592	1827722	0.0-25.3-1.3	beast_fmri_test	278	1825522,/,1826204,/,1826884,/,1827563,/	t,t,t,t	<img class = center src='/static/experiments/beast_fmri_test/images/P.png'></img>	71,89	2750.0	test	<img class = center src='/static/experiments/beast_fmri_test/images/redP.png'></img>	go	2500.0	2.0	3.0	go	target	P	71,Index Finger	89,Middle Finger	250.0	300.0	2500.0	2400.0	1.0	n/a	250.0	1.0	go_stim
26392.519447051454	270.48055294856562	n/a	518	71	2750	270.480552949	stim	stop-signal	592	1827722	0.0-25.3-1.3	beast_fmri_test	278	1825522,/,1826204,/,1826884,/,1827563,/	t,t,t,t	<img class = center src='/static/experiments/beast_fmri_test/images/P.png'></img>	71,89	2750.0	test	<img class = center src='/static/experiments/beast_fmri_test/images/redP.png'></img>	go	2500.0	2.0	3.0	go	target	P	71,Index Finger	89,Middle Finger	250.0	300.0	2500.0	2400.0	1.0	n/a	250.0	1.0	ITI
27492	500	n/a	-1	-1	500	0.0	fixation	poldrack-single-stim	593	1828551	0.0-25.4-0.4	beast_fmri_test	278	1828242,/	t	<div class = centerbox2><div class = fixation>+</div></div>	none	500.0	test	n/a	n/a	n/a	n/a	n/a	n/a	n/a	n/a	n/a	n/a	n/a	n/a	n/a	n/a	n/a	n/a	n/a	n/a	fixation
22494.0	2750	n/a	612	89	2750	5000.0	stim	stop-signal	594	1831303	0.0-25.4-1.4	beast_fmri_test	278	1828922,/,1829604,/,1830284,/,1830964,/,1831644,/,1832323,/,1833000,/,1833677,/,1834358,/,1835038,/,1835717,/	t,t,t,t,t,t,t,t,t,t,t	<img class = center src='/static/experiments/beast_fmri_test/images/P.png'></img>	71,89	2750.0	test	<img class = center src='/static/experiments/beast_fmri_test/images/redP.png'></img>	go	2450.0	2.0	4.0	go	non-target	P	71,Index Finger	89,Middle Finger	250.0	300.0	2500.0	2450.0	1.0	n/a	300.0	1.0	go_stim
25244.0	5000.0	n/a	612	89	2750	5000.0	stim	stop-signal	594	1831303	0.0-25.4-1.4	beast_fmri_test	278	1828922,/,1829604,/,1830284,/,1830964,/,1831644,/,1832323,/,1833000,/,1833677,/,1834358,/,1835038,/,1835717,/	t,t,t,t,t,t,t,t,t,t,t	<img class = center src='/static/experiments/beast_fmri_test/images/P.png'></img>	71,89	2750.0	test	<img class = center src='/static/experiments/beast_fmri_test/images/redP.png'></img>	go	2450.0	2.0	4.0	go	non-target	P	71,Index Finger	89,Middle Finger	250.0	300.0	2500.0	2450.0	1.0	n/a	300.0	1.0	ITI
35799	500	n/a	-1	-1	500	0.0	fixation	poldrack-single-stim	595	1836858	0.0-25.5-0.5	beast_fmri_test	278	1836398,/	t	<div class = centerbox2><div class = fixation>+</div></div>	none	500.0	test	n/a	n/a	n/a	n/a	n/a	n/a	n/a	n/a	n/a	n/a	n/a	n/a	n/a	n/a	n/a	n/a	n/a	n/a	fixation
35292.189404718345	2750	n/a	443	71	2750	510.810595282	stim	stop-signal	596	1839612	0.0-25.5-1.5	beast_fmri_test	278	1837079,/,1837760,/,1838439,/,1839120,/,1839800,/	t,t,t,t,t	<img class = center src='/static/experiments/beast_fmri_test/images/P.png'></img>	71,89	2750.0	test	<img class = center src='/static/experiments/beast_fmri_test/images/redP.png'></img>	go	2500.0	2.0	5.0	go	target	P	71,Index Finger	89,Middle Finger	250.0	300.0	2500.0	2450.0	1.0	n/a	250.0	1.0	go_stim
38042.189404718345	510.8105952817528	n/a	443	71	2750	510.810595282	stim	stop-signal	596	1839612	0.0-25.5-1.5	beast_fmri_test	278	1837079,/,1837760,/,1838439,/,1839120,/,1839800,/	t,t,t,t,t	<img class = center src='/static/experiments/beast_fmri_test/images/P.png'></img>	71,89	2750.0	test	<img class = center src='/static/experiments/beast_fmri_test/images/redP.png'></img>	go	2500.0	2.0	5.0	go	target	P	71,Index Finger	89,Middle Finger	250.0	300.0	2500.0	2450.0	1.0	n/a	250.0	1.0	ITI
39625	500	n/a	-1	-1	500	0.0	fixation	poldrack-single-stim	597	1840684	0.0-25.6-0.6	beast_fmri_test	278	1840479,/	t	<div class = centerbox2><div class = fixation>+</div></div>	none	500.0	test	n/a	n/a	n/a	n/a	n/a	n/a	n/a	n/a	n/a	n/a	n/a	n/a	n/a	n/a	n/a	n/a	n/a	n/a	fixation
38610.367956957081	2750	n/a	566	89	2750	1012.63204304	stim	stop-signal	598	1843432	0.0-25.6-1.6	beast_fmri_test	278	1841159,/,1841839,/,1842517,/,1843196,/,1843875,/	t,t,t,t,t	<img class = center src='/static/experiments/beast_fmri_test/images/D.png'></img>	71,89	2750.0	test	<img class = center src='/static/experiments/beast_fmri_test/images/redD.png'></img>	go	2450.0	2.0	6.0	go	non-target	D	71,Index Finger	89,Middle Finger	250.0	300.0	2500.0	2450.0	1.0	n/a	300.0	1.0	go_stim
41360.367956957081	1012.6320430430056	n/a	566	89	2750	1012.63204304	stim	stop-signal	598	1843432	0.0-25.6-1.6	beast_fmri_test	278	1841159,/,1841839,/,1842517,/,1843196,/,1843875,/	t,t,t,t,t	<img class = center src='/static/experiments/beast_fmri_test/images/D.png'></img>	71,89	2750.0	test	<img class = center src='/static/experiments/beast_fmri_test/images/redD.png'></img>	go	2450.0	2.0	6.0	go	non-target	D	71,Index Finger	89,Middle Finger	250.0	300.0	2500.0	2450.0	1.0	n/a	300.0	1.0	ITI
43946	500	n/a	-1	-1	500	0.0	fixation	poldrack-single-stim	599	1845005	0.0-25.7-0.7	beast_fmri_test	278	1844554,/	t	<div class = centerbox2><div class = fixation>+</div></div>	none	500.0	test	n/a	n/a	n/a	n/a	n/a	n/a	n/a	n/a	n/a	n/a	n/a	n/a	n/a	n/a	n/a	n/a	n/a	n/a	fixation
43526.304130147677	300.0	n/a	551	89	2750	423.695869852	stim	stop-signal	600	1847759	0.0-25.7-1.7	beast_fmri_test	278	1845235,/,1845914,/,1846594,/,1847274,/,1847955,/	t,t,t,t,t	<img class = center src='/static/experiments/beast_fmri_test/images/B.png'></img>	71,89	2750.0	test	<img class = center src='/static/experiments/beast_fmri_test/images/redB.png'></img>	stop	2450.0	2.0	7.0	stop	non-target	B	71,Index Finger	89,Middle Finger	250.0	300.0	2500.0	2450.0	0.0	0.0	300.0	n/a	go_stim
45976.304130147677	2450.0	n/a	551	89	2750	423.695869852	stim	stop-signal	600	1847759	0.0-25.7-1.7	beast_fmri_test	278	1845235,/,1845914,/,1846594,/,1847274,/,1847955,/	t,t,t,t,t	<img class = center src='/static/experiments/beast_fmri_test/images/B.png'></img>	71,89	2750.0	test	<img class = center src='/static/experiments/beast_fmri_test/images/redB.png'></img>	stop	2450.0	2.0	7.0	stop	non-target	B	71,Index Finger	89,Middle Finger	250.0	300.0	2500.0	2450.0	0.0	0.0	300.0	n/a	stop_stim
46276.304130147677	423.69586985239641	n/a	551	89	2750	423.695869852	stim	stop-signal	600	1847759	0.0-25.7-1.7	beast_fmri_test	278	1845235,/,1845914,/,1846594,/,1847274,/,1847955,/	t,t,t,t,t	<img class = center src='/static/experiments/beast_fmri_test/images/B.png'></img>	71,89	2750.0	test	<img class = center src='/static/experiments/beast_fmri_test/images/redB.png'></img>	stop	2450.0	2.0	7.0	stop	non-target	B	71,Index Finger	89,Middle Finger	250.0	300.0	2500.0	2450.0	0.0	0.0	300.0	n/a	ITI
47683	500	n/a	-1	-1	500	0.0	fixation	poldrack-single-stim	601	1848742	0.0-25.8-0.8	beast_fmri_test	278	1848635,/	t	<div class = centerbox2><div class = fixation>+</div></div>	none	500.0	test	n/a	n/a	n/a	n/a	n/a	n/a	n/a	n/a	n/a	n/a	n/a	n/a	n/a	n/a	n/a	n/a	n/a	n/a	fixation
47334.534333754564	250.0	n/a	-1	-1	2750	351.465666246	stim	stop-signal	602	1851495	0.0-25.8-1.8	beast_fmri_test	278	1849314,/,1849994,/,1850675,/,1851355,/	t,t,t,t	<img class = center src='/static/experiments/beast_fmri_test/images/P.png'></img>	71,89	2750.0	test	<img class = center src='/static/experiments/beast_fmri_test/images/redP.png'></img>	stop	2500.0	2.0	8.0	stop	non-target	P	71,Index Finger	89,Middle Finger	250.0	250.0	2500.0	2500.0	0.0	1.0	250.0	n/a	go_stim
49834.534333754564	2500.0	n/a	-1	-1	2750	351.465666246	stim	stop-signal	602	1851495	0.0-25.8-1.8	beast_fmri_test	278	1849314,/,1849994,/,1850675,/,1851355,/	t,t,t,t	<img class = center src='/static/experiments/beast_fmri_test/images/P.png'></img>	71,89	2750.0	test	<img class = center src='/static/experiments/beast_fmri_test/images/redP.png'></img>	stop	2500.0	2.0	8.0	stop	non-target	P	71,Index Finger	89,Middle Finger	250.0	250.0	2500.0	2500.0	0.0	1.0	250.0	n/a	stop_stim
50084.534333754564	351.46566624551667	n/a	-1	-1	2750	351.465666246	stim	stop-signal	602	1851495	0.0-25.8-1.8	beast_fmri_test	278	1849314,/,1849994,/,1850675,/,1851355,/	t,t,t,t	<img class = center src='/static/experiments/beast_fmri_test/images/P.png'></img>	71,89	2750.0	test	<img class = center src='/static/experiments/beast_fmri_test/images/redP.png'></img>	stop	2500.0	2.0	8.0	stop	non-target	P	71,Index Finger	89,Middle Finger	250.0	250.0	2500.0	2500.0	0.0	1.0	250.0	n/a	ITI
51348	500	n/a	-1	-1	500	0.0	fixation	poldrack-single-stim	603	1852407	0.0-25.9-0.9	beast_fmri_test	278	1852035,/	t	<div class = centerbox2><div class = fixation>+</div></div>	none	500.0	test	n/a	n/a	n/a	n/a	n/a	n/a	n/a	n/a	n/a	n/a	n/a	n/a	n/a	n/a	n/a	n/a	n/a	n/a	fixation
51282.422371241963	250.0	n/a	394	71	2750	64.5776287581	stim	stop-signal	604	1855156	0.0-25.9-1.9	beast_fmri_test	278	1852711,/,1853388,/,1854070,/,1854750,/	t,t,t,t	<img class = center src='/static/experiments/beast_fmri_test/images/B.png'></img>	71,89	2750.0	test	<img class = center src='/static/experiments/beast_fmri_test/images/redB.png'></img>	stop	2500.0	2.0	9.0	stop	target	B	71,Index Finger	89,Middle Finger	250.0	300.0	2500.0	2500.0	0.0	0.0	250.0	n/a	go_stim
53782.422371241963	2500.0	n/a	394	71	2750	64.5776287581	stim	stop-signal	604	1855156	0.0-25.9-1.9	beast_fmri_test	278	1852711,/,1853388,/,1854070,/,1854750,/	t,t,t,t	<img class = center src='/static/experiments/beast_fmri_test/images/B.png'></img>	71,89	2750.0	test	<img class = center src='/static/experiments/beast_fmri_test/images/redB.png'></img>	stop	2500.0	2.0	9.0	stop	target	B	71,Index Finger	89,Middle Finger	250.0	300.0	2500.0	2500.0	0.0	0.0	250.0	n/a	stop_stim
54032.422371241963	64.577628758054033	n/a	394	71	2750	64.5776287581	stim	stop-signal	604	1855156	0.0-25.9-1.9	beast_fmri_test	278	1852711,/,1853388,/,1854070,/,1854750,/	t,t,t,t	<img class = center src='/static/experiments/beast_fmri_test/images/B.png'></img>	71,89	2750.0	test	<img class = center src='/static/experiments/beast_fmri_test/images/redB.png'></img>	stop	2500.0	2.0	9.0	stop	target	B	71,Index Finger	89,Middle Finger	250.0	300.0	2500.0	2500.0	0.0	0.0	250.0	n/a	ITI
54729	500	n/a	-1	-1	500	0.0	fixation	poldrack-single-stim	605	1855788	0.0-25.10-0.10	beast_fmri_test	278	1855430,/	t	<div class = centerbox2><div class = fixation>+</div></div>	none	500.0	test	n/a	n/a	n/a	n/a	n/a	n/a	n/a	n/a	n/a	n/a	n/a	n/a	n/a	n/a	n/a	n/a	n/a	n/a	fixation
52492.651977428934	2750	n/a	610	89	2750	2240.34802257	stim	stop-signal	606	1858542	0.0-25.10-1.10	beast_fmri_test	278	1856110,/,1856789,/,1857468,/,1858148,/,1858830,/,1859510,/,1860190,/	t,t,t,t,t,t,t	<img class = center src='/static/experiments/beast_fmri_test/images/B.png'></img>	71,89	2750.0	test	<img class = center src='/static/experiments/beast_fmri_test/images/redB.png'></img>	go	2450.0	2.0	10.0	go	non-target	B	71,Index Finger	89,Middle Finger	200.0	300.0	2500.0	2450.0	1.0	n/a	300.0	1.0	go_stim
55242.651977428934	2240.3480225711401	n/a	610	89	2750	2240.34802257	stim	stop-signal	606	1858542	0.0-25.10-1.10	beast_fmri_test	278	1856110,/,1856789,/,1857468,/,1858148,/,1858830,/,1859510,/,1860190,/	t,t,t,t,t,t,t	<img class = center src='/static/experiments/beast_fmri_test/images/B.png'></img>	71,89	2750.0	test	<img class = center src='/static/experiments/beast_fmri_test/images/redB.png'></img>	go	2450.0	2.0	10.0	go	non-target	B	71,Index Finger	89,Middle Finger	200.0	300.0	2500.0	2450.0	1.0	n/a	300.0	1.0	ITI
60281	500	n/a	-1	-1	500	0.0	fixation	poldrack-single-stim	607	1861340	0.0-25.11-0.11	beast_fmri_test	278	1860879,/	t	<div class = centerbox2><div class = fixation>+</div></div>	none	500.0	test	n/a	n/a	n/a	n/a	n/a	n/a	n/a	n/a	n/a	n/a	n/a	n/a	n/a	n/a	n/a	n/a	n/a	n/a	fixation
60220.345826559002	2750	n/a	507	89	2750	59.654173441	stim	stop-signal	608	1864089	0.0-25.11-1.11	beast_fmri_test	278	1861550,/,1862229,/,1862905,/,1863585,/	t,t,t,t	<img class = center src='/static/experiments/beast_fmri_test/images/P.png'></img>	71,89	2750.0	test	<img class = center src='/static/experiments/beast_fmri_test/images/redP.png'></img>	go	2450.0	2.0	11.0	go	non-target	P	71,Index Finger	89,Middle Finger	200.0	300.0	2500.0	2450.0	1.0	n/a	300.0	1.0	go_stim
62970.345826559002	59.654173441026074	n/a	507	89	2750	59.654173441	stim	stop-signal	608	1864089	0.0-25.11-1.11	beast_fmri_test	278	1861550,/,1862229,/,1862905,/,1863585,/	t,t,t,t	<img class = center src='/static/experiments/beast_fmri_test/images/P.png'></img>	71,89	2750.0	test	<img class = center src='/static/experiments/beast_fmri_test/images/redP.png'></img>	go	2450.0	2.0	11.0	go	non-target	P	71,Index Finger	89,Middle Finger	200.0	300.0	2500.0	2450.0	1.0	n/a	300.0	1.0	ITI
63654	500	n/a	-1	-1	500	0.0	fixation	poldrack-single-stim	609	1864713	0.0-25.12-0.12	beast_fmri_test	278	1864264,/	t	<div class = centerbox2><div class = fixation>+</div></div>	none	500.0	test	n/a	n/a	n/a	n/a	n/a	n/a	n/a	n/a	n/a	n/a	n/a	n/a	n/a	n/a	n/a	n/a	n/a	n/a	fixation
63527.285219158744	2750	n/a	482	71	2750	129.714780841	stim	stop-signal	610	1867466	0.0-25.12-1.12	beast_fmri_test	278	1864946,/,1865625,/,1866305,/,1866986,/	t,t,t,t	<img class = center src='/static/experiments/beast_fmri_test/images/B.png'></img>	71,89	2750.0	test	<img class = center src='/static/experiments/beast_fmri_test/images/redB.png'></img>	go	2550.0	2.0	12.0	go	target	B	71,Index Finger	89,Middle Finger	200.0	300.0	2550.0	2450.0	1.0	n/a	200.0	1.0	go_stim
66277.285219158744	129.71478084132005	n/a	482	71	2750	129.714780841	stim	stop-signal	610	1867466	0.0-25.12-1.12	beast_fmri_test	278	1864946,/,1865625,/,1866305,/,1866986,/	t,t,t,t	<img class = center src='/static/experiments/beast_fmri_test/images/B.png'></img>	71,89	2750.0	test	<img class = center src='/static/experiments/beast_fmri_test/images/redB.png'></img>	go	2550.0	2.0	12.0	go	target	B	71,Index Finger	89,Middle Finger	200.0	300.0	2550.0	2450.0	1.0	n/a	200.0	1.0	ITI
67100	500	n/a	-1	-1	500	0.0	fixation	poldrack-single-stim	611	1868159	0.0-25.13-0.13	beast_fmri_test	278	1867665,/	t	<div class = centerbox2><div class = fixation>+</div></div>	none	500.0	test	n/a	n/a	n/a	n/a	n/a	n/a	n/a	n/a	n/a	n/a	n/a	n/a	n/a	n/a	n/a	n/a	n/a	n/a	fixation
65672.202328690328	2750	n/a	634	89	2750	1429.79767131	stim	stop-signal	612	1870911	0.0-25.13-1.13	beast_fmri_test	278	1868346,/,1869025,/,1869705,/,1870385,/,1871065,/,1871746,/	t,t,t,t,t,t	<img class = center src='/static/experiments/beast_fmri_test/images/V.png'></img>	71,89	2750.0	test	<img class = center src='/static/experiments/beast_fmri_test/images/redV.png'></img>	go	2450.0	2.0	13.0	go	non-target	V	71,Index Finger	89,Middle Finger	200.0	300.0	2550.0	2450.0	1.0	n/a	300.0	1.0	go_stim
68422.202328690328	1429.7976713097164	n/a	634	89	2750	1429.79767131	stim	stop-signal	612	1870911	0.0-25.13-1.13	beast_fmri_test	278	1868346,/,1869025,/,1869705,/,1870385,/,1871065,/,1871746,/	t,t,t,t,t,t	<img class = center src='/static/experiments/beast_fmri_test/images/V.png'></img>	71,89	2750.0	test	<img class = center src='/static/experiments/beast_fmri_test/images/redV.png'></img>	go	2450.0	2.0	13.0	go	non-target	V	71,Index Finger	89,Middle Finger	200.0	300.0	2550.0	2450.0	1.0	n/a	300.0	1.0	ITI
71854	500	n/a	-1	-1	500	0.0	fixation	poldrack-single-stim	613	1872913	0.0-25.14-0.14	beast_fmri_test	278	1872426,/	t	<div class = centerbox2><div class = fixation>+</div></div>	none	500.0	test	n/a	n/a	n/a	n/a	n/a	n/a	n/a	n/a	n/a	n/a	n/a	n/a	n/a	n/a	n/a	n/a	n/a	n/a	fixation
71687.195001942804	2750	n/a	607	89	2750	169.804998057	stim	stop-signal	614	1875666	0.0-25.14-1.14	beast_fmri_test	278	1873103,/,1873780,/,1874460,/,1875140,/,1875820,/	t,t,t,t,t	<img class = center src='/static/experiments/beast_fmri_test/images/V.png'></img>	71,89	2750.0	test	<img class = center src='/static/experiments/beast_fmri_test/images/redV.png'></img>	go	2450.0	2.0	14.0	go	non-target	V	71,Index Finger	89,Middle Finger	200.0	300.0	2550.0	2450.0	1.0	n/a	300.0	1.0	go_stim
74437.195001942804	169.80499805725182	n/a	607	89	2750	169.804998057	stim	stop-signal	614	1875666	0.0-25.14-1.14	beast_fmri_test	278	1873103,/,1873780,/,1874460,/,1875140,/,1875820,/	t,t,t,t,t	<img class = center src='/static/experiments/beast_fmri_test/images/V.png'></img>	71,89	2750.0	test	<img class = center src='/static/experiments/beast_fmri_test/images/redV.png'></img>	go	2450.0	2.0	14.0	go	non-target	V	71,Index Finger	89,Middle Finger	200.0	300.0	2550.0	2450.0	1.0	n/a	300.0	1.0	ITI
75333	500	n/a	-1	-1	500	0.0	fixation	poldrack-single-stim	615	1876392	0.0-25.15-0.15	beast_fmri_test	278	n/a	n/a	<div class = centerbox2><div class = fixation>+</div></div>	none	500.0	test	n/a	n/a	n/a	n/a	n/a	n/a	n/a	n/a	n/a	n/a	n/a	n/a	n/a	n/a	n/a	n/a	n/a	n/a	fixation
74353.152106511639	2750	n/a	388	71	2750	981.847893488	stim	stop-signal	616	1879144	0.0-25.15-1.15	beast_fmri_test	278	1876500,/,1877181,/,1877860,/,1878541,/,1879220,/,1879900,/	t,t,t,t,t,t	<img class = center src='/static/experiments/beast_fmri_test/images/V.png'></img>	71,89	2750.0	test	<img class = center src='/static/experiments/beast_fmri_test/images/redV.png'></img>	go	2550.0	2.0	15.0	go	target	V	71,Index Finger	89,Middle Finger	200.0	300.0	2550.0	2450.0	1.0	n/a	200.0	1.0	go_stim
77103.152106511639	981.84789348838945	n/a	388	71	2750	981.847893488	stim	stop-signal	616	1879144	0.0-25.15-1.15	beast_fmri_test	278	1876500,/,1877181,/,1877860,/,1878541,/,1879220,/,1879900,/	t,t,t,t,t,t	<img class = center src='/static/experiments/beast_fmri_test/images/V.png'></img>	71,89	2750.0	test	<img class = center src='/static/experiments/beast_fmri_test/images/redV.png'></img>	go	2550.0	2.0	15.0	go	target	V	71,Index Finger	89,Middle Finger	200.0	300.0	2550.0	2450.0	1.0	n/a	200.0	1.0	ITI
79629	500	n/a	-1	-1	500	0.0	fixation	poldrack-single-stim	617	1880688	0.0-25.16-0.16	beast_fmri_test	278	1880581,/	t	<div class = centerbox2><div class = fixation>+</div></div>	none	500.0	test	n/a	n/a	n/a	n/a	n/a	n/a	n/a	n/a	n/a	n/a	n/a	n/a	n/a	n/a	n/a	n/a	n/a	n/a	fixation
78515.720998552628	2750	n/a	698	71	2750	1111.27900145	stim	stop-signal	618	1883436	0.0-25.16-1.16	beast_fmri_test	278	1881261,/,1881941,/,1882618,/,1883296,/,1883976,/	t,t,t,t,t	<img class = center src='/static/experiments/beast_fmri_test/images/V.png'></img>	71,89	2750.0	test	<img class = center src='/static/experiments/beast_fmri_test/images/redV.png'></img>	go	2550.0	2.0	16.0	go	target	V	71,Index Finger	89,Middle Finger	200.0	300.0	2550.0	2450.0	1.0	n/a	200.0	1.0	go_stim
81265.720998552628	1111.2790014473078	n/a	698	71	2750	1111.27900145	stim	stop-signal	618	1883436	0.0-25.16-1.16	beast_fmri_test	278	1881261,/,1881941,/,1882618,/,1883296,/,1883976,/	t,t,t,t,t	<img class = center src='/static/experiments/beast_fmri_test/images/V.png'></img>	71,89	2750.0	test	<img class = center src='/static/experiments/beast_fmri_test/images/redV.png'></img>	go	2550.0	2.0	16.0	go	target	V	71,Index Finger	89,Middle Finger	200.0	300.0	2550.0	2450.0	1.0	n/a	200.0	1.0	ITI
84052	500	n/a	-1	-1	500	0.0	fixation	poldrack-single-stim	619	1885111	0.0-25.17-0.17	beast_fmri_test	278	1884654,/	t	<div class = centerbox2><div class = fixation>+</div></div>	none	500.0	test	n/a	n/a	n/a	n/a	n/a	n/a	n/a	n/a	n/a	n/a	n/a	n/a	n/a	n/a	n/a	n/a	n/a	n/a	fixation
80686.881950621959	2750	n/a	698	89	2750	3368.11804938	stim	stop-signal	620	1887864	0.0-25.17-1.17	beast_fmri_test	278	1885334,/,1886016,/,1886696,/,1887376,/,1888055,/,1888736,/,1889416,/,1890095,/,1890776,/	t,t,t,t,t,t,t,t,t	<img class = center src='/static/experiments/beast_fmri_test/images/B.png'></img>	71,89	2750.0	test	<img class = center src='/static/experiments/beast_fmri_test/images/redB.png'></img>	go	2450.0	2.0	17.0	go	non-target	B	71,Index Finger	89,Middle Finger	200.0	300.0	2550.0	2450.0	1.0	n/a	300.0	1.0	go_stim
83436.881950621959	3368.118049378103	n/a	698	89	2750	3368.11804938	stim	stop-signal	620	1887864	0.0-25.17-1.17	beast_fmri_test	278	1885334,/,1886016,/,1886696,/,1887376,/,1888055,/,1888736,/,1889416,/,1890095,/,1890776,/	t,t,t,t,t,t,t,t,t	<img class = center src='/static/experiments/beast_fmri_test/images/B.png'></img>	71,89	2750.0	test	<img class = center src='/static/experiments/beast_fmri_test/images/redB.png'></img>	go	2450.0	2.0	17.0	go	non-target	B	71,Index Finger	89,Middle Finger	200.0	300.0	2550.0	2450.0	1.0	n/a	300.0	1.0	ITI
90734	500	n/a	-1	-1	500	0.0	fixation	poldrack-single-stim	621	1891793	0.0-25.18-0.18	beast_fmri_test	278	1891456,/	t	<div class = centerbox2><div class = fixation>+</div></div>	none	500.0	test	n/a	n/a	n/a	n/a	n/a	n/a	n/a	n/a	n/a	n/a	n/a	n/a	n/a	n/a	n/a	n/a	n/a	n/a	fixation
90717.60555054131	2750	n/a	822	89	2750	14.3944494587	stim	stop-signal	622	1894541	0.0-25.18-1.18	beast_fmri_test	278	1892136,/,1892813,/,1893490,/,1894172,/	t,t,t,t	<img class = center src='/static/experiments/beast_fmri_test/images/B.png'></img>	71,89	2750.0	test	<img class = center src='/static/experiments/beast_fmri_test/images/redB.png'></img>	go	2450.0	2.0	18.0	go	non-target	B	71,Index Finger	89,Middle Finger	200.0	300.0	2550.0	2450.0	1.0	n/a	300.0	1.0	go_stim
93467.60555054131	14.394449458727205	n/a	822	89	2750	14.3944494587	stim	stop-signal	622	1894541	0.0-25.18-1.18	beast_fmri_test	278	1892136,/,1892813,/,1893490,/,1894172,/	t,t,t,t	<img class = center src='/static/experiments/beast_fmri_test/images/B.png'></img>	71,89	2750.0	test	<img class = center src='/static/experiments/beast_fmri_test/images/redB.png'></img>	go	2450.0	2.0	18.0	go	non-target	B	71,Index Finger	89,Middle Finger	200.0	300.0	2550.0	2450.0	1.0	n/a	300.0	1.0	ITI
94055	500	n/a	-1	-1	500	0.0	fixation	poldrack-single-stim	623	1895114	0.0-25.19-0.19	beast_fmri_test	278	1894852,/	t	<div class = centerbox2><div class = fixation>+</div></div>	none	500.0	test	n/a	n/a	n/a	n/a	n/a	n/a	n/a	n/a	n/a	n/a	n/a	n/a	n/a	n/a	n/a	n/a	n/a	n/a	fixation
92381.940969983581	2750	n/a	743	89	2750	1676.05903002	stim	stop-signal	624	1897867	0.0-25.19-1.19	beast_fmri_test	278	1895532,/,1896212,/,1896891,/,1897571,/,1898252,/,1898931,/	t,t,t,t,t,t	<img class = center src='/static/experiments/beast_fmri_test/images/T.png'></img>	71,89	2750.0	test	<img class = center src='/static/experiments/beast_fmri_test/images/redT.png'></img>	go	2450.0	2.0	19.0	go	non-target	T	71,Index Finger	89,Middle Finger	200.0	300.0	2550.0	2450.0	1.0	n/a	300.0	1.0	go_stim
95131.940969983581	1676.0590300163578	n/a	743	89	2750	1676.05903002	stim	stop-signal	624	1897867	0.0-25.19-1.19	beast_fmri_test	278	1895532,/,1896212,/,1896891,/,1897571,/,1898252,/,1898931,/	t,t,t,t,t,t	<img class = center src='/static/experiments/beast_fmri_test/images/T.png'></img>	71,89	2750.0	test	<img class = center src='/static/experiments/beast_fmri_test/images/redT.png'></img>	go	2450.0	2.0	19.0	go	non-target	T	71,Index Finger	89,Middle Finger	200.0	300.0	2550.0	2450.0	1.0	n/a	300.0	1.0	ITI
99048	500	n/a	-1	-1	500	0.0	fixation	poldrack-single-stim	625	1900107	0.0-25.20-0.20	beast_fmri_test	278	1899611,/	t	<div class = centerbox2><div class = fixation>+</div></div>	none	500.0	test	n/a	n/a	n/a	n/a	n/a	n/a	n/a	n/a	n/a	n/a	n/a	n/a	n/a	n/a	n/a	n/a	n/a	n/a	fixation
98458.070280532353	200.0	n/a	-1	-1	2750	588.929719468	stim	stop-signal	626	1902856	0.0-25.20-1.20	beast_fmri_test	278	1900292,/,1900971,/,1901652,/,1902331,/,1903007,/	t,t,t,t,t	<img class = center src='/static/experiments/beast_fmri_test/images/B.png'></img>	71,89	2750.0	test	<img class = center src='/static/experiments/beast_fmri_test/images/redB.png'></img>	stop	2550.0	2.0	20.0	stop	target	B	71,Index Finger	89,Middle Finger	200.0	300.0	2550.0	2450.0	0.0	1.0	200.0	n/a	go_stim
101008.07028053235	2550.0	n/a	-1	-1	2750	588.929719468	stim	stop-signal	626	1902856	0.0-25.20-1.20	beast_fmri_test	278	1900292,/,1900971,/,1901652,/,1902331,/,1903007,/	t,t,t,t,t	<img class = center src='/static/experiments/beast_fmri_test/images/B.png'></img>	71,89	2750.0	test	<img class = center src='/static/experiments/beast_fmri_test/images/redB.png'></img>	stop	2550.0	2.0	20.0	stop	target	B	71,Index Finger	89,Middle Finger	200.0	300.0	2550.0	2450.0	0.0	1.0	200.0	n/a	stop_stim
101208.07028053235	588.92971946775936	n/a	-1	-1	2750	588.929719468	stim	stop-signal	626	1902856	0.0-25.20-1.20	beast_fmri_test	278	1900292,/,1900971,/,1901652,/,1902331,/,1903007,/	t,t,t,t,t	<img class = center src='/static/experiments/beast_fmri_test/images/B.png'></img>	71,89	2750.0	test	<img class = center src='/static/experiments/beast_fmri_test/images/redB.png'></img>	stop	2550.0	2.0	20.0	stop	target	B	71,Index Finger	89,Middle Finger	200.0	300.0	2550.0	2450.0	0.0	1.0	200.0	n/a	ITI
102945	500	n/a	-1	-1	500	0.0	fixation	poldrack-single-stim	627	1904004	0.0-25.21-0.21	beast_fmri_test	278	1903687,/	t	<div class = centerbox2><div class = fixation>+</div></div>	none	500.0	test	n/a	n/a	n/a	n/a	n/a	n/a	n/a	n/a	n/a	n/a	n/a	n/a	n/a	n/a	n/a	n/a	n/a	n/a	fixation
102898.54314579698	2750	n/a	638	89	2750	50.456854203	stim	stop-signal	628	1906758	0.0-25.21-1.21	beast_fmri_test	278	1904367,/,1905046,/,1905727,/,1906406,/	t,t,t,t	<img class = center src='/static/experiments/beast_fmri_test/images/D.png'></img>	71,89	2750.0	test	<img class = center src='/static/experiments/beast_fmri_test/images/redD.png'></img>	go	2450.0	2.0	21.0	go	non-target	D	71,Index Finger	89,Middle Finger	250.0	300.0	2550.0	2450.0	1.0	n/a	300.0	1.0	go_stim
105648.54314579698	50.456854203023994	n/a	638	89	2750	50.456854203	stim	stop-signal	628	1906758	0.0-25.21-1.21	beast_fmri_test	278	1904367,/,1905046,/,1905727,/,1906406,/	t,t,t,t	<img class = center src='/static/experiments/beast_fmri_test/images/D.png'></img>	71,89	2750.0	test	<img class = center src='/static/experiments/beast_fmri_test/images/redD.png'></img>	go	2450.0	2.0	21.0	go	non-target	D	71,Index Finger	89,Middle Finger	250.0	300.0	2550.0	2450.0	1.0	n/a	300.0	1.0	ITI
106313	500	n/a	-1	-1	500	0.0	fixation	poldrack-single-stim	629	1907372	0.0-25.22-0.22	beast_fmri_test	278	1907087,/	t	<div class = centerbox2><div class = fixation>+</div></div>	none	500.0	test	n/a	n/a	n/a	n/a	n/a	n/a	n/a	n/a	n/a	n/a	n/a	n/a	n/a	n/a	n/a	n/a	n/a	n/a	fixation
104570.65455270233	300.0	n/a	-1	-1	2750	1746.3454473	stim	stop-signal	630	1910126	0.0-25.22-1.22	beast_fmri_test	278	1907767,/,1908447,/,1909126,/,1909807,/,1910486,/,1911165,/,1911847,/	t,t,t,t,t,t,t	<img class = center src='/static/experiments/beast_fmri_test/images/P.png'></img>	71,89	2750.0	test	<img class = center src='/static/experiments/beast_fmri_test/images/redP.png'></img>	stop	2450.0	2.0	22.0	stop	non-target	P	71,Index Finger	89,Middle Finger	250.0	300.0	2550.0	2450.0	0.0	1.0	300.0	n/a	go_stim
107020.65455270233	2450.0	n/a	-1	-1	2750	1746.3454473	stim	stop-signal	630	1910126	0.0-25.22-1.22	beast_fmri_test	278	1907767,/,1908447,/,1909126,/,1909807,/,1910486,/,1911165,/,1911847,/	t,t,t,t,t,t,t	<img class = center src='/static/experiments/beast_fmri_test/images/P.png'></img>	71,89	2750.0	test	<img class = center src='/static/experiments/beast_fmri_test/images/redP.png'></img>	stop	2450.0	2.0	22.0	stop	non-target	P	71,Index Finger	89,Middle Finger	250.0	300.0	2550.0	2450.0	0.0	1.0	300.0	n/a	stop_stim
107320.65455270233	1746.3454472976446	n/a	-1	-1	2750	1746.3454473	stim	stop-signal	630	1910126	0.0-25.22-1.22	beast_fmri_test	278	1907767,/,1908447,/,1909126,/,1909807,/,1910486,/,1911165,/,1911847,/	t,t,t,t,t,t,t	<img class = center src='/static/experiments/beast_fmri_test/images/P.png'></img>	71,89	2750.0	test	<img class = center src='/static/experiments/beast_fmri_test/images/redP.png'></img>	stop	2450.0	2.0	22.0	stop	non-target	P	71,Index Finger	89,Middle Finger	250.0	300.0	2550.0	2450.0	0.0	1.0	300.0	n/a	ITI
111377	500	n/a	-1	-1	500	0.0	fixation	poldrack-single-stim	631	1912436	0.0-25.23-0.23	beast_fmri_test	278	n/a	n/a	<div class = centerbox2><div class = fixation>+</div></div>	none	500.0	test	n/a	n/a	n/a	n/a	n/a	n/a	n/a	n/a	n/a	n/a	n/a	n/a	n/a	n/a	n/a	n/a	n/a	n/a	fixation
108449.67729449482	350.0	n/a	594	89	2750	2927.32270551	stim	stop-signal	632	1915186	0.0-25.23-1.23	beast_fmri_test	278	1912525,/,1913201,/,1913881,/,1914562,/,1915242,/,1915922,/,1916602,/,1917282,/,1917962,/	t,t,t,t,t,t,t,t,t	<img class = center src='/static/experiments/beast_fmri_test/images/P.png'></img>	71,89	2750.0	test	<img class = center src='/static/experiments/beast_fmri_test/images/redP.png'></img>	stop	2400.0	2.0	23.0	stop	non-target	P	71,Index Finger	89,Middle Finger	250.0	350.0	2550.0	2400.0	0.0	0.0	350.0	n/a	go_stim
110849.67729449482	2400.0	n/a	594	89	2750	2927.32270551	stim	stop-signal	632	1915186	0.0-25.23-1.23	beast_fmri_test	278	1912525,/,1913201,/,1913881,/,1914562,/,1915242,/,1915922,/,1916602,/,1917282,/,1917962,/	t,t,t,t,t,t,t,t,t	<img class = center src='/static/experiments/beast_fmri_test/images/P.png'></img>	71,89	2750.0	test	<img class = center src='/static/experiments/beast_fmri_test/images/redP.png'></img>	stop	2400.0	2.0	23.0	stop	non-target	P	71,Index Finger	89,Middle Finger	250.0	350.0	2550.0	2400.0	0.0	0.0	350.0	n/a	stop_stim
111199.67729449482	2927.322705505233	n/a	594	89	2750	2927.32270551	stim	stop-signal	632	1915186	0.0-25.23-1.23	beast_fmri_test	278	1912525,/,1913201,/,1913881,/,1914562,/,1915242,/,1915922,/,1916602,/,1917282,/,1917962,/	t,t,t,t,t,t,t,t,t	<img class = center src='/static/experiments/beast_fmri_test/images/P.png'></img>	71,89	2750.0	test	<img class = center src='/static/experiments/beast_fmri_test/images/redP.png'></img>	stop	2400.0	2.0	23.0	stop	non-target	P	71,Index Finger	89,Middle Finger	250.0	350.0	2550.0	2400.0	0.0	0.0	350.0	n/a	ITI
117614	500	n/a	-1	-1	500	0.0	fixation	poldrack-single-stim	633	1918673	0.0-25.24-0.24	beast_fmri_test	278	1918642,/	t	<div class = centerbox2><div class = fixation>+</div></div>	none	500.0	test	n/a	n/a	n/a	n/a	n/a	n/a	n/a	n/a	n/a	n/a	n/a	n/a	n/a	n/a	n/a	n/a	n/a	n/a	fixation
115669.40548252501	2750	n/a	721	89	2750	1948.59451748	stim	stop-signal	634	1921427	0.0-25.24-1.24	beast_fmri_test	278	1919322,/,1920002,/,1920683,/,1921362,/,1922043,/,1922719,/	t,t,t,t,t,t	<img class = center src='/static/experiments/beast_fmri_test/images/B.png'></img>	71,89	2750.0	test	<img class = center src='/static/experiments/beast_fmri_test/images/redB.png'></img>	go	2450.0	2.0	24.0	go	non-target	B	71,Index Finger	89,Middle Finger	250.0	300.0	2550.0	2450.0	1.0	n/a	300.0	1.0	go_stim
118419.40548252501	1948.5945174750611	n/a	721	89	2750	1948.59451748	stim	stop-signal	634	1921427	0.0-25.24-1.24	beast_fmri_test	278	1919322,/,1920002,/,1920683,/,1921362,/,1922043,/,1922719,/	t,t,t,t,t,t	<img class = center src='/static/experiments/beast_fmri_test/images/B.png'></img>	71,89	2750.0	test	<img class = center src='/static/experiments/beast_fmri_test/images/redB.png'></img>	go	2450.0	2.0	24.0	go	non-target	B	71,Index Finger	89,Middle Finger	250.0	300.0	2550.0	2450.0	1.0	n/a	300.0	1.0	ITI
122891	500	n/a	-1	-1	500	0.0	fixation	poldrack-single-stim	635	1923950	0.0-25.25-0.25	beast_fmri_test	278	1923449,/	t	<div class = centerbox2><div class = fixation>+</div></div>	none	500.0	test	n/a	n/a	n/a	n/a	n/a	n/a	n/a	n/a	n/a	n/a	n/a	n/a	n/a	n/a	n/a	n/a	n/a	n/a	fixation
122874.79204374412	300.0	n/a	523	89	2750	20.2079562558	stim	stop-signal	636	1926704	0.0-25.25-1.25	beast_fmri_test	278	1924078,/,1924758,/,1925438,/,1926117,/	t,t,t,t	<img class = center src='/static/experiments/beast_fmri_test/images/V.png'></img>	71,89	2750.0	test	<img class = center src='/static/experiments/beast_fmri_test/images/redV.png'></img>	stop	2450.0	2.0	25.0	stop	non-target	V	71,Index Finger	89,Middle Finger	250.0	300.0	2550.0	2450.0	0.0	0.0	300.0	n/a	go_stim
125324.79204374412	2450.0	n/a	523	89	2750	20.2079562558	stim	stop-signal	636	1926704	0.0-25.25-1.25	beast_fmri_test	278	1924078,/,1924758,/,1925438,/,1926117,/	t,t,t,t	<img class = center src='/static/experiments/beast_fmri_test/images/V.png'></img>	71,89	2750.0	test	<img class = center src='/static/experiments/beast_fmri_test/images/redV.png'></img>	stop	2450.0	2.0	25.0	stop	non-target	V	71,Index Finger	89,Middle Finger	250.0	300.0	2550.0	2450.0	0.0	0.0	300.0	n/a	stop_stim
125624.79204374412	20.207956255822342	n/a	523	89	2750	20.2079562558	stim	stop-signal	636	1926704	0.0-25.25-1.25	beast_fmri_test	278	1924078,/,1924758,/,1925438,/,1926117,/	t,t,t,t	<img class = center src='/static/experiments/beast_fmri_test/images/V.png'></img>	71,89	2750.0	test	<img class = center src='/static/experiments/beast_fmri_test/images/redV.png'></img>	stop	2450.0	2.0	25.0	stop	non-target	V	71,Index Finger	89,Middle Finger	250.0	300.0	2550.0	2450.0	0.0	0.0	300.0	n/a	ITI
126228	500	n/a	-1	-1	500	0.0	fixation	poldrack-single-stim	637	1927287	0.0-25.26-0.26	beast_fmri_test	278	1926797,/	t	<div class = centerbox2><div class = fixation>+</div></div>	none	500.0	test	n/a	n/a	n/a	n/a	n/a	n/a	n/a	n/a	n/a	n/a	n/a	n/a	n/a	n/a	n/a	n/a	n/a	n/a	fixation
124960.60750693083	2750	n/a	673	71	2750	1269.39249307	stim	stop-signal	638	1930039	0.0-25.26-1.26	beast_fmri_test	278	1927477,/,1928158,/,1928838,/,1929518,/,1930197,/,1930878,/	t,t,t,t,t,t	<img class = center src='/static/experiments/beast_fmri_test/images/B.png'></img>	71,89	2750.0	test	<img class = center src='/static/experiments/beast_fmri_test/images/redB.png'></img>	go	2500.0	2.0	26.0	go	target	B	71,Index Finger	89,Middle Finger	250.0	250.0	2500.0	2450.0	1.0	n/a	250.0	1.0	go_stim
127710.60750693083	1269.3924930692062	n/a	673	71	2750	1269.39249307	stim	stop-signal	638	1930039	0.0-25.26-1.26	beast_fmri_test	278	1927477,/,1928158,/,1928838,/,1929518,/,1930197,/,1930878,/	t,t,t,t,t,t	<img class = center src='/static/experiments/beast_fmri_test/images/B.png'></img>	71,89	2750.0	test	<img class = center src='/static/experiments/beast_fmri_test/images/redB.png'></img>	go	2500.0	2.0	26.0	go	target	B	71,Index Finger	89,Middle Finger	250.0	250.0	2500.0	2450.0	1.0	n/a	250.0	1.0	ITI
130814	500	n/a	-1	-1	500	0.0	fixation	poldrack-single-stim	639	1931873	0.0-25.27-0.27	beast_fmri_test	278	1931557,/	t	<div class = centerbox2><div class = fixation>+</div></div>	none	500.0	test	n/a	n/a	n/a	n/a	n/a	n/a	n/a	n/a	n/a	n/a	n/a	n/a	n/a	n/a	n/a	n/a	n/a	n/a	fixation
129970.1458329407	250.0	n/a	623	89	2750	840.854167059	stim	stop-signal	640	1934620	0.0-25.27-1.27	beast_fmri_test	278	1932236,/,1932913,/,1933593,/,1934273,/,1934953,/	t,t,t,t,t	<img class = center src='/static/experiments/beast_fmri_test/images/T.png'></img>	71,89	2750.0	test	<img class = center src='/static/experiments/beast_fmri_test/images/redT.png'></img>	stop	2500.0	2.0	27.0	stop	non-target	T	71,Index Finger	89,Middle Finger	250.0	250.0	2500.0	2500.0	0.0	0.0	250.0	n/a	go_stim
132470.1458329407	2500.0	n/a	623	89	2750	840.854167059	stim	stop-signal	640	1934620	0.0-25.27-1.27	beast_fmri_test	278	1932236,/,1932913,/,1933593,/,1934273,/,1934953,/	t,t,t,t,t	<img class = center src='/static/experiments/beast_fmri_test/images/T.png'></img>	71,89	2750.0	test	<img class = center src='/static/experiments/beast_fmri_test/images/redT.png'></img>	stop	2500.0	2.0	27.0	stop	non-target	T	71,Index Finger	89,Middle Finger	250.0	250.0	2500.0	2500.0	0.0	0.0	250.0	n/a	stop_stim
132720.1458329407	840.85416705938326	n/a	623	89	2750	840.854167059	stim	stop-signal	640	1934620	0.0-25.27-1.27	beast_fmri_test	278	1932236,/,1932913,/,1933593,/,1934273,/,1934953,/	t,t,t,t,t	<img class = center src='/static/experiments/beast_fmri_test/images/T.png'></img>	71,89	2750.0	test	<img class = center src='/static/experiments/beast_fmri_test/images/redT.png'></img>	stop	2500.0	2.0	27.0	stop	non-target	T	71,Index Finger	89,Middle Finger	250.0	250.0	2500.0	2500.0	0.0	0.0	250.0	n/a	ITI
134967	500	n/a	-1	-1	500	0.0	fixation	poldrack-single-stim	641	1936026	0.0-25.28-0.28	beast_fmri_test	278	1935632,/	t	<div class = centerbox2><div class = fixation>+</div></div>	none	500.0	test	n/a	n/a	n/a	n/a	n/a	n/a	n/a	n/a	n/a	n/a	n/a	n/a	n/a	n/a	n/a	n/a	n/a	n/a	fixation
134628.95056933374	2750	n/a	586	89	2750	341.049430666	stim	stop-signal	642	1938779	0.0-25.28-1.28	beast_fmri_test	278	1936313,/,1936992,/,1937673,/,1938352,/,1939033,/	t,t,t,t,t	<img class = center src='/static/experiments/beast_fmri_test/images/D.png'></img>	71,89	2750.0	test	<img class = center src='/static/experiments/beast_fmri_test/images/redD.png'></img>	go	2550.0	2.0	28.0	go	non-target	D	71,Index Finger	89,Middle Finger	250.0	200.0	2500.0	2550.0	1.0	n/a	200.0	1.0	go_stim
137378.95056933374	341.04943066626566	n/a	586	89	2750	341.049430666	stim	stop-signal	642	1938779	0.0-25.28-1.28	beast_fmri_test	278	1936313,/,1936992,/,1937673,/,1938352,/,1939033,/	t,t,t,t,t	<img class = center src='/static/experiments/beast_fmri_test/images/D.png'></img>	71,89	2750.0	test	<img class = center src='/static/experiments/beast_fmri_test/images/redD.png'></img>	go	2550.0	2.0	28.0	go	non-target	D	71,Index Finger	89,Middle Finger	250.0	200.0	2500.0	2550.0	1.0	n/a	200.0	1.0	ITI
138628	500	n/a	-1	-1	500	0.0	fixation	poldrack-single-stim	643	1939687	0.0-25.29-0.29	beast_fmri_test	278	n/a	n/a	<div class = centerbox2><div class = fixation>+</div></div>	none	500.0	test	n/a	n/a	n/a	n/a	n/a	n/a	n/a	n/a	n/a	n/a	n/a	n/a	n/a	n/a	n/a	n/a	n/a	n/a	fixation
138139.31106369221	250.0	n/a	-1	-1	2750	489.688936308	stim	stop-signal	644	1942438	0.0-25.29-1.29	beast_fmri_test	278	1939713,/,1940392,/,1941072,/,1941753,/,1942431,/	t,t,t,t,t	<img class = center src='/static/experiments/beast_fmri_test/images/T.png'></img>	71,89	2750.0	test	<img class = center src='/static/experiments/beast_fmri_test/images/redT.png'></img>	stop	2500.0	2.0	29.0	stop	target	T	71,Index Finger	89,Middle Finger	250.0	200.0	2500.0	2550.0	0.0	1.0	250.0	n/a	go_stim
140639.31106369221	2500.0	n/a	-1	-1	2750	489.688936308	stim	stop-signal	644	1942438	0.0-25.29-1.29	beast_fmri_test	278	1939713,/,1940392,/,1941072,/,1941753,/,1942431,/	t,t,t,t,t	<img class = center src='/static/experiments/beast_fmri_test/images/T.png'></img>	71,89	2750.0	test	<img class = center src='/static/experiments/beast_fmri_test/images/redT.png'></img>	stop	2500.0	2.0	29.0	stop	target	T	71,Index Finger	89,Middle Finger	250.0	200.0	2500.0	2550.0	0.0	1.0	250.0	n/a	stop_stim
140889.31106369221	489.6889363077733	n/a	-1	-1	2750	489.688936308	stim	stop-signal	644	1942438	0.0-25.29-1.29	beast_fmri_test	278	1939713,/,1940392,/,1941072,/,1941753,/,1942431,/	t,t,t,t,t	<img class = center src='/static/experiments/beast_fmri_test/images/T.png'></img>	71,89	2750.0	test	<img class = center src='/static/experiments/beast_fmri_test/images/redT.png'></img>	stop	2500.0	2.0	29.0	stop	target	T	71,Index Finger	89,Middle Finger	250.0	200.0	2500.0	2550.0	0.0	1.0	250.0	n/a	ITI
142429	500	n/a	-1	-1	500	0.0	fixation	poldrack-single-stim	645	1943488	0.0-25.30-0.30	beast_fmri_test	278	1943108,/	t	<div class = centerbox2><div class = fixation>+</div></div>	none	500.0	test	n/a	n/a	n/a	n/a	n/a	n/a	n/a	n/a	n/a	n/a	n/a	n/a	n/a	n/a	n/a	n/a	n/a	n/a	fixation
138295.63313989155	2750	n/a	664	89	2750	4136.36686011	stim	stop-signal	646	1946241	0.0-25.30-1.30	beast_fmri_test	278	1943788,/,1944468,/,1945148,/,1945827,/,1946506,/,1947188,/,1947868,/,1948547,/,1949228,/,1949909,/	t,t,t,t,t,t,t,t,t,t	<img class = center src='/static/experiments/beast_fmri_test/images/B.png'></img>	71,89	2750.0	test	<img class = center src='/static/experiments/beast_fmri_test/images/redB.png'></img>	go	2550.0	2.0	30.0	go	non-target	B	71,Index Finger	89,Middle Finger	300.0	200.0	2500.0	2550.0	1.0	n/a	200.0	1.0	go_stim
141045.63313989155	4136.3668601084537	n/a	664	89	2750	4136.36686011	stim	stop-signal	646	1946241	0.0-25.30-1.30	beast_fmri_test	278	1943788,/,1944468,/,1945148,/,1945827,/,1946506,/,1947188,/,1947868,/,1948547,/,1949228,/,1949909,/	t,t,t,t,t,t,t,t,t,t	<img class = center src='/static/experiments/beast_fmri_test/images/B.png'></img>	71,89	2750.0	test	<img class = center src='/static/experiments/beast_fmri_test/images/redB.png'></img>	go	2550.0	2.0	30.0	go	non-target	B	71,Index Finger	89,Middle Finger	300.0	200.0	2500.0	2550.0	1.0	n/a	200.0	1.0	ITI
149886	500	n/a	-1	-1	500	0.0	fixation	poldrack-single-stim	647	1950945	0.0-25.31-0.31	beast_fmri_test	278	1950587,/	t	<div class = centerbox2><div class = fixation>+</div></div>	none	500.0	test	n/a	n/a	n/a	n/a	n/a	n/a	n/a	n/a	n/a	n/a	n/a	n/a	n/a	n/a	n/a	n/a	n/a	n/a	fixation
147378.43293612287	300.0	n/a	559	71	2750	2505.56706388	stim	stop-signal	648	1953693	0.0-25.31-1.31	beast_fmri_test	278	1951267,/,1951949,/,1952625,/,1953303,/,1953982,/,1954664,/,1955344,/,1956024,/	t,t,t,t,t,t,t,t	<img class = center src='/static/experiments/beast_fmri_test/images/T.png'></img>	71,89	2750.0	test	<img class = center src='/static/experiments/beast_fmri_test/images/redT.png'></img>	stop	2450.0	2.0	31.0	stop	target	T	71,Index Finger	89,Middle Finger	300.0	200.0	2450.0	2550.0	0.0	0.0	300.0	n/a	go_stim
149828.43293612287	2450.0	n/a	559	71	2750	2505.56706388	stim	stop-signal	648	1953693	0.0-25.31-1.31	beast_fmri_test	278	1951267,/,1951949,/,1952625,/,1953303,/,1953982,/,1954664,/,1955344,/,1956024,/	t,t,t,t,t,t,t,t	<img class = center src='/static/experiments/beast_fmri_test/images/T.png'></img>	71,89	2750.0	test	<img class = center src='/static/experiments/beast_fmri_test/images/redT.png'></img>	stop	2450.0	2.0	31.0	stop	target	T	71,Index Finger	89,Middle Finger	300.0	200.0	2450.0	2550.0	0.0	0.0	300.0	n/a	stop_stim
150128.43293612287	2505.5670638771771	n/a	559	71	2750	2505.56706388	stim	stop-signal	648	1953693	0.0-25.31-1.31	beast_fmri_test	278	1951267,/,1951949,/,1952625,/,1953303,/,1953982,/,1954664,/,1955344,/,1956024,/	t,t,t,t,t,t,t,t	<img class = center src='/static/experiments/beast_fmri_test/images/T.png'></img>	71,89	2750.0	test	<img class = center src='/static/experiments/beast_fmri_test/images/redT.png'></img>	stop	2450.0	2.0	31.0	stop	target	T	71,Index Finger	89,Middle Finger	300.0	200.0	2450.0	2550.0	0.0	0.0	300.0	n/a	ITI
155708	500	n/a	-1	-1	500	0.0	fixation	poldrack-single-stim	649	1956767	0.0-25.32-0.32	beast_fmri_test	278	1956704,/	t	<div class = centerbox2><div class = fixation>+</div></div>	none	500.0	test	n/a	n/a	n/a	n/a	n/a	n/a	n/a	n/a	n/a	n/a	n/a	n/a	n/a	n/a	n/a	n/a	n/a	n/a	fixation
155249.25233255187	2750	n/a	759	71	2750	461.747667448	stim	stop-signal	650	1959520	0.0-25.32-1.32	beast_fmri_test	278	1957385,/,1958073,/,1958744,/,1959424,/	t,t,t,t	<img class = center src='/static/experiments/beast_fmri_test/images/V.png'></img>	71,89	2750.0	test	<img class = center src='/static/experiments/beast_fmri_test/images/redV.png'></img>	go	2550.0	2.0	32.0	go	non-target	V	71,Index Finger	89,Middle Finger	250.0	200.0	2450.0	2550.0	0.0	n/a	200.0	0.0	go_stim
157999.25233255187	461.74766744823546	n/a	759	71	2750	461.747667448	stim	stop-signal	650	1959520	0.0-25.32-1.32	beast_fmri_test	278	1957385,/,1958073,/,1958744,/,1959424,/	t,t,t,t	<img class = center src='/static/experiments/beast_fmri_test/images/V.png'></img>	71,89	2750.0	test	<img class = center src='/static/experiments/beast_fmri_test/images/redV.png'></img>	go	2550.0	2.0	32.0	go	non-target	V	71,Index Finger	89,Middle Finger	250.0	200.0	2450.0	2550.0	0.0	n/a	200.0	0.0	ITI
159495	500	n/a	-1	-1	500	0.0	fixation	poldrack-single-stim	651	1960554	0.0-25.33-0.33	beast_fmri_test	278	1960107,/	t	<div class = centerbox2><div class = fixation>+</div></div>	none	500.0	test	n/a	n/a	n/a	n/a	n/a	n/a	n/a	n/a	n/a	n/a	n/a	n/a	n/a	n/a	n/a	n/a	n/a	n/a	fixation
159252.19196507731	2750	n/a	617	89	2750	240.808034923	stim	stop-signal	652	1963302	0.0-25.33-1.33	beast_fmri_test	278	1960783,/,1961462,/,1962143,/,1962820,/,1963497,/	t,t,t,t,t	<img class = center src='/static/experiments/beast_fmri_test/images/D.png'></img>	71,89	2750.0	test	<img class = center src='/static/experiments/beast_fmri_test/images/redD.png'></img>	go	2550.0	2.0	33.0	go	non-target	D	71,Index Finger	89,Middle Finger	250.0	200.0	2450.0	2550.0	1.0	n/a	200.0	1.0	go_stim
162002.19196507731	240.80803492278289	n/a	617	89	2750	240.808034923	stim	stop-signal	652	1963302	0.0-25.33-1.33	beast_fmri_test	278	1960783,/,1961462,/,1962143,/,1962820,/,1963497,/	t,t,t,t,t	<img class = center src='/static/experiments/beast_fmri_test/images/D.png'></img>	71,89	2750.0	test	<img class = center src='/static/experiments/beast_fmri_test/images/redD.png'></img>	go	2550.0	2.0	33.0	go	non-target	D	71,Index Finger	89,Middle Finger	250.0	200.0	2450.0	2550.0	1.0	n/a	200.0	1.0	ITI
163046	500	n/a	-1	-1	500	0.0	fixation	poldrack-single-stim	653	1964105	0.0-25.34-0.34	beast_fmri_test	278	n/a	n/a	<div class = centerbox2><div class = fixation>+</div></div>	none	500.0	test	n/a	n/a	n/a	n/a	n/a	n/a	n/a	n/a	n/a	n/a	n/a	n/a	n/a	n/a	n/a	n/a	n/a	n/a	fixation
161750.90273988876	2750	n/a	541	71	2750	1299.09726011	stim	stop-signal	654	1966859	0.0-25.34-1.34	beast_fmri_test	278	1964178,/,1964859,/,1965539,/,1966219,/,1966900,/,1967579,/	t,t,t,t,t,t	<img class = center src='/static/experiments/beast_fmri_test/images/V.png'></img>	71,89	2750.0	test	<img class = center src='/static/experiments/beast_fmri_test/images/redV.png'></img>	go	2500.0	2.0	34.0	go	target	V	71,Index Finger	89,Middle Finger	250.0	200.0	2500.0	2550.0	1.0	n/a	250.0	1.0	go_stim
164500.90273988876	1299.0972601111775	n/a	541	71	2750	1299.09726011	stim	stop-signal	654	1966859	0.0-25.34-1.34	beast_fmri_test	278	1964178,/,1964859,/,1965539,/,1966219,/,1966900,/,1967579,/	t,t,t,t,t,t	<img class = center src='/static/experiments/beast_fmri_test/images/V.png'></img>	71,89	2750.0	test	<img class = center src='/static/experiments/beast_fmri_test/images/redV.png'></img>	go	2500.0	2.0	34.0	go	target	V	71,Index Finger	89,Middle Finger	250.0	200.0	2500.0	2550.0	1.0	n/a	250.0	1.0	ITI
167669	500	n/a	-1	-1	500	0.0	fixation	poldrack-single-stim	655	1968728	0.0-25.35-0.35	beast_fmri_test	278	1968258,/	t	<div class = centerbox2><div class = fixation>+</div></div>	none	500.0	test	n/a	n/a	n/a	n/a	n/a	n/a	n/a	n/a	n/a	n/a	n/a	n/a	n/a	n/a	n/a	n/a	n/a	n/a	fixation
166008.39027809142	2750	n/a	596	71	2750	1664.60972191	stim	stop-signal	656	1971482	0.0-25.35-1.35	beast_fmri_test	278	1968938,/,1969619,/,1970299,/,1970979,/,1971660,/,1972338,/,1973015,/	t,t,t,t,t,t,t	<img class = center src='/static/experiments/beast_fmri_test/images/D.png'></img>	71,89	2750.0	test	<img class = center src='/static/experiments/beast_fmri_test/images/redD.png'></img>	go	2500.0	2.0	35.0	go	target	D	71,Index Finger	89,Middle Finger	250.0	200.0	2500.0	2550.0	1.0	n/a	250.0	1.0	go_stim
168758.39027809142	1664.6097219086155	n/a	596	71	2750	1664.60972191	stim	stop-signal	656	1971482	0.0-25.35-1.35	beast_fmri_test	278	1968938,/,1969619,/,1970299,/,1970979,/,1971660,/,1972338,/,1973015,/	t,t,t,t,t,t,t	<img class = center src='/static/experiments/beast_fmri_test/images/D.png'></img>	71,89	2750.0	test	<img class = center src='/static/experiments/beast_fmri_test/images/redD.png'></img>	go	2500.0	2.0	35.0	go	target	D	71,Index Finger	89,Middle Finger	250.0	200.0	2500.0	2550.0	1.0	n/a	250.0	1.0	ITI
172646	500	n/a	-1	-1	500	0.0	fixation	poldrack-single-stim	657	1973705	0.0-25.36-0.36	beast_fmri_test	278	1973693,/	t	<div class = centerbox2><div class = fixation>+</div></div>	none	500.0	test	n/a	n/a	n/a	n/a	n/a	n/a	n/a	n/a	n/a	n/a	n/a	n/a	n/a	n/a	n/a	n/a	n/a	n/a	fixation
168909.12275785557	200.0	n/a	-1	-1	2750	3739.87724214	stim	stop-signal	658	1976458	0.0-25.36-1.36	beast_fmri_test	278	1974374,/,1975054,/,1975734,/,1976413,/,1977094,/,1977775,/,1978455,/,1979134,/,1979815,/	t,t,t,t,t,t,t,t,t	<img class = center src='/static/experiments/beast_fmri_test/images/B.png'></img>	71,89	2750.0	test	<img class = center src='/static/experiments/beast_fmri_test/images/redB.png'></img>	stop	2550.0	2.0	36.0	stop	non-target	B	71,Index Finger	89,Middle Finger	250.0	200.0	2500.0	2550.0	0.0	1.0	200.0	n/a	go_stim
171459.12275785557	2550.0	n/a	-1	-1	2750	3739.87724214	stim	stop-signal	658	1976458	0.0-25.36-1.36	beast_fmri_test	278	1974374,/,1975054,/,1975734,/,1976413,/,1977094,/,1977775,/,1978455,/,1979134,/,1979815,/	t,t,t,t,t,t,t,t,t	<img class = center src='/static/experiments/beast_fmri_test/images/B.png'></img>	71,89	2750.0	test	<img class = center src='/static/experiments/beast_fmri_test/images/redB.png'></img>	stop	2550.0	2.0	36.0	stop	non-target	B	71,Index Finger	89,Middle Finger	250.0	200.0	2500.0	2550.0	0.0	1.0	200.0	n/a	stop_stim
171659.12275785557	3739.8772421445369	n/a	-1	-1	2750	3739.87724214	stim	stop-signal	658	1976458	0.0-25.36-1.36	beast_fmri_test	278	1974374,/,1975054,/,1975734,/,1976413,/,1977094,/,1977775,/,1978455,/,1979134,/,1979815,/	t,t,t,t,t,t,t,t,t	<img class = center src='/static/experiments/beast_fmri_test/images/B.png'></img>	71,89	2750.0	test	<img class = center src='/static/experiments/beast_fmri_test/images/redB.png'></img>	stop	2550.0	2.0	36.0	stop	non-target	B	71,Index Finger	89,Middle Finger	250.0	200.0	2500.0	2550.0	0.0	1.0	200.0	n/a	ITI
179706	500	n/a	-1	-1	500	0.0	fixation	poldrack-single-stim	659	1980765	0.0-25.37-0.37	beast_fmri_test	278	1980496,/	t	<div class = centerbox2><div class = fixation>+</div></div>	none	500.0	test	n/a	n/a	n/a	n/a	n/a	n/a	n/a	n/a	n/a	n/a	n/a	n/a	n/a	n/a	n/a	n/a	n/a	n/a	fixation
179599.12292892649	2750	n/a	562	89	2750	104.877071074	stim	stop-signal	660	1983513	0.0-25.37-1.37	beast_fmri_test	278	1981175,/,1981855,/,1982533,/,1983210,/	t,t,t,t	<img class = center src='/static/experiments/beast_fmri_test/images/B.png'></img>	71,89	2750.0	test	<img class = center src='/static/experiments/beast_fmri_test/images/redB.png'></img>	go	2500.0	2.0	37.0	go	non-target	B	71,Index Finger	89,Middle Finger	250.0	250.0	2500.0	2500.0	1.0	n/a	250.0	1.0	go_stim
182349.12292892649	104.87707107358101	n/a	562	89	2750	104.877071074	stim	stop-signal	660	1983513	0.0-25.37-1.37	beast_fmri_test	278	1981175,/,1981855,/,1982533,/,1983210,/	t,t,t,t	<img class = center src='/static/experiments/beast_fmri_test/images/B.png'></img>	71,89	2750.0	test	<img class = center src='/static/experiments/beast_fmri_test/images/redB.png'></img>	go	2500.0	2.0	37.0	go	non-target	B	71,Index Finger	89,Middle Finger	250.0	250.0	2500.0	2500.0	1.0	n/a	250.0	1.0	ITI
183123	500	n/a	-1	-1	500	0.0	fixation	poldrack-single-stim	661	1984182	0.0-25.38-0.38	beast_fmri_test	278	1983890,/	t	<div class = centerbox2><div class = fixation>+</div></div>	none	500.0	test	n/a	n/a	n/a	n/a	n/a	n/a	n/a	n/a	n/a	n/a	n/a	n/a	n/a	n/a	n/a	n/a	n/a	n/a	fixation
181606.37392529449	250.0	n/a	-1	-1	2750	1519.62607471	stim	stop-signal	662	1986935	0.0-25.38-1.38	beast_fmri_test	278	1984570,/,1985249,/,1985930,/,1986610,/,1987290,/,1987970,/	t,t,t,t,t,t	<img class = center src='/static/experiments/beast_fmri_test/images/V.png'></img>	71,89	2750.0	test	<img class = center src='/static/experiments/beast_fmri_test/images/redV.png'></img>	stop	2500.0	2.0	38.0	stop	non-target	V	71,Index Finger	89,Middle Finger	250.0	250.0	2500.0	2500.0	0.0	1.0	250.0	n/a	go_stim
184106.37392529449	2500.0	n/a	-1	-1	2750	1519.62607471	stim	stop-signal	662	1986935	0.0-25.38-1.38	beast_fmri_test	278	1984570,/,1985249,/,1985930,/,1986610,/,1987290,/,1987970,/	t,t,t,t,t,t	<img class = center src='/static/experiments/beast_fmri_test/images/V.png'></img>	71,89	2750.0	test	<img class = center src='/static/experiments/beast_fmri_test/images/redV.png'></img>	stop	2500.0	2.0	38.0	stop	non-target	V	71,Index Finger	89,Middle Finger	250.0	250.0	2500.0	2500.0	0.0	1.0	250.0	n/a	stop_stim
184356.37392529449	1519.6260747054916	n/a	-1	-1	2750	1519.62607471	stim	stop-signal	662	1986935	0.0-25.38-1.38	beast_fmri_test	278	1984570,/,1985249,/,1985930,/,1986610,/,1987290,/,1987970,/	t,t,t,t,t,t	<img class = center src='/static/experiments/beast_fmri_test/images/V.png'></img>	71,89	2750.0	test	<img class = center src='/static/experiments/beast_fmri_test/images/redV.png'></img>	stop	2500.0	2.0	38.0	stop	non-target	V	71,Index Finger	89,Middle Finger	250.0	250.0	2500.0	2500.0	0.0	1.0	250.0	n/a	ITI
187966	500	n/a	-1	-1	500	0.0	fixation	poldrack-single-stim	663	1989025	0.0-25.39-0.39	beast_fmri_test	278	1988649,/	t	<div class = centerbox2><div class = fixation>+</div></div>	none	500.0	test	n/a	n/a	n/a	n/a	n/a	n/a	n/a	n/a	n/a	n/a	n/a	n/a	n/a	n/a	n/a	n/a	n/a	n/a	fixation
187813.75975746708	300.0	n/a	551	89	2750	154.240242533	stim	stop-signal	664	1991777	0.0-25.39-1.39	beast_fmri_test	278	1989331,/,1990009,/,1990690,/,1991370,/	t,t,t,t	<img class = center src='/static/experiments/beast_fmri_test/images/P.png'></img>	71,89	2750.0	test	<img class = center src='/static/experiments/beast_fmri_test/images/redP.png'></img>	stop	2450.0	2.0	39.0	stop	non-target	P	71,Index Finger	89,Middle Finger	250.0	300.0	2500.0	2450.0	0.0	0.0	300.0	n/a	go_stim
190263.75975746708	2450.0	n/a	551	89	2750	154.240242533	stim	stop-signal	664	1991777	0.0-25.39-1.39	beast_fmri_test	278	1989331,/,1990009,/,1990690,/,1991370,/	t,t,t,t	<img class = center src='/static/experiments/beast_fmri_test/images/P.png'></img>	71,89	2750.0	test	<img class = center src='/static/experiments/beast_fmri_test/images/redP.png'></img>	stop	2450.0	2.0	39.0	stop	non-target	P	71,Index Finger	89,Middle Finger	250.0	300.0	2500.0	2450.0	0.0	0.0	300.0	n/a	stop_stim
190563.75975746708	154.24024253301025	n/a	551	89	2750	154.240242533	stim	stop-signal	664	1991777	0.0-25.39-1.39	beast_fmri_test	278	1989331,/,1990009,/,1990690,/,1991370,/	t,t,t,t	<img class = center src='/static/experiments/beast_fmri_test/images/P.png'></img>	71,89	2750.0	test	<img class = center src='/static/experiments/beast_fmri_test/images/redP.png'></img>	stop	2450.0	2.0	39.0	stop	non-target	P	71,Index Finger	89,Middle Finger	250.0	300.0	2500.0	2450.0	0.0	0.0	300.0	n/a	ITI
191437	500	n/a	-1	-1	500	0.0	fixation	poldrack-single-stim	665	1992496	0.0-25.40-0.40	beast_fmri_test	278	1992049,/	t	<div class = centerbox2><div class = fixation>+</div></div>	none	500.0	test	n/a	n/a	n/a	n/a	n/a	n/a	n/a	n/a	n/a	n/a	n/a	n/a	n/a	n/a	n/a	n/a	n/a	n/a	fixation
191020.06323034456	250.0	n/a	894	89	2750	416.936769655	stim	stop-signal	666	1995246	0.0-25.40-1.40	beast_fmri_test	278	1992726,/,1993404,/,1994085,/,1994764,/,1995445,/	t,t,t,t,t	<img class = center src='/static/experiments/beast_fmri_test/images/P.png'></img>	71,89	2750.0	test	<img class = center src='/static/experiments/beast_fmri_test/images/redP.png'></img>	stop	2500.0	2.0	40.0	stop	non-target	P	71,Index Finger	89,Middle Finger	250.0	250.0	2500.0	2500.0	0.0	0.0	250.0	n/a	go_stim
193520.06323034456	2500.0	n/a	894	89	2750	416.936769655	stim	stop-signal	666	1995246	0.0-25.40-1.40	beast_fmri_test	278	1992726,/,1993404,/,1994085,/,1994764,/,1995445,/	t,t,t,t,t	<img class = center src='/static/experiments/beast_fmri_test/images/P.png'></img>	71,89	2750.0	test	<img class = center src='/static/experiments/beast_fmri_test/images/redP.png'></img>	stop	2500.0	2.0	40.0	stop	non-target	P	71,Index Finger	89,Middle Finger	250.0	250.0	2500.0	2500.0	0.0	0.0	250.0	n/a	stop_stim
193770.06323034456	416.93676965547911	n/a	894	89	2750	416.936769655	stim	stop-signal	666	1995246	0.0-25.40-1.40	beast_fmri_test	278	1992726,/,1993404,/,1994085,/,1994764,/,1995445,/	t,t,t,t,t	<img class = center src='/static/experiments/beast_fmri_test/images/P.png'></img>	71,89	2750.0	test	<img class = center src='/static/experiments/beast_fmri_test/images/redP.png'></img>	stop	2500.0	2.0	40.0	stop	non-target	P	71,Index Finger	89,Middle Finger	250.0	250.0	2500.0	2500.0	0.0	0.0	250.0	n/a	ITI
195169	500	n/a	-1	-1	500	0.0	fixation	poldrack-single-stim	667	1996228	0.0-25.41-0.41	beast_fmri_test	278	1996126,/	t	<div class = centerbox2><div class = fixation>+</div></div>	none	500.0	test	n/a	n/a	n/a	n/a	n/a	n/a	n/a	n/a	n/a	n/a	n/a	n/a	n/a	n/a	n/a	n/a	n/a	n/a	fixation
195145.09217639593	2750	n/a	719	89	2750	25.907823604	stim	stop-signal	668	1998980	0.0-25.41-1.41	beast_fmri_test	278	1996804,/,1997485,/,1998165,/,1998844,/	t,t,t,t	<img class = center src='/static/experiments/beast_fmri_test/images/D.png'></img>	71,89	2750.0	test	<img class = center src='/static/experiments/beast_fmri_test/images/redD.png'></img>	go	2550.0	2.0	41.0	go	non-target	D	71,Index Finger	89,Middle Finger	250.0	200.0	2500.0	2550.0	1.0	n/a	200.0	1.0	go_stim
197895.09217639593	25.90782360395886	n/a	719	89	2750	25.907823604	stim	stop-signal	668	1998980	0.0-25.41-1.41	beast_fmri_test	278	1996804,/,1997485,/,1998165,/,1998844,/	t,t,t,t	<img class = center src='/static/experiments/beast_fmri_test/images/D.png'></img>	71,89	2750.0	test	<img class = center src='/static/experiments/beast_fmri_test/images/redD.png'></img>	go	2550.0	2.0	41.0	go	non-target	D	71,Index Finger	89,Middle Finger	250.0	200.0	2500.0	2550.0	1.0	n/a	200.0	1.0	ITI
198514	500	n/a	-1	-1	500	0.0	fixation	poldrack-single-stim	669	1999573	0.0-25.42-0.42	beast_fmri_test	278	1999526,/	t	<div class = centerbox2><div class = fixation>+</div></div>	none	500.0	test	n/a	n/a	n/a	n/a	n/a	n/a	n/a	n/a	n/a	n/a	n/a	n/a	n/a	n/a	n/a	n/a	n/a	n/a	fixation
197003.7174311839	2750	n/a	816	89	2750	1511.28256882	stim	stop-signal	670	2002324	0.0-25.42-1.42	beast_fmri_test	278	2000204,/,2000884,/,2001564,/,2002243,/,2002921,/,2003600,/	t,t,t,t,t,t	<img class = center src='/static/experiments/beast_fmri_test/images/T.png'></img>	71,89	2750.0	test	<img class = center src='/static/experiments/beast_fmri_test/images/redT.png'></img>	go	2550.0	2.0	42.0	go	non-target	T	71,Index Finger	89,Middle Finger	250.0	200.0	2500.0	2550.0	1.0	n/a	200.0	1.0	go_stim
199753.7174311839	1511.2825688160272	n/a	816	89	2750	1511.28256882	stim	stop-signal	670	2002324	0.0-25.42-1.42	beast_fmri_test	278	2000204,/,2000884,/,2001564,/,2002243,/,2002921,/,2003600,/	t,t,t,t,t,t	<img class = center src='/static/experiments/beast_fmri_test/images/T.png'></img>	71,89	2750.0	test	<img class = center src='/static/experiments/beast_fmri_test/images/redT.png'></img>	go	2550.0	2.0	42.0	go	non-target	T	71,Index Finger	89,Middle Finger	250.0	200.0	2500.0	2550.0	1.0	n/a	200.0	1.0	ITI
203338	500	n/a	-1	-1	500	0.0	fixation	poldrack-single-stim	671	2004397	0.0-25.43-0.43	beast_fmri_test	278	2004281,/	t	<div class = centerbox2><div class = fixation>+</div></div>	none	500.0	test	n/a	n/a	n/a	n/a	n/a	n/a	n/a	n/a	n/a	n/a	n/a	n/a	n/a	n/a	n/a	n/a	n/a	n/a	fixation
203125.13472200325	2750	n/a	487	71	2750	216.865277997	stim	stop-signal	672	2007151	0.0-25.43-1.43	beast_fmri_test	278	2004960,/,2005639,/,2006319,/,2007001,/	t,t,t,t	<img class = center src='/static/experiments/beast_fmri_test/images/D.png'></img>	71,89	2750.0	test	<img class = center src='/static/experiments/beast_fmri_test/images/redD.png'></img>	go	2500.0	2.0	43.0	go	target	D	71,Index Finger	89,Middle Finger	250.0	200.0	2500.0	2550.0	1.0	n/a	250.0	1.0	go_stim
205875.13472200325	216.86527799677842	n/a	487	71	2750	216.865277997	stim	stop-signal	672	2007151	0.0-25.43-1.43	beast_fmri_test	278	2004960,/,2005639,/,2006319,/,2007001,/	t,t,t,t	<img class = center src='/static/experiments/beast_fmri_test/images/D.png'></img>	71,89	2750.0	test	<img class = center src='/static/experiments/beast_fmri_test/images/redD.png'></img>	go	2500.0	2.0	43.0	go	target	D	71,Index Finger	89,Middle Finger	250.0	200.0	2500.0	2550.0	1.0	n/a	250.0	1.0	ITI
206876	500	n/a	-1	-1	500	0.0	fixation	poldrack-single-stim	673	2007935	0.0-25.44-0.44	beast_fmri_test	278	2007681,/	t	<div class = centerbox2><div class = fixation>+</div></div>	none	500.0	test	n/a	n/a	n/a	n/a	n/a	n/a	n/a	n/a	n/a	n/a	n/a	n/a	n/a	n/a	n/a	n/a	n/a	n/a	fixation
206327.03340561688	2750	n/a	552	89	2750	551.966594383	stim	stop-signal	674	2010688	0.0-25.44-1.44	beast_fmri_test	278	2008360,/,2009042,/,2009720,/,2010399,/,2011080,/	t,t,t,t,t	<img class = center src='/static/experiments/beast_fmri_test/images/V.png'></img>	71,89	2750.0	test	<img class = center src='/static/experiments/beast_fmri_test/images/redV.png'></img>	go	2550.0	2.0	44.0	go	non-target	V	71,Index Finger	89,Middle Finger	250.0	200.0	2500.0	2550.0	1.0	n/a	200.0	1.0	go_stim
209077.03340561688	551.96659438320864	n/a	552	89	2750	551.966594383	stim	stop-signal	674	2010688	0.0-25.44-1.44	beast_fmri_test	278	2008360,/,2009042,/,2009720,/,2010399,/,2011080,/	t,t,t,t,t	<img class = center src='/static/experiments/beast_fmri_test/images/V.png'></img>	71,89	2750.0	test	<img class = center src='/static/experiments/beast_fmri_test/images/redV.png'></img>	go	2550.0	2.0	44.0	go	non-target	V	71,Index Finger	89,Middle Finger	250.0	200.0	2500.0	2550.0	1.0	n/a	200.0	1.0	ITI
210747	500	n/a	-1	-1	500	0.0	fixation	poldrack-single-stim	675	2011806	0.0-25.45-0.45	beast_fmri_test	278	2011762,/	t	<div class = centerbox2><div class = fixation>+</div></div>	none	500.0	test	n/a	n/a	n/a	n/a	n/a	n/a	n/a	n/a	n/a	n/a	n/a	n/a	n/a	n/a	n/a	n/a	n/a	n/a	fixation
210691.80247576162	2750	n/a	511	71	2750	52.1975242383	stim	stop-signal	676	2014553	0.0-25.45-1.45	beast_fmri_test	278	2012440,/,2013116,/,2013796,/,2014476,/	t,t,t,t	<img class = center src='/static/experiments/beast_fmri_test/images/D.png'></img>	71,89	2750.0	test	<img class = center src='/static/experiments/beast_fmri_test/images/redD.png'></img>	go	2500.0	2.0	45.0	go	target	D	71,Index Finger	89,Middle Finger	250.0	200.0	2500.0	2550.0	1.0	n/a	250.0	1.0	go_stim
213441.80247576162	52.197524238342602	n/a	511	71	2750	52.1975242383	stim	stop-signal	676	2014553	0.0-25.45-1.45	beast_fmri_test	278	2012440,/,2013116,/,2013796,/,2014476,/	t,t,t,t	<img class = center src='/static/experiments/beast_fmri_test/images/D.png'></img>	71,89	2750.0	test	<img class = center src='/static/experiments/beast_fmri_test/images/redD.png'></img>	go	2500.0	2.0	45.0	go	target	D	71,Index Finger	89,Middle Finger	250.0	200.0	2500.0	2550.0	1.0	n/a	250.0	1.0	ITI
214108	500	n/a	-1	-1	500	0.0	fixation	poldrack-single-stim	677	2015167	0.0-25.46-0.46	beast_fmri_test	278	2015156,/	t	<div class = centerbox2><div class = fixation>+</div></div>	none	500.0	test	n/a	n/a	n/a	n/a	n/a	n/a	n/a	n/a	n/a	n/a	n/a	n/a	n/a	n/a	n/a	n/a	n/a	n/a	fixation
213812.98834848031	2750	n/a	661	89	2750	299.01165152	stim	stop-signal	678	2017921	0.0-25.46-1.46	beast_fmri_test	278	2015834,/,2016516,/,2017196,/,2017875,/	t,t,t,t	<img class = center src='/static/experiments/beast_fmri_test/images/P.png'></img>	71,89	2750.0	test	<img class = center src='/static/experiments/beast_fmri_test/images/redP.png'></img>	go	2550.0	2.0	46.0	go	non-target	P	71,Index Finger	89,Middle Finger	250.0	200.0	2500.0	2550.0	1.0	n/a	200.0	1.0	go_stim
216562.98834848031	299.01165151975874	n/a	661	89	2750	299.01165152	stim	stop-signal	678	2017921	0.0-25.46-1.46	beast_fmri_test	278	2015834,/,2016516,/,2017196,/,2017875,/	t,t,t,t	<img class = center src='/static/experiments/beast_fmri_test/images/P.png'></img>	71,89	2750.0	test	<img class = center src='/static/experiments/beast_fmri_test/images/redP.png'></img>	go	2550.0	2.0	46.0	go	non-target	P	71,Index Finger	89,Middle Finger	250.0	200.0	2500.0	2550.0	1.0	n/a	200.0	1.0	ITI
232217	15000	n/a	-1	-1	15000	0.0	practice-no-stop-feedback	poldrack-single-stim	679	2033276	0.0-26.0	beast_fmri_test	278	2018555,/,2019236,/,2019916,/,2020595,/,2021276,/,2021957,/,2022636,/,2023316,/,2023996,/,2024676,/,2025356,/,2026035,/,2026715,/,2027395,/,2028071,/,2028750,/,2029430,/,2030110,/,2030791,/,2031470,/,2032149,/,2032829,/	t,t,t,t,t,t,t,t,t,t,t,t,t,t,t,t,t,t,t,t,t,t	"<div class = ""centerbox""><p class = ""block-text"">Your delay is 3 trials.</p><p class = block-text>Please wait for the scanner to start the block</p></div>"	77	15000.0	n/a	n/a	n/a	n/a	n/a	n/a	n/a	n/a	n/a	n/a	n/a	n/a	n/a	n/a	n/a	n/a	n/a	n/a	n/a	practice-no-stop-feedback
232721	500	n/a	-1	-1	500	0.0	fixation	poldrack-single-stim	680	2033780	0.0-27.0-0.0	beast_fmri_test	278	2033505,/	t	<div class = centerbox2><div class = fixation>+</div></div>	none	500.0	test	n/a	n/a	n/a	n/a	n/a	n/a	n/a	n/a	n/a	n/a	n/a	n/a	n/a	n/a	n/a	n/a	n/a	n/a	fixation
232718.9785088941	2750	n/a	915	89	2750	5.02149110601	stim	stop-signal	681	2036533	0.0-27.0-1.0	beast_fmri_test	278	2034187,/,2034867,/,2035547,/,2036227,/	t,t,t,t	<img class = center src='/static/experiments/beast_fmri_test/images/P.png'></img>	71,89	2750.0	test	<img class = center src='/static/experiments/beast_fmri_test/images/redP.png'></img>	go	-1.0	3.0	0.0	go	temp-non-target	P	71,Index Finger	89,Middle Finger	250.0	200.0	2500.0	2550.0	0.0	n/a	n/a	n/a	go_stim
235468.9785088941	5.0214911060089245	n/a	915	89	2750	5.02149110601	stim	stop-signal	681	2036533	0.0-27.0-1.0	beast_fmri_test	278	2034187,/,2034867,/,2035547,/,2036227,/	t,t,t,t	<img class = center src='/static/experiments/beast_fmri_test/images/P.png'></img>	71,89	2750.0	test	<img class = center src='/static/experiments/beast_fmri_test/images/redP.png'></img>	go	-1.0	3.0	0.0	go	temp-non-target	P	71,Index Finger	89,Middle Finger	250.0	200.0	2500.0	2550.0	0.0	n/a	n/a	n/a	ITI
236047	500	n/a	-1	-1	500	0.0	fixation	poldrack-single-stim	682	2037106	0.0-27.1-0.1	beast_fmri_test	278	2036908,/	t	<div class = centerbox2><div class = fixation>+</div></div>	none	500.0	test	n/a	n/a	n/a	n/a	n/a	n/a	n/a	n/a	n/a	n/a	n/a	n/a	n/a	n/a	n/a	n/a	n/a	n/a	fixation
233861.82640602556	2750	n/a	651	89	2750	2188.17359397	stim	stop-signal	683	2039859	0.0-27.1-1.1	beast_fmri_test	278	2037586,/,2038267,/,2038947,/,2039627,/,2040306,/,2040987,/,2041667,/	t,t,t,t,t,t,t	<img class = center src='/static/experiments/beast_fmri_test/images/V.png'></img>	71,89	2750.0	test	<img class = center src='/static/experiments/beast_fmri_test/images/redV.png'></img>	go	-1.0	3.0	1.0	go	temp-non-target	V	71,Index Finger	89,Middle Finger	250.0	200.0	2500.0	2550.0	0.0	n/a	n/a	n/a	go_stim
236611.82640602556	2188.1735939744726	n/a	651	89	2750	2188.17359397	stim	stop-signal	683	2039859	0.0-27.1-1.1	beast_fmri_test	278	2037586,/,2038267,/,2038947,/,2039627,/,2040306,/,2040987,/,2041667,/	t,t,t,t,t,t,t	<img class = center src='/static/experiments/beast_fmri_test/images/V.png'></img>	71,89	2750.0	test	<img class = center src='/static/experiments/beast_fmri_test/images/redV.png'></img>	go	-1.0	3.0	1.0	go	temp-non-target	V	71,Index Finger	89,Middle Finger	250.0	200.0	2500.0	2550.0	0.0	n/a	n/a	n/a	ITI
241552	500	n/a	-1	-1	500	0.0	fixation	poldrack-single-stim	684	2042611	0.0-27.2-0.2	beast_fmri_test	278	2042346,/	t	<div class = centerbox2><div class = fixation>+</div></div>	none	500.0	test	n/a	n/a	n/a	n/a	n/a	n/a	n/a	n/a	n/a	n/a	n/a	n/a	n/a	n/a	n/a	n/a	n/a	n/a	fixation
238118.64986865176	2750	n/a	495	89	2750	3432.35013135	stim	stop-signal	685	2045360	0.0-27.2-1.2	beast_fmri_test	278	2043022,/,2043701,/,2044382,/,2045062,/,2045742,/,2046421,/,2047102,/,2047782,/,2048461,/	t,t,t,t,t,t,t,t,t	<img class = center src='/static/experiments/beast_fmri_test/images/T.png'></img>	71,89	2750.0	test	<img class = center src='/static/experiments/beast_fmri_test/images/redT.png'></img>	go	-1.0	3.0	2.0	go	temp-non-target	T	71,Index Finger	89,Middle Finger	250.0	200.0	2500.0	2550.0	0.0	n/a	n/a	n/a	go_stim
240868.64986865176	3432.3501313483321	n/a	495	89	2750	3432.35013135	stim	stop-signal	685	2045360	0.0-27.2-1.2	beast_fmri_test	278	2043022,/,2043701,/,2044382,/,2045062,/,2045742,/,2046421,/,2047102,/,2047782,/,2048461,/	t,t,t,t,t,t,t,t,t	<img class = center src='/static/experiments/beast_fmri_test/images/T.png'></img>	71,89	2750.0	test	<img class = center src='/static/experiments/beast_fmri_test/images/redT.png'></img>	go	-1.0	3.0	2.0	go	temp-non-target	T	71,Index Finger	89,Middle Finger	250.0	200.0	2500.0	2550.0	0.0	n/a	n/a	n/a	ITI
248305	500	n/a	-1	-1	500	0.0	fixation	poldrack-single-stim	686	2049364	0.0-27.3-0.3	beast_fmri_test	278	2049142,/	t	<div class = centerbox2><div class = fixation>+</div></div>	none	500.0	test	n/a	n/a	n/a	n/a	n/a	n/a	n/a	n/a	n/a	n/a	n/a	n/a	n/a	n/a	n/a	n/a	n/a	n/a	fixation
246903.65333331516	2750	n/a	586	89	2750	1404.34666668	stim	stop-signal	687	2052117	0.0-27.3-1.3	beast_fmri_test	278	2049821,/,2050501,/,2051182,/,2051862,/,2052540,/,2053216,/	t,t,t,t,t,t	<img class = center src='/static/experiments/beast_fmri_test/images/T.png'></img>	71,89	2750.0	test	<img class = center src='/static/experiments/beast_fmri_test/images/redT.png'></img>	go	2550.0	3.0	3.0	go	non-target	T	71,Index Finger	89,Middle Finger	250.0	200.0	2500.0	2550.0	1.0	n/a	200.0	1.0	go_stim
249653.65333331516	1404.3466666849301	n/a	586	89	2750	1404.34666668	stim	stop-signal	687	2052117	0.0-27.3-1.3	beast_fmri_test	278	2049821,/,2050501,/,2051182,/,2051862,/,2052540,/,2053216,/	t,t,t,t,t,t	<img class = center src='/static/experiments/beast_fmri_test/images/T.png'></img>	71,89	2750.0	test	<img class = center src='/static/experiments/beast_fmri_test/images/redT.png'></img>	go	2550.0	3.0	3.0	go	non-target	T	71,Index Finger	89,Middle Finger	250.0	200.0	2500.0	2550.0	1.0	n/a	200.0	1.0	ITI
253026	500	n/a	-1	-1	500	0.0	fixation	poldrack-single-stim	688	2054085	0.0-27.4-0.4	beast_fmri_test	278	2053897,/	t	<div class = centerbox2><div class = fixation>+</div></div>	none	500.0	test	n/a	n/a	n/a	n/a	n/a	n/a	n/a	n/a	n/a	n/a	n/a	n/a	n/a	n/a	n/a	n/a	n/a	n/a	fixation
251824.74308079225	2750	n/a	579	89	2750	1203.25691921	stim	stop-signal	689	2056837	0.0-27.4-1.4	beast_fmri_test	278	2054576,/,2055257,/,2055936,/,2056617,/,2057297,/,2057977,/	t,t,t,t,t,t	<img class = center src='/static/experiments/beast_fmri_test/images/P.png'></img>	71,89	2750.0	test	<img class = center src='/static/experiments/beast_fmri_test/images/redP.png'></img>	go	2550.0	3.0	4.0	go	non-target	P	71,Index Finger	89,Middle Finger	250.0	200.0	2500.0	2550.0	1.0	n/a	200.0	1.0	go_stim
254574.74308079225	1203.2569192077726	n/a	579	89	2750	1203.25691921	stim	stop-signal	689	2056837	0.0-27.4-1.4	beast_fmri_test	278	2054576,/,2055257,/,2055936,/,2056617,/,2057297,/,2057977,/	t,t,t,t,t,t	<img class = center src='/static/experiments/beast_fmri_test/images/P.png'></img>	71,89	2750.0	test	<img class = center src='/static/experiments/beast_fmri_test/images/redP.png'></img>	go	2550.0	3.0	4.0	go	non-target	P	71,Index Finger	89,Middle Finger	250.0	200.0	2500.0	2550.0	1.0	n/a	200.0	1.0	ITI
257549	500	n/a	-1	-1	500	0.0	fixation	poldrack-single-stim	690	2058608	0.0-27.5-0.5	beast_fmri_test	278	n/a	n/a	<div class = centerbox2><div class = fixation>+</div></div>	none	500.0	test	n/a	n/a	n/a	n/a	n/a	n/a	n/a	n/a	n/a	n/a	n/a	n/a	n/a	n/a	n/a	n/a	n/a	n/a	fixation
256534.48302077432	200.0	n/a	-1	-1	2750	1016.51697923	stim	stop-signal	691	2061360	0.0-27.5-1.5	beast_fmri_test	278	2058656,/,2059338,/,2060017,/,2060697,/,2061376,/,2062057,/	t,t,t,t,t,t	<img class = center src='/static/experiments/beast_fmri_test/images/P.png'></img>	71,89	2750.0	test	<img class = center src='/static/experiments/beast_fmri_test/images/redP.png'></img>	stop	2550.0	3.0	5.0	stop	non-target	P	71,Index Finger	89,Middle Finger	250.0	200.0	2500.0	2550.0	0.0	1.0	200.0	n/a	go_stim
259084.48302077432	2550.0	n/a	-1	-1	2750	1016.51697923	stim	stop-signal	691	2061360	0.0-27.5-1.5	beast_fmri_test	278	2058656,/,2059338,/,2060017,/,2060697,/,2061376,/,2062057,/	t,t,t,t,t,t	<img class = center src='/static/experiments/beast_fmri_test/images/P.png'></img>	71,89	2750.0	test	<img class = center src='/static/experiments/beast_fmri_test/images/redP.png'></img>	stop	2550.0	3.0	5.0	stop	non-target	P	71,Index Finger	89,Middle Finger	250.0	200.0	2500.0	2550.0	0.0	1.0	200.0	n/a	stop_stim
259284.48302077432	1016.5169792257836	n/a	-1	-1	2750	1016.51697923	stim	stop-signal	691	2061360	0.0-27.5-1.5	beast_fmri_test	278	2058656,/,2059338,/,2060017,/,2060697,/,2061376,/,2062057,/	t,t,t,t,t,t	<img class = center src='/static/experiments/beast_fmri_test/images/P.png'></img>	71,89	2750.0	test	<img class = center src='/static/experiments/beast_fmri_test/images/redP.png'></img>	stop	2550.0	3.0	5.0	stop	non-target	P	71,Index Finger	89,Middle Finger	250.0	200.0	2500.0	2550.0	0.0	1.0	200.0	n/a	ITI
261883	500	n/a	-1	-1	500	0.0	fixation	poldrack-single-stim	692	2062942	0.0-27.6-0.6	beast_fmri_test	278	2062733,/	t	<div class = centerbox2><div class = fixation>+</div></div>	none	500.0	test	n/a	n/a	n/a	n/a	n/a	n/a	n/a	n/a	n/a	n/a	n/a	n/a	n/a	n/a	n/a	n/a	n/a	n/a	fixation
260782.00915318565	2750	n/a	583	71	2750	1102.99084681	stim	stop-signal	693	2065694	0.0-27.6-1.6	beast_fmri_test	278	2063413,/,2064093,/,2064773,/,2065453,/,2066133,/	t,t,t,t,t	<img class = center src='/static/experiments/beast_fmri_test/images/T.png'></img>	71,89	2750.0	test	<img class = center src='/static/experiments/beast_fmri_test/images/redT.png'></img>	go	2500.0	3.0	6.0	go	target	T	71,Index Finger	89,Middle Finger	250.0	250.0	2500.0	2550.0	1.0	n/a	250.0	1.0	go_stim
263532.00915318565	1102.9908468142764	n/a	583	71	2750	1102.99084681	stim	stop-signal	693	2065694	0.0-27.6-1.6	beast_fmri_test	278	2063413,/,2064093,/,2064773,/,2065453,/,2066133,/	t,t,t,t,t	<img class = center src='/static/experiments/beast_fmri_test/images/T.png'></img>	71,89	2750.0	test	<img class = center src='/static/experiments/beast_fmri_test/images/redT.png'></img>	go	2500.0	3.0	6.0	go	target	T	71,Index Finger	89,Middle Finger	250.0	250.0	2500.0	2550.0	1.0	n/a	250.0	1.0	ITI
266310	500	n/a	-1	-1	500	0.0	fixation	poldrack-single-stim	694	2067369	0.0-27.7-0.7	beast_fmri_test	278	2066866,/	t	<div class = centerbox2><div class = fixation>+</div></div>	none	500.0	test	n/a	n/a	n/a	n/a	n/a	n/a	n/a	n/a	n/a	n/a	n/a	n/a	n/a	n/a	n/a	n/a	n/a	n/a	fixation
265795.68613184942	2750	n/a	783	71	2750	516.31386815	stim	stop-signal	695	2070121	0.0-27.7-1.7	beast_fmri_test	278	2067493,/,2068173,/,2068853,/,2069533,/,2070212,/	t,t,t,t,t	<img class = center src='/static/experiments/beast_fmri_test/images/P.png'></img>	71,89	2750.0	test	<img class = center src='/static/experiments/beast_fmri_test/images/redP.png'></img>	go	2500.0	3.0	7.0	go	target	P	71,Index Finger	89,Middle Finger	250.0	250.0	2500.0	2550.0	1.0	n/a	250.0	1.0	go_stim
268545.68613184942	516.31386815049279	n/a	783	71	2750	516.31386815	stim	stop-signal	695	2070121	0.0-27.7-1.7	beast_fmri_test	278	2067493,/,2068173,/,2068853,/,2069533,/,2070212,/	t,t,t,t,t	<img class = center src='/static/experiments/beast_fmri_test/images/P.png'></img>	71,89	2750.0	test	<img class = center src='/static/experiments/beast_fmri_test/images/redP.png'></img>	go	2500.0	3.0	7.0	go	target	P	71,Index Finger	89,Middle Finger	250.0	250.0	2500.0	2550.0	1.0	n/a	250.0	1.0	ITI
270146	500	n/a	-1	-1	500	0.0	fixation	poldrack-single-stim	696	2071205	0.0-27.8-0.8	beast_fmri_test	278	2070893,/	t	<div class = centerbox2><div class = fixation>+</div></div>	none	500.0	test	n/a	n/a	n/a	n/a	n/a	n/a	n/a	n/a	n/a	n/a	n/a	n/a	n/a	n/a	n/a	n/a	n/a	n/a	fixation
269891.78323539882	2750	n/a	820	71	2750	253.216764601	stim	stop-signal	697	2073954	0.0-27.8-1.8	beast_fmri_test	278	2071573,/,2072251,/,2072928,/,2073607,/	t,t,t,t	<img class = center src='/static/experiments/beast_fmri_test/images/P.png'></img>	71,89	2750.0	test	<img class = center src='/static/experiments/beast_fmri_test/images/redP.png'></img>	go	2500.0	3.0	8.0	go	target	P	71,Index Finger	89,Middle Finger	250.0	250.0	2500.0	2550.0	1.0	n/a	250.0	1.0	go_stim
272641.78323539882	253.21676460121463	n/a	820	71	2750	253.216764601	stim	stop-signal	697	2073954	0.0-27.8-1.8	beast_fmri_test	278	2071573,/,2072251,/,2072928,/,2073607,/	t,t,t,t	<img class = center src='/static/experiments/beast_fmri_test/images/P.png'></img>	71,89	2750.0	test	<img class = center src='/static/experiments/beast_fmri_test/images/redP.png'></img>	go	2500.0	3.0	8.0	go	target	P	71,Index Finger	89,Middle Finger	250.0	250.0	2500.0	2550.0	1.0	n/a	250.0	1.0	ITI
273718	500	n/a	-1	-1	500	0.0	fixation	poldrack-single-stim	698	2074777	0.0-27.9-0.9	beast_fmri_test	278	2074289,/	t	<div class = centerbox2><div class = fixation>+</div></div>	none	500.0	test	n/a	n/a	n/a	n/a	n/a	n/a	n/a	n/a	n/a	n/a	n/a	n/a	n/a	n/a	n/a	n/a	n/a	n/a	fixation
272333.52372658043	2750	n/a	725	89	2750	1387.47627342	stim	stop-signal	699	2077530	0.0-27.9-1.9	beast_fmri_test	278	2074968,/,2075648,/,2076328,/,2077008,/,2077687,/,2078367,/	t,t,t,t,t,t	<img class = center src='/static/experiments/beast_fmri_test/images/V.png'></img>	71,89	2750.0	test	<img class = center src='/static/experiments/beast_fmri_test/images/redV.png'></img>	go	2500.0	3.0	9.0	go	non-target	V	71,Index Finger	89,Middle Finger	250.0	250.0	2500.0	2500.0	1.0	n/a	250.0	1.0	go_stim
275083.52372658043	1387.4762734196554	n/a	725	89	2750	1387.47627342	stim	stop-signal	699	2077530	0.0-27.9-1.9	beast_fmri_test	278	2074968,/,2075648,/,2076328,/,2077008,/,2077687,/,2078367,/	t,t,t,t,t,t	<img class = center src='/static/experiments/beast_fmri_test/images/V.png'></img>	71,89	2750.0	test	<img class = center src='/static/experiments/beast_fmri_test/images/redV.png'></img>	go	2500.0	3.0	9.0	go	non-target	V	71,Index Finger	89,Middle Finger	250.0	250.0	2500.0	2500.0	1.0	n/a	250.0	1.0	ITI
278433	500	n/a	-1	-1	500	0.0	fixation	poldrack-single-stim	700	2079492	0.0-27.10-0.10	beast_fmri_test	278	2079047,/	t	<div class = centerbox2><div class = fixation>+</div></div>	none	500.0	test	n/a	n/a	n/a	n/a	n/a	n/a	n/a	n/a	n/a	n/a	n/a	n/a	n/a	n/a	n/a	n/a	n/a	n/a	fixation
278137.07592190732	2750	n/a	688	89	2750	298.924078093	stim	stop-signal	701	2082245	0.0-27.10-1.10	beast_fmri_test	278	2079728,/,2080408,/,2081087,/,2081768,/,2082446,/	t,t,t,t,t	<img class = center src='/static/experiments/beast_fmri_test/images/D.png'></img>	71,89	2750.0	test	<img class = center src='/static/experiments/beast_fmri_test/images/redD.png'></img>	go	2500.0	3.0	10.0	go	non-target	D	71,Index Finger	89,Middle Finger	250.0	250.0	2500.0	2500.0	1.0	n/a	250.0	1.0	go_stim
280887.07592190732	298.92407809272879	n/a	688	89	2750	298.924078093	stim	stop-signal	701	2082245	0.0-27.10-1.10	beast_fmri_test	278	2079728,/,2080408,/,2081087,/,2081768,/,2082446,/	t,t,t,t,t	<img class = center src='/static/experiments/beast_fmri_test/images/D.png'></img>	71,89	2750.0	test	<img class = center src='/static/experiments/beast_fmri_test/images/redD.png'></img>	go	2500.0	3.0	10.0	go	non-target	D	71,Index Finger	89,Middle Finger	250.0	250.0	2500.0	2500.0	1.0	n/a	250.0	1.0	ITI
282052	500	n/a	-1	-1	500	0.0	fixation	poldrack-single-stim	702	2083111	0.0-27.11-0.11	beast_fmri_test	278	n/a	n/a	<div class = centerbox2><div class = fixation>+</div></div>	none	500.0	test	n/a	n/a	n/a	n/a	n/a	n/a	n/a	n/a	n/a	n/a	n/a	n/a	n/a	n/a	n/a	n/a	n/a	n/a	fixation
280608.73050776566	250.0	n/a	-1	-1	2750	1445.26949223	stim	stop-signal	703	2085863	0.0-27.11-1.11	beast_fmri_test	278	2083123,/,2083803,/,2084484,/,2085164,/,2085843,/,2086522,/,2087203,/	t,t,t,t,t,t,t	<img class = center src='/static/experiments/beast_fmri_test/images/D.png'></img>	71,89	2750.0	test	<img class = center src='/static/experiments/beast_fmri_test/images/redD.png'></img>	stop	2500.0	3.0	11.0	stop	non-target	D	71,Index Finger	89,Middle Finger	250.0	250.0	2500.0	2500.0	0.0	1.0	250.0	n/a	go_stim
283108.73050776566	2500.0	n/a	-1	-1	2750	1445.26949223	stim	stop-signal	703	2085863	0.0-27.11-1.11	beast_fmri_test	278	2083123,/,2083803,/,2084484,/,2085164,/,2085843,/,2086522,/,2087203,/	t,t,t,t,t,t,t	<img class = center src='/static/experiments/beast_fmri_test/images/D.png'></img>	71,89	2750.0	test	<img class = center src='/static/experiments/beast_fmri_test/images/redD.png'></img>	stop	2500.0	3.0	11.0	stop	non-target	D	71,Index Finger	89,Middle Finger	250.0	250.0	2500.0	2500.0	0.0	1.0	250.0	n/a	stop_stim
283358.73050776566	1445.2694922342398	n/a	-1	-1	2750	1445.26949223	stim	stop-signal	703	2085863	0.0-27.11-1.11	beast_fmri_test	278	2083123,/,2083803,/,2084484,/,2085164,/,2085843,/,2086522,/,2087203,/	t,t,t,t,t,t,t	<img class = center src='/static/experiments/beast_fmri_test/images/D.png'></img>	71,89	2750.0	test	<img class = center src='/static/experiments/beast_fmri_test/images/redD.png'></img>	stop	2500.0	3.0	11.0	stop	non-target	D	71,Index Finger	89,Middle Finger	250.0	250.0	2500.0	2500.0	0.0	1.0	250.0	n/a	ITI
286820	500	n/a	-1	-1	500	0.0	fixation	poldrack-single-stim	704	2087879	0.0-27.12-0.12	beast_fmri_test	278	n/a	n/a	<div class = centerbox2><div class = fixation>+</div></div>	none	500.0	test	n/a	n/a	n/a	n/a	n/a	n/a	n/a	n/a	n/a	n/a	n/a	n/a	n/a	n/a	n/a	n/a	n/a	n/a	fixation
284737.91494076187	2750	n/a	619	89	2750	2085.08505924	stim	stop-signal	705	2090632	0.0-27.12-1.12	beast_fmri_test	278	2087883,/,2088563,/,2089244,/,2089923,/,2090603,/,2091284,/,2091963,/,2092641,/	t,t,t,t,t,t,t,t	<img class = center src='/static/experiments/beast_fmri_test/images/D.png'></img>	71,89	2750.0	test	<img class = center src='/static/experiments/beast_fmri_test/images/redD.png'></img>	go	2450.0	3.0	12.0	go	non-target	D	71,Index Finger	89,Middle Finger	250.0	300.0	2500.0	2450.0	1.0	n/a	300.0	1.0	go_stim
287487.91494076187	2085.0850592381516	n/a	619	89	2750	2085.08505924	stim	stop-signal	705	2090632	0.0-27.12-1.12	beast_fmri_test	278	2087883,/,2088563,/,2089244,/,2089923,/,2090603,/,2091284,/,2091963,/,2092641,/	t,t,t,t,t,t,t,t	<img class = center src='/static/experiments/beast_fmri_test/images/D.png'></img>	71,89	2750.0	test	<img class = center src='/static/experiments/beast_fmri_test/images/redD.png'></img>	go	2450.0	3.0	12.0	go	non-target	D	71,Index Finger	89,Middle Finger	250.0	300.0	2500.0	2450.0	1.0	n/a	300.0	1.0	ITI
292218	500	n/a	-1	-1	500	0.0	fixation	poldrack-single-stim	706	2093277	0.0-27.13-0.13	beast_fmri_test	278	n/a	n/a	<div class = centerbox2><div class = fixation>+</div></div>	none	500.0	test	n/a	n/a	n/a	n/a	n/a	n/a	n/a	n/a	n/a	n/a	n/a	n/a	n/a	n/a	n/a	n/a	n/a	n/a	fixation
292055.71434408682	2750	n/a	436	89	2750	166.285655913	stim	stop-signal	707	2096031	0.0-27.13-1.13	beast_fmri_test	278	2093318,/,2093999,/,2094679,/,2095359,/,2096039,/	t,t,t,t,t	<img class = center src='/static/experiments/beast_fmri_test/images/P.png'></img>	71,89	2750.0	test	<img class = center src='/static/experiments/beast_fmri_test/images/redP.png'></img>	go	2450.0	3.0	13.0	go	non-target	P	71,Index Finger	89,Middle Finger	250.0	300.0	2500.0	2450.0	1.0	n/a	300.0	1.0	go_stim
294805.71434408682	166.2856559132093	n/a	436	89	2750	166.285655913	stim	stop-signal	707	2096031	0.0-27.13-1.13	beast_fmri_test	278	2093318,/,2093999,/,2094679,/,2095359,/,2096039,/	t,t,t,t,t	<img class = center src='/static/experiments/beast_fmri_test/images/P.png'></img>	71,89	2750.0	test	<img class = center src='/static/experiments/beast_fmri_test/images/redP.png'></img>	go	2450.0	3.0	13.0	go	non-target	P	71,Index Finger	89,Middle Finger	250.0	300.0	2500.0	2450.0	1.0	n/a	300.0	1.0	ITI
295703	500	n/a	-1	-1	500	0.0	fixation	poldrack-single-stim	708	2096762	0.0-27.14-0.14	beast_fmri_test	278	2096720,/	t	<div class = centerbox2><div class = fixation>+</div></div>	none	500.0	test	n/a	n/a	n/a	n/a	n/a	n/a	n/a	n/a	n/a	n/a	n/a	n/a	n/a	n/a	n/a	n/a	n/a	n/a	fixation
295392.52191638714	300.0	n/a	-1	-1	2750	313.478083613	stim	stop-signal	709	2099515	0.0-27.14-1.14	beast_fmri_test	278	2097398,/,2098078,/,2098759,/,2099439,/	t,t,t,t	<img class = center src='/static/experiments/beast_fmri_test/images/B.png'></img>	71,89	2750.0	test	<img class = center src='/static/experiments/beast_fmri_test/images/redB.png'></img>	stop	2450.0	3.0	14.0	stop	non-target	B	71,Index Finger	89,Middle Finger	250.0	300.0	2500.0	2450.0	0.0	1.0	300.0	n/a	go_stim
297842.52191638714	2450.0	n/a	-1	-1	2750	313.478083613	stim	stop-signal	709	2099515	0.0-27.14-1.14	beast_fmri_test	278	2097398,/,2098078,/,2098759,/,2099439,/	t,t,t,t	<img class = center src='/static/experiments/beast_fmri_test/images/B.png'></img>	71,89	2750.0	test	<img class = center src='/static/experiments/beast_fmri_test/images/redB.png'></img>	stop	2450.0	3.0	14.0	stop	non-target	B	71,Index Finger	89,Middle Finger	250.0	300.0	2500.0	2450.0	0.0	1.0	300.0	n/a	stop_stim
298142.52191638714	313.47808361272973	n/a	-1	-1	2750	313.478083613	stim	stop-signal	709	2099515	0.0-27.14-1.14	beast_fmri_test	278	2097398,/,2098078,/,2098759,/,2099439,/	t,t,t,t	<img class = center src='/static/experiments/beast_fmri_test/images/B.png'></img>	71,89	2750.0	test	<img class = center src='/static/experiments/beast_fmri_test/images/redB.png'></img>	stop	2450.0	3.0	14.0	stop	non-target	B	71,Index Finger	89,Middle Finger	250.0	300.0	2500.0	2450.0	0.0	1.0	300.0	n/a	ITI
299340	500	n/a	-1	-1	500	0.0	fixation	poldrack-single-stim	710	2100399	0.0-27.15-0.15	beast_fmri_test	278	2100119,/	t	<div class = centerbox2><div class = fixation>+</div></div>	none	500.0	test	n/a	n/a	n/a	n/a	n/a	n/a	n/a	n/a	n/a	n/a	n/a	n/a	n/a	n/a	n/a	n/a	n/a	n/a	fixation
296766.84147664811	2750	n/a	691	71	2750	2571.15852335	stim	stop-signal	711	2103147	0.0-27.15-1.15	beast_fmri_test	278	2100798,/,2101479,/,2102158,/,2102835,/,2103514,/,2104194,/,2104874,/,2105554,/	t,t,t,t,t,t,t,t	<img class = center src='/static/experiments/beast_fmri_test/images/D.png'></img>	71,89	2750.0	test	<img class = center src='/static/experiments/beast_fmri_test/images/redD.png'></img>	go	2500.0	3.0	15.0	go	target	D	71,Index Finger	89,Middle Finger	250.0	350.0	2500.0	2450.0	1.0	n/a	250.0	1.0	go_stim
299516.84147664811	2571.1585233519045	n/a	691	71	2750	2571.15852335	stim	stop-signal	711	2103147	0.0-27.15-1.15	beast_fmri_test	278	2100798,/,2101479,/,2102158,/,2102835,/,2103514,/,2104194,/,2104874,/,2105554,/	t,t,t,t,t,t,t,t	<img class = center src='/static/experiments/beast_fmri_test/images/D.png'></img>	71,89	2750.0	test	<img class = center src='/static/experiments/beast_fmri_test/images/redD.png'></img>	go	2500.0	3.0	15.0	go	target	D	71,Index Finger	89,Middle Finger	250.0	350.0	2500.0	2450.0	1.0	n/a	250.0	1.0	ITI
305225	500	n/a	-1	-1	500	0.0	fixation	poldrack-single-stim	712	2106284	0.0-27.16-0.16	beast_fmri_test	278	2106234,/	t	<div class = centerbox2><div class = fixation>+</div></div>	none	500.0	test	n/a	n/a	n/a	n/a	n/a	n/a	n/a	n/a	n/a	n/a	n/a	n/a	n/a	n/a	n/a	n/a	n/a	n/a	fixation
304072.17103028204	350.0	n/a	-1	-1	2750	1155.82896972	stim	stop-signal	713	2109037	0.0-27.16-1.16	beast_fmri_test	278	2106914,/,2107595,/,2108274,/,2108955,/,2109634,/	t,t,t,t,t	<img class = center src='/static/experiments/beast_fmri_test/images/T.png'></img>	71,89	2750.0	test	<img class = center src='/static/experiments/beast_fmri_test/images/redT.png'></img>	stop	2400.0	3.0	16.0	stop	non-target	T	71,Index Finger	89,Middle Finger	250.0	350.0	2500.0	2400.0	0.0	1.0	350.0	n/a	go_stim
306472.17103028204	2400.0	n/a	-1	-1	2750	1155.82896972	stim	stop-signal	713	2109037	0.0-27.16-1.16	beast_fmri_test	278	2106914,/,2107595,/,2108274,/,2108955,/,2109634,/	t,t,t,t,t	<img class = center src='/static/experiments/beast_fmri_test/images/T.png'></img>	71,89	2750.0	test	<img class = center src='/static/experiments/beast_fmri_test/images/redT.png'></img>	stop	2400.0	3.0	16.0	stop	non-target	T	71,Index Finger	89,Middle Finger	250.0	350.0	2500.0	2400.0	0.0	1.0	350.0	n/a	stop_stim
306822.17103028204	1155.8289697180396	n/a	-1	-1	2750	1155.82896972	stim	stop-signal	713	2109037	0.0-27.16-1.16	beast_fmri_test	278	2106914,/,2107595,/,2108274,/,2108955,/,2109634,/	t,t,t,t,t	<img class = center src='/static/experiments/beast_fmri_test/images/T.png'></img>	71,89	2750.0	test	<img class = center src='/static/experiments/beast_fmri_test/images/redT.png'></img>	stop	2400.0	3.0	16.0	stop	non-target	T	71,Index Finger	89,Middle Finger	250.0	350.0	2500.0	2400.0	0.0	1.0	350.0	n/a	ITI
309705	500	n/a	-1	-1	500	0.0	fixation	poldrack-single-stim	714	2110764	0.0-27.17-0.17	beast_fmri_test	278	2110314,/	t	<div class = centerbox2><div class = fixation>+</div></div>	none	500.0	test	n/a	n/a	n/a	n/a	n/a	n/a	n/a	n/a	n/a	n/a	n/a	n/a	n/a	n/a	n/a	n/a	n/a	n/a	fixation
309282.81447421061	2750	n/a	1246	89	2750	421.185525789	stim	stop-signal	715	2113513	0.0-27.17-1.17	beast_fmri_test	278	2110994,/,2111674,/,2112352,/,2113029,/,2113709,/	t,t,t,t,t	<img class = center src='/static/experiments/beast_fmri_test/images/P.png'></img>	71,89	2750.0	test	<img class = center src='/static/experiments/beast_fmri_test/images/redP.png'></img>	go	2350.0	3.0	17.0	go	non-target	P	71,Index Finger	89,Middle Finger	250.0	400.0	2500.0	2350.0	1.0	n/a	400.0	1.0	go_stim
312032.81447421061	421.18552578937056	n/a	1246	89	2750	421.185525789	stim	stop-signal	715	2113513	0.0-27.17-1.17	beast_fmri_test	278	2110994,/,2111674,/,2112352,/,2113029,/,2113709,/	t,t,t,t,t	<img class = center src='/static/experiments/beast_fmri_test/images/P.png'></img>	71,89	2750.0	test	<img class = center src='/static/experiments/beast_fmri_test/images/redP.png'></img>	go	2350.0	3.0	17.0	go	non-target	P	71,Index Finger	89,Middle Finger	250.0	400.0	2500.0	2350.0	1.0	n/a	400.0	1.0	ITI
313443	500	n/a	-1	-1	500	0.0	fixation	poldrack-single-stim	716	2114502	0.0-27.18-0.18	beast_fmri_test	278	2114388,/	t	<div class = centerbox2><div class = fixation>+</div></div>	none	500.0	test	n/a	n/a	n/a	n/a	n/a	n/a	n/a	n/a	n/a	n/a	n/a	n/a	n/a	n/a	n/a	n/a	n/a	n/a	fixation
312883.91496893298	2750	n/a	992	89	2750	561.085031067	stim	stop-signal	717	2117254	0.0-27.18-1.18	beast_fmri_test	278	2115069,/,2115748,/,2116429,/,2117109,/,2117790,/	t,t,t,t,t	<img class = center src='/static/experiments/beast_fmri_test/images/V.png'></img>	71,89	2750.0	test	<img class = center src='/static/experiments/beast_fmri_test/images/redV.png'></img>	go	2350.0	3.0	18.0	go	non-target	V	71,Index Finger	89,Middle Finger	250.0	400.0	2500.0	2350.0	1.0	n/a	400.0	1.0	go_stim
315633.91496893298	561.0850310671359	n/a	992	89	2750	561.085031067	stim	stop-signal	717	2117254	0.0-27.18-1.18	beast_fmri_test	278	2115069,/,2115748,/,2116429,/,2117109,/,2117790,/	t,t,t,t,t	<img class = center src='/static/experiments/beast_fmri_test/images/V.png'></img>	71,89	2750.0	test	<img class = center src='/static/experiments/beast_fmri_test/images/redV.png'></img>	go	2350.0	3.0	18.0	go	non-target	V	71,Index Finger	89,Middle Finger	250.0	400.0	2500.0	2350.0	1.0	n/a	400.0	1.0	ITI
317328	500	n/a	-1	-1	500	0.0	fixation	poldrack-single-stim	718	2118387	0.0-27.19-0.19	beast_fmri_test	278	n/a	n/a	<div class = centerbox2><div class = fixation>+</div></div>	none	500.0	test	n/a	n/a	n/a	n/a	n/a	n/a	n/a	n/a	n/a	n/a	n/a	n/a	n/a	n/a	n/a	n/a	n/a	n/a	fixation
314672.10213299654	400.0	n/a	553	89	2750	2658.897867	stim	stop-signal	719	2121140	0.0-27.19-1.19	beast_fmri_test	278	2118469,/,2119148,/,2119829,/,2120509,/,2121188,/,2121870,/,2122549,/,2123224,/	t,t,t,t,t,t,t,t	<img class = center src='/static/experiments/beast_fmri_test/images/P.png'></img>	71,89	2750.0	test	<img class = center src='/static/experiments/beast_fmri_test/images/redP.png'></img>	stop	2350.0	3.0	19.0	stop	non-target	P	71,Index Finger	89,Middle Finger	250.0	400.0	2500.0	2350.0	0.0	0.0	400.0	n/a	go_stim
317022.10213299654	2350.0	n/a	553	89	2750	2658.897867	stim	stop-signal	719	2121140	0.0-27.19-1.19	beast_fmri_test	278	2118469,/,2119148,/,2119829,/,2120509,/,2121188,/,2121870,/,2122549,/,2123224,/	t,t,t,t,t,t,t,t	<img class = center src='/static/experiments/beast_fmri_test/images/P.png'></img>	71,89	2750.0	test	<img class = center src='/static/experiments/beast_fmri_test/images/redP.png'></img>	stop	2350.0	3.0	19.0	stop	non-target	P	71,Index Finger	89,Middle Finger	250.0	400.0	2500.0	2350.0	0.0	0.0	400.0	n/a	stop_stim
317422.10213299654	2658.8978670036577	n/a	553	89	2750	2658.897867	stim	stop-signal	719	2121140	0.0-27.19-1.19	beast_fmri_test	278	2118469,/,2119148,/,2119829,/,2120509,/,2121188,/,2121870,/,2122549,/,2123224,/	t,t,t,t,t,t,t,t	<img class = center src='/static/experiments/beast_fmri_test/images/P.png'></img>	71,89	2750.0	test	<img class = center src='/static/experiments/beast_fmri_test/images/redP.png'></img>	stop	2350.0	3.0	19.0	stop	non-target	P	71,Index Finger	89,Middle Finger	250.0	400.0	2500.0	2350.0	0.0	0.0	400.0	n/a	ITI
323305	500	n/a	-1	-1	500	0.0	fixation	poldrack-single-stim	720	2124364	0.0-27.20-0.20	beast_fmri_test	278	2123904,/	t	<div class = centerbox2><div class = fixation>+</div></div>	none	500.0	test	n/a	n/a	n/a	n/a	n/a	n/a	n/a	n/a	n/a	n/a	n/a	n/a	n/a	n/a	n/a	n/a	n/a	n/a	fixation
323145.49660686916	2750	n/a	503	89	2750	162.503393131	stim	stop-signal	721	2127117	0.0-27.20-1.20	beast_fmri_test	278	2124586,/,2125265,/,2125945,/,2126625,/	t,t,t,t	<img class = center src='/static/experiments/beast_fmri_test/images/T.png'></img>	71,89	2750.0	test	<img class = center src='/static/experiments/beast_fmri_test/images/redT.png'></img>	go	2400.0	3.0	20.0	go	non-target	T	71,Index Finger	89,Middle Finger	250.0	350.0	2500.0	2400.0	1.0	n/a	350.0	1.0	go_stim
325895.49660686916	162.50339313092408	n/a	503	89	2750	162.503393131	stim	stop-signal	721	2127117	0.0-27.20-1.20	beast_fmri_test	278	2124586,/,2125265,/,2125945,/,2126625,/	t,t,t,t	<img class = center src='/static/experiments/beast_fmri_test/images/T.png'></img>	71,89	2750.0	test	<img class = center src='/static/experiments/beast_fmri_test/images/redT.png'></img>	go	2400.0	3.0	20.0	go	non-target	T	71,Index Finger	89,Middle Finger	250.0	350.0	2500.0	2400.0	1.0	n/a	350.0	1.0	ITI
326805	500	n/a	-1	-1	500	0.0	fixation	poldrack-single-stim	722	2127864	0.0-27.21-0.21	beast_fmri_test	278	2127362,/	t	<div class = centerbox2><div class = fixation>+</div></div>	none	500.0	test	n/a	n/a	n/a	n/a	n/a	n/a	n/a	n/a	n/a	n/a	n/a	n/a	n/a	n/a	n/a	n/a	n/a	n/a	fixation
326604.26701118797	250.0	n/a	-1	-1	2750	203.732988812	stim	stop-signal	723	2130617	0.0-27.21-1.21	beast_fmri_test	278	2127985,/,2128665,/,2129344,/,2130025,/,2130705,/	t,t,t,t,t	<img class = center src='/static/experiments/beast_fmri_test/images/V.png'></img>	71,89	2750.0	test	<img class = center src='/static/experiments/beast_fmri_test/images/redV.png'></img>	stop	2500.0	3.0	21.0	stop	target	V	71,Index Finger	89,Middle Finger	250.0	350.0	2500.0	2400.0	0.0	1.0	250.0	n/a	go_stim
329104.26701118797	2500.0	n/a	-1	-1	2750	203.732988812	stim	stop-signal	723	2130617	0.0-27.21-1.21	beast_fmri_test	278	2127985,/,2128665,/,2129344,/,2130025,/,2130705,/	t,t,t,t,t	<img class = center src='/static/experiments/beast_fmri_test/images/V.png'></img>	71,89	2750.0	test	<img class = center src='/static/experiments/beast_fmri_test/images/redV.png'></img>	stop	2500.0	3.0	21.0	stop	target	V	71,Index Finger	89,Middle Finger	250.0	350.0	2500.0	2400.0	0.0	1.0	250.0	n/a	stop_stim
329354.26701118797	203.73298881214907	n/a	-1	-1	2750	203.732988812	stim	stop-signal	723	2130617	0.0-27.21-1.21	beast_fmri_test	278	2127985,/,2128665,/,2129344,/,2130025,/,2130705,/	t,t,t,t,t	<img class = center src='/static/experiments/beast_fmri_test/images/V.png'></img>	71,89	2750.0	test	<img class = center src='/static/experiments/beast_fmri_test/images/redV.png'></img>	stop	2500.0	3.0	21.0	stop	target	V	71,Index Finger	89,Middle Finger	250.0	350.0	2500.0	2400.0	0.0	1.0	250.0	n/a	ITI
