onset	duration	text	rt	key_press	block_duration	timing_post_trial	trial_id	trial_type	trial_index	time_elapsed	internal_node_id	exp_id	subject_id	trigger_times	triggers	stimulus	possible_responses	stim_duration	exp_stage	SS_stimulus	SS_trial_type	SS_duration	load	trial_num	stop_trial_type	adaptive_trial_type	stim	yes_response_key	no_response_key	SSD_target	SSD_non_target	SSTarget	SSNonTarget	go_acc	stop_acc	SS_delay	adaptive_acc	new_trial_type
test	10880.0	n/a	-1	-1	10880	0.0	practice-no-stop-feedback	poldrack-single-stim	394	1229360	0.0-18.0	beast_fmri_test	278	1218484,/,1219163,/,1219842,/,1220522,/,1221203,/,1221883,/,1222563,/,1223239,/,1223918,/,1224599,/,1225279,/,1225959,/,1226637,/,1227319,/,1227998,/,1228678,/,1229358,/	t,t,t,t,t,t,t,t,t,t,t,t,t,t,t,t,t	"<div class = ""centerbox""><p class = ""block-text"">Your delay is 2 trials.</p><p class = block-text>Please wait for the scanner to start the block</p></div>"	77	10880.0	n/a	n/a	n/a	n/a	n/a	n/a	n/a	n/a	n/a	n/a	n/a	n/a	n/a	n/a	n/a	n/a	n/a	n/a	n/a	start_functional_block
11379	500.0	n/a	-1	-1	500	0.0	fixation	poldrack-single-stim	395	1229863	0.0-19.0-0.0	beast_fmri_test	278	n/a	n/a	<div class = centerbox2><div class = fixation>+</div></div>	none	500.0	test	n/a	n/a	n/a	n/a	n/a	n/a	n/a	n/a	n/a	n/a	n/a	n/a	n/a	n/a	n/a	n/a	n/a	n/a	fixation
10235.872667187359	2750.0	n/a	983	89	2750	1146.12733281	stim	stop-signal	396	1232616	0.0-19.0-1.0	beast_fmri_test	278	1230039,/,1230718,/,1231398,/,1232078,/,1232756,/,1233433,/	t,t,t,t,t,t	<img class = center src='/static/experiments/beast_fmri_test/images/B.png'></img>	71,89	2750.0	test	<img class = center src='/static/experiments/beast_fmri_test/images/redB.png'></img>	go	-1.0	2.0	0.0	go	temp-non-target	B	71,Index Finger	89,Middle Finger	500.0	500.0	2250.0	2250.0	0.0	n/a	n/a	n/a	go_stim
12985.872667187359	1146.12733281	n/a	983	89	2750	1146.12733281	stim	stop-signal	396	1232616	0.0-19.0-1.0	beast_fmri_test	278	1230039,/,1230718,/,1231398,/,1232078,/,1232756,/,1233433,/	t,t,t,t,t,t	<img class = center src='/static/experiments/beast_fmri_test/images/B.png'></img>	71,89	2750.0	test	<img class = center src='/static/experiments/beast_fmri_test/images/redB.png'></img>	go	-1.0	2.0	0.0	go	temp-non-target	B	71,Index Finger	89,Middle Finger	500.0	500.0	2250.0	2250.0	0.0	n/a	n/a	n/a	ITI
15815	500.0	n/a	-1	-1	500	0.0	fixation	poldrack-single-stim	397	1234299	0.0-19.1-0.1	beast_fmri_test	278	1234112,/	t	<div class = centerbox2><div class = fixation>+</div></div>	none	500.0	test	n/a	n/a	n/a	n/a	n/a	n/a	n/a	n/a	n/a	n/a	n/a	n/a	n/a	n/a	n/a	n/a	n/a	n/a	fixation
14307.073712382931	2750.0	n/a	820	89	2750	1511.92628762	stim	stop-signal	398	1237053	0.0-19.1-1.1	beast_fmri_test	278	1234792,/,1235472,/,1236152,/,1236834,/,1237513,/,1238193,/	t,t,t,t,t,t	<img class = center src='/static/experiments/beast_fmri_test/images/D.png'></img>	71,89	2750.0	test	<img class = center src='/static/experiments/beast_fmri_test/images/redD.png'></img>	go	-1.0	2.0	1.0	go	temp-non-target	D	71,Index Finger	89,Middle Finger	500.0	500.0	2250.0	2250.0	0.0	n/a	n/a	n/a	go_stim
17057.073712382931	1511.92628762	n/a	820	89	2750	1511.92628762	stim	stop-signal	398	1237053	0.0-19.1-1.1	beast_fmri_test	278	1234792,/,1235472,/,1236152,/,1236834,/,1237513,/,1238193,/	t,t,t,t,t,t	<img class = center src='/static/experiments/beast_fmri_test/images/D.png'></img>	71,89	2750.0	test	<img class = center src='/static/experiments/beast_fmri_test/images/redD.png'></img>	go	-1.0	2.0	1.0	go	temp-non-target	D	71,Index Finger	89,Middle Finger	500.0	500.0	2250.0	2250.0	0.0	n/a	n/a	n/a	ITI
20621	500.0	n/a	-1	-1	500	0.0	fixation	poldrack-single-stim	399	1239105	0.0-19.2-0.2	beast_fmri_test	278	1238872,/	t	<div class = centerbox2><div class = fixation>+</div></div>	none	500.0	test	n/a	n/a	n/a	n/a	n/a	n/a	n/a	n/a	n/a	n/a	n/a	n/a	n/a	n/a	n/a	n/a	n/a	n/a	fixation
20433.116365835769	2750.0	n/a	746	89	2750	190.883634164	stim	stop-signal	400	1241858	0.0-19.2-1.2	beast_fmri_test	278	1239554,/,1240234,/,1240914,/,1241593,/	t,t,t,t	<img class = center src='/static/experiments/beast_fmri_test/images/D.png'></img>	71,89	2750.0	test	<img class = center src='/static/experiments/beast_fmri_test/images/redD.png'></img>	go	2250.0	2.0	2.0	go	non-target	D	71,Index Finger	89,Middle Finger	500.0	500.0	2250.0	2250.0	1.0	n/a	500.0	1.0	go_stim
23183.116365835769	190.883634164	n/a	746	89	2750	190.883634164	stim	stop-signal	400	1241858	0.0-19.2-1.2	beast_fmri_test	278	1239554,/,1240234,/,1240914,/,1241593,/	t,t,t,t	<img class = center src='/static/experiments/beast_fmri_test/images/D.png'></img>	71,89	2750.0	test	<img class = center src='/static/experiments/beast_fmri_test/images/redD.png'></img>	go	2250.0	2.0	2.0	go	non-target	D	71,Index Finger	89,Middle Finger	500.0	500.0	2250.0	2250.0	1.0	n/a	500.0	1.0	ITI
24106	500.0	n/a	-1	-1	500	0.0	fixation	poldrack-single-stim	401	1242590	0.0-19.3-0.3	beast_fmri_test	278	1242272,/	t	<div class = centerbox2><div class = fixation>+</div></div>	none	500.0	test	n/a	n/a	n/a	n/a	n/a	n/a	n/a	n/a	n/a	n/a	n/a	n/a	n/a	n/a	n/a	n/a	n/a	n/a	fixation
21685.511985168792	2750.0	n/a	904	89	2750	2419.48801483	stim	stop-signal	402	1245339	0.0-19.3-1.3	beast_fmri_test	278	1242951,/,1243628,/,1244307,/,1244987,/,1245669,/,1246349,/,1247029,/,1247709,/	t,t,t,t,t,t,t,t	<img class = center src='/static/experiments/beast_fmri_test/images/V.png'></img>	71,89	2750.0	test	<img class = center src='/static/experiments/beast_fmri_test/images/redV.png'></img>	go	2250.0	2.0	3.0	go	non-target	V	71,Index Finger	89,Middle Finger	500.0	500.0	2250.0	2250.0	1.0	n/a	500.0	1.0	go_stim
24435.511985168792	2419.48801483	n/a	904	89	2750	2419.48801483	stim	stop-signal	402	1245339	0.0-19.3-1.3	beast_fmri_test	278	1242951,/,1243628,/,1244307,/,1244987,/,1245669,/,1246349,/,1247029,/,1247709,/	t,t,t,t,t,t,t,t	<img class = center src='/static/experiments/beast_fmri_test/images/V.png'></img>	71,89	2750.0	test	<img class = center src='/static/experiments/beast_fmri_test/images/redV.png'></img>	go	2250.0	2.0	3.0	go	non-target	V	71,Index Finger	89,Middle Finger	500.0	500.0	2250.0	2250.0	1.0	n/a	500.0	1.0	ITI
29815	500.0	n/a	-1	-1	500	0.0	fixation	poldrack-single-stim	403	1248299	0.0-19.4-0.4	beast_fmri_test	278	n/a	n/a	<div class = centerbox2><div class = fixation>+</div></div>	none	500.0	test	n/a	n/a	n/a	n/a	n/a	n/a	n/a	n/a	n/a	n/a	n/a	n/a	n/a	n/a	n/a	n/a	n/a	n/a	fixation
29769.070017599501	2750.0	n/a	586	89	2750	48.9299824004	stim	stop-signal	404	1251052	0.0-19.4-1.4	beast_fmri_test	278	1248387,/,1249068,/,1249748,/,1250429,/	t,t,t,t	<img class = center src='/static/experiments/beast_fmri_test/images/B.png'></img>	71,89	2750.0	test	<img class = center src='/static/experiments/beast_fmri_test/images/redB.png'></img>	go	2250.0	2.0	4.0	go	non-target	B	71,Index Finger	89,Middle Finger	500.0	500.0	2250.0	2250.0	1.0	n/a	500.0	1.0	go_stim
32519.070017599501	48.9299824004	n/a	586	89	2750	48.9299824004	stim	stop-signal	404	1251052	0.0-19.4-1.4	beast_fmri_test	278	1248387,/,1249068,/,1249748,/,1250429,/	t,t,t,t	<img class = center src='/static/experiments/beast_fmri_test/images/B.png'></img>	71,89	2750.0	test	<img class = center src='/static/experiments/beast_fmri_test/images/redB.png'></img>	go	2250.0	2.0	4.0	go	non-target	B	71,Index Finger	89,Middle Finger	500.0	500.0	2250.0	2250.0	1.0	n/a	500.0	1.0	ITI
33162	500.0	n/a	-1	-1	500	0.0	fixation	poldrack-single-stim	405	1251646	0.0-19.5-0.5	beast_fmri_test	278	1251143,/	t	<div class = centerbox2><div class = fixation>+</div></div>	none	500.0	test	n/a	n/a	n/a	n/a	n/a	n/a	n/a	n/a	n/a	n/a	n/a	n/a	n/a	n/a	n/a	n/a	n/a	n/a	fixation
32523.456405241508	500.0	n/a	-1	-1	2750	636.543594758	stim	stop-signal	406	1254394	0.0-19.5-1.5	beast_fmri_test	278	1251789,/,1252468,/,1253147,/,1253825,/,1254505,/	t,t,t,t,t	<img class = center src='/static/experiments/beast_fmri_test/images/P.png'></img>	71,89	2750.0	test	<img class = center src='/static/experiments/beast_fmri_test/images/redP.png'></img>	stop	2250.0	2.0	5.0	stop	non-target	P	71,Index Finger	89,Middle Finger	500.0	500.0	2250.0	2250.0	0.0	1.0	500.0	n/a	go_stim
34773.456405241508	2250.0	n/a	-1	-1	2750	636.543594758	stim	stop-signal	406	1254394	0.0-19.5-1.5	beast_fmri_test	278	1251789,/,1252468,/,1253147,/,1253825,/,1254505,/	t,t,t,t,t	<img class = center src='/static/experiments/beast_fmri_test/images/P.png'></img>	71,89	2750.0	test	<img class = center src='/static/experiments/beast_fmri_test/images/redP.png'></img>	stop	2250.0	2.0	5.0	stop	non-target	P	71,Index Finger	89,Middle Finger	500.0	500.0	2250.0	2250.0	0.0	1.0	500.0	n/a	stop_stim
35273.456405241508	636.543594758	n/a	-1	-1	2750	636.543594758	stim	stop-signal	406	1254394	0.0-19.5-1.5	beast_fmri_test	278	1251789,/,1252468,/,1253147,/,1253825,/,1254505,/	t,t,t,t,t	<img class = center src='/static/experiments/beast_fmri_test/images/P.png'></img>	71,89	2750.0	test	<img class = center src='/static/experiments/beast_fmri_test/images/redP.png'></img>	stop	2250.0	2.0	5.0	stop	non-target	P	71,Index Finger	89,Middle Finger	500.0	500.0	2250.0	2250.0	0.0	1.0	500.0	n/a	ITI
37087	500.0	n/a	-1	-1	500	0.0	fixation	poldrack-single-stim	407	1255571	0.0-19.6-0.6	beast_fmri_test	278	1255184,/	t	<div class = centerbox2><div class = fixation>+</div></div>	none	500.0	test	n/a	n/a	n/a	n/a	n/a	n/a	n/a	n/a	n/a	n/a	n/a	n/a	n/a	n/a	n/a	n/a	n/a	n/a	fixation
35348.625750566833	500.0	n/a	-1	-1	2750	1741.37424943	stim	stop-signal	408	1258324	0.0-19.6-1.6	beast_fmri_test	278	1255865,/,1256544,/,1257224,/,1257905,/,1258584,/,1259264,/,1259943,/	t,t,t,t,t,t,t	<img class = center src='/static/experiments/beast_fmri_test/images/B.png'></img>	71,89	2750.0	test	<img class = center src='/static/experiments/beast_fmri_test/images/redB.png'></img>	stop	2250.0	2.0	6.0	stop	target	B	71,Index Finger	89,Middle Finger	500.0	550.0	2250.0	2250.0	0.0	1.0	500.0	n/a	go_stim
37598.625750566833	2250.0	n/a	-1	-1	2750	1741.37424943	stim	stop-signal	408	1258324	0.0-19.6-1.6	beast_fmri_test	278	1255865,/,1256544,/,1257224,/,1257905,/,1258584,/,1259264,/,1259943,/	t,t,t,t,t,t,t	<img class = center src='/static/experiments/beast_fmri_test/images/B.png'></img>	71,89	2750.0	test	<img class = center src='/static/experiments/beast_fmri_test/images/redB.png'></img>	stop	2250.0	2.0	6.0	stop	target	B	71,Index Finger	89,Middle Finger	500.0	550.0	2250.0	2250.0	0.0	1.0	500.0	n/a	stop_stim
38098.625750566833	1741.37424943	n/a	-1	-1	2750	1741.37424943	stim	stop-signal	408	1258324	0.0-19.6-1.6	beast_fmri_test	278	1255865,/,1256544,/,1257224,/,1257905,/,1258584,/,1259264,/,1259943,/	t,t,t,t,t,t,t	<img class = center src='/static/experiments/beast_fmri_test/images/B.png'></img>	71,89	2750.0	test	<img class = center src='/static/experiments/beast_fmri_test/images/redB.png'></img>	stop	2250.0	2.0	6.0	stop	target	B	71,Index Finger	89,Middle Finger	500.0	550.0	2250.0	2250.0	0.0	1.0	500.0	n/a	ITI
42126	500.0	n/a	-1	-1	500	0.0	fixation	poldrack-single-stim	409	1260610	0.0-19.7-0.7	beast_fmri_test	278	n/a	n/a	<div class = centerbox2><div class = fixation>+</div></div>	none	500.0	test	n/a	n/a	n/a	n/a	n/a	n/a	n/a	n/a	n/a	n/a	n/a	n/a	n/a	n/a	n/a	n/a	n/a	n/a	fixation
41098.405860196333	550.0	n/a	953	89	2750	1025.5941398	stim	stop-signal	410	1263358	0.0-19.7-1.7	beast_fmri_test	278	1260623,/,1261304,/,1261984,/,1262662,/,1263340,/,1264020,/	t,t,t,t,t,t	<img class = center src='/static/experiments/beast_fmri_test/images/B.png'></img>	71,89	2750.0	test	<img class = center src='/static/experiments/beast_fmri_test/images/redB.png'></img>	stop	2200.0	2.0	7.0	stop	non-target	B	71,Index Finger	89,Middle Finger	550.0	550.0	2250.0	2200.0	0.0	0.0	550.0	n/a	go_stim
43298.405860196333	2200.0	n/a	953	89	2750	1025.5941398	stim	stop-signal	410	1263358	0.0-19.7-1.7	beast_fmri_test	278	1260623,/,1261304,/,1261984,/,1262662,/,1263340,/,1264020,/	t,t,t,t,t,t	<img class = center src='/static/experiments/beast_fmri_test/images/B.png'></img>	71,89	2750.0	test	<img class = center src='/static/experiments/beast_fmri_test/images/redB.png'></img>	stop	2200.0	2.0	7.0	stop	non-target	B	71,Index Finger	89,Middle Finger	550.0	550.0	2250.0	2200.0	0.0	0.0	550.0	n/a	stop_stim
43848.405860196333	1025.5941398	n/a	953	89	2750	1025.5941398	stim	stop-signal	410	1263358	0.0-19.7-1.7	beast_fmri_test	278	1260623,/,1261304,/,1261984,/,1262662,/,1263340,/,1264020,/	t,t,t,t,t,t	<img class = center src='/static/experiments/beast_fmri_test/images/B.png'></img>	71,89	2750.0	test	<img class = center src='/static/experiments/beast_fmri_test/images/redB.png'></img>	stop	2200.0	2.0	7.0	stop	non-target	B	71,Index Finger	89,Middle Finger	550.0	550.0	2250.0	2200.0	0.0	0.0	550.0	n/a	ITI
46441	500.0	n/a	-1	-1	500	0.0	fixation	poldrack-single-stim	411	1264925	0.0-19.8-0.8	beast_fmri_test	278	1264700,/	t	<div class = centerbox2><div class = fixation>+</div></div>	none	500.0	test	n/a	n/a	n/a	n/a	n/a	n/a	n/a	n/a	n/a	n/a	n/a	n/a	n/a	n/a	n/a	n/a	n/a	n/a	fixation
45353.391493418254	550.0	n/a	-1	-1	2750	1090.60850658	stim	stop-signal	412	1267678	0.0-19.8-1.8	beast_fmri_test	278	1265379,/,1266059,/,1266739,/,1267420,/,1268099,/	t,t,t,t,t	<img class = center src='/static/experiments/beast_fmri_test/images/B.png'></img>	71,89	2750.0	test	<img class = center src='/static/experiments/beast_fmri_test/images/redB.png'></img>	stop	2200.0	2.0	8.0	stop	target	B	71,Index Finger	89,Middle Finger	550.0	500.0	2200.0	2200.0	0.0	1.0	550.0	n/a	go_stim
47553.391493418254	2200.0	n/a	-1	-1	2750	1090.60850658	stim	stop-signal	412	1267678	0.0-19.8-1.8	beast_fmri_test	278	1265379,/,1266059,/,1266739,/,1267420,/,1268099,/	t,t,t,t,t	<img class = center src='/static/experiments/beast_fmri_test/images/B.png'></img>	71,89	2750.0	test	<img class = center src='/static/experiments/beast_fmri_test/images/redB.png'></img>	stop	2200.0	2.0	8.0	stop	target	B	71,Index Finger	89,Middle Finger	550.0	500.0	2200.0	2200.0	0.0	1.0	550.0	n/a	stop_stim
48103.391493418254	1090.60850658	n/a	-1	-1	2750	1090.60850658	stim	stop-signal	412	1267678	0.0-19.8-1.8	beast_fmri_test	278	1265379,/,1266059,/,1266739,/,1267420,/,1268099,/	t,t,t,t,t	<img class = center src='/static/experiments/beast_fmri_test/images/B.png'></img>	71,89	2750.0	test	<img class = center src='/static/experiments/beast_fmri_test/images/redB.png'></img>	stop	2200.0	2.0	8.0	stop	target	B	71,Index Finger	89,Middle Finger	550.0	500.0	2200.0	2200.0	0.0	1.0	550.0	n/a	ITI
50832	500.0	n/a	-1	-1	500	0.0	fixation	poldrack-single-stim	413	1269316	0.0-19.9-0.9	beast_fmri_test	278	1268814,/	t	<div class = centerbox2><div class = fixation>+</div></div>	none	500.0	test	n/a	n/a	n/a	n/a	n/a	n/a	n/a	n/a	n/a	n/a	n/a	n/a	n/a	n/a	n/a	n/a	n/a	n/a	fixation
50756.439713315573	2750.0	n/a	879	89	2750	78.5602866844	stim	stop-signal	414	1272069	0.0-19.9-1.9	beast_fmri_test	278	1269459,/,1270139,/,1270819,/,1271499,/	t,t,t,t	<img class = center src='/static/experiments/beast_fmri_test/images/D.png'></img>	71,89	2750.0	test	<img class = center src='/static/experiments/beast_fmri_test/images/redD.png'></img>	go	2250.0	2.0	9.0	go	non-target	D	71,Index Finger	89,Middle Finger	600.0	500.0	2200.0	2250.0	1.0	n/a	500.0	1.0	go_stim
53506.439713315573	78.5602866844	n/a	879	89	2750	78.5602866844	stim	stop-signal	414	1272069	0.0-19.9-1.9	beast_fmri_test	278	1269459,/,1270139,/,1270819,/,1271499,/	t,t,t,t	<img class = center src='/static/experiments/beast_fmri_test/images/D.png'></img>	71,89	2750.0	test	<img class = center src='/static/experiments/beast_fmri_test/images/redD.png'></img>	go	2250.0	2.0	9.0	go	non-target	D	71,Index Finger	89,Middle Finger	600.0	500.0	2200.0	2250.0	1.0	n/a	500.0	1.0	ITI
54207	500.0	n/a	-1	-1	500	0.0	fixation	poldrack-single-stim	415	1272691	0.0-19.10-0.10	beast_fmri_test	278	1272191,/	t	<div class = centerbox2><div class = fixation>+</div></div>	none	500.0	test	n/a	n/a	n/a	n/a	n/a	n/a	n/a	n/a	n/a	n/a	n/a	n/a	n/a	n/a	n/a	n/a	n/a	n/a	fixation
53801.95770170074	2750.0	n/a	-1	-1	2750	404.042298299	stim	stop-signal	416	1275440	0.0-19.10-1.10	beast_fmri_test	278	1272858,/,1273534,/,1274214,/,1274894,/,1275573,/	t,t,t,t,t	<img class = center src='/static/experiments/beast_fmri_test/images/B.png'></img>	71,89	2750.0	test	<img class = center src='/static/experiments/beast_fmri_test/images/redB.png'></img>	go	2150.0	2.0	10.0	go	target	B	71,Index Finger	89,Middle Finger	600.0	500.0	2150.0	2250.0	0.0	n/a	600.0	0.0	go_stim
56551.95770170074	404.042298299	n/a	-1	-1	2750	404.042298299	stim	stop-signal	416	1275440	0.0-19.10-1.10	beast_fmri_test	278	1272858,/,1273534,/,1274214,/,1274894,/,1275573,/	t,t,t,t,t	<img class = center src='/static/experiments/beast_fmri_test/images/B.png'></img>	71,89	2750.0	test	<img class = center src='/static/experiments/beast_fmri_test/images/redB.png'></img>	go	2150.0	2.0	10.0	go	target	B	71,Index Finger	89,Middle Finger	600.0	500.0	2150.0	2250.0	0.0	n/a	600.0	0.0	ITI
57905	500.0	n/a	-1	-1	500	0.0	fixation	poldrack-single-stim	417	1276389	0.0-19.11-0.11	beast_fmri_test	278	1276256,/	t	<div class = centerbox2><div class = fixation>+</div></div>	none	500.0	test	n/a	n/a	n/a	n/a	n/a	n/a	n/a	n/a	n/a	n/a	n/a	n/a	n/a	n/a	n/a	n/a	n/a	n/a	fixation
57662.375890546711	2750.0	n/a	-1	-1	2750	245.624109453	stim	stop-signal	418	1279142	0.0-19.11-1.11	beast_fmri_test	278	1276933,/,1277615,/,1278295,/,1278976,/	t,t,t,t	<img class = center src='/static/experiments/beast_fmri_test/images/B.png'></img>	71,89	2750.0	test	<img class = center src='/static/experiments/beast_fmri_test/images/redB.png'></img>	go	2250.0	2.0	11.0	go	non-target	B	71,Index Finger	89,Middle Finger	600.0	500.0	2150.0	2250.0	0.0	n/a	500.0	0.0	go_stim
60412.375890546711	245.624109453	n/a	-1	-1	2750	245.624109453	stim	stop-signal	418	1279142	0.0-19.11-1.11	beast_fmri_test	278	1276933,/,1277615,/,1278295,/,1278976,/	t,t,t,t	<img class = center src='/static/experiments/beast_fmri_test/images/B.png'></img>	71,89	2750.0	test	<img class = center src='/static/experiments/beast_fmri_test/images/redB.png'></img>	go	2250.0	2.0	11.0	go	non-target	B	71,Index Finger	89,Middle Finger	600.0	500.0	2150.0	2250.0	0.0	n/a	500.0	0.0	ITI
61448	500.0	n/a	-1	-1	500	0.0	fixation	poldrack-single-stim	419	1279932	0.0-19.12-0.12	beast_fmri_test	278	1279655,/	t	<div class = centerbox2><div class = fixation>+</div></div>	none	500.0	test	n/a	n/a	n/a	n/a	n/a	n/a	n/a	n/a	n/a	n/a	n/a	n/a	n/a	n/a	n/a	n/a	n/a	n/a	fixation
58611.197640078142	500.0	n/a	-1	-1	2750	2838.80235992	stim	stop-signal	420	1282684	0.0-19.12-1.12	beast_fmri_test	278	1280335,/,1281016,/,1281694,/,1282376,/,1283053,/,1283730,/,1284410,/,1285089,/	t,t,t,t,t,t,t,t	<img class = center src='/static/experiments/beast_fmri_test/images/T.png'></img>	71,89	2750.0	test	<img class = center src='/static/experiments/beast_fmri_test/images/redT.png'></img>	stop	2250.0	2.0	12.0	stop	non-target	T	71,Index Finger	89,Middle Finger	600.0	500.0	2150.0	2250.0	0.0	1.0	500.0	n/a	go_stim
60861.197640078142	2250.0	n/a	-1	-1	2750	2838.80235992	stim	stop-signal	420	1282684	0.0-19.12-1.12	beast_fmri_test	278	1280335,/,1281016,/,1281694,/,1282376,/,1283053,/,1283730,/,1284410,/,1285089,/	t,t,t,t,t,t,t,t	<img class = center src='/static/experiments/beast_fmri_test/images/T.png'></img>	71,89	2750.0	test	<img class = center src='/static/experiments/beast_fmri_test/images/redT.png'></img>	stop	2250.0	2.0	12.0	stop	non-target	T	71,Index Finger	89,Middle Finger	600.0	500.0	2150.0	2250.0	0.0	1.0	500.0	n/a	stop_stim
61361.197640078142	2838.80235992	n/a	-1	-1	2750	2838.80235992	stim	stop-signal	420	1282684	0.0-19.12-1.12	beast_fmri_test	278	1280335,/,1281016,/,1281694,/,1282376,/,1283053,/,1283730,/,1284410,/,1285089,/	t,t,t,t,t,t,t,t	<img class = center src='/static/experiments/beast_fmri_test/images/T.png'></img>	71,89	2750.0	test	<img class = center src='/static/experiments/beast_fmri_test/images/redT.png'></img>	stop	2250.0	2.0	12.0	stop	non-target	T	71,Index Finger	89,Middle Finger	600.0	500.0	2150.0	2250.0	0.0	1.0	500.0	n/a	ITI
67578	500.0	n/a	-1	-1	500	0.0	fixation	poldrack-single-stim	421	1286062	0.0-19.13-0.13	beast_fmri_test	278	1285769,/	t	<div class = centerbox2><div class = fixation>+</div></div>	none	500.0	test	n/a	n/a	n/a	n/a	n/a	n/a	n/a	n/a	n/a	n/a	n/a	n/a	n/a	n/a	n/a	n/a	n/a	n/a	fixation
67295.122804757673	2750.0	n/a	2151	89	2750	284.877195242	stim	stop-signal	422	1288814	0.0-19.13-1.13	beast_fmri_test	278	1286450,/,1287131,/,1287811,/,1288490,/	t,t,t,t	<img class = center src='/static/experiments/beast_fmri_test/images/V.png'></img>	71,89	2750.0	test	<img class = center src='/static/experiments/beast_fmri_test/images/redV.png'></img>	go	2200.0	2.0	13.0	go	non-target	V	71,Index Finger	89,Middle Finger	600.0	550.0	2150.0	2200.0	1.0	n/a	550.0	1.0	go_stim
70045.122804757673	284.877195242	n/a	2151	89	2750	284.877195242	stim	stop-signal	422	1288814	0.0-19.13-1.13	beast_fmri_test	278	1286450,/,1287131,/,1287811,/,1288490,/	t,t,t,t	<img class = center src='/static/experiments/beast_fmri_test/images/V.png'></img>	71,89	2750.0	test	<img class = center src='/static/experiments/beast_fmri_test/images/redV.png'></img>	go	2200.0	2.0	13.0	go	non-target	V	71,Index Finger	89,Middle Finger	600.0	550.0	2150.0	2200.0	1.0	n/a	550.0	1.0	ITI
71160	500.0	n/a	-1	-1	500	0.0	fixation	poldrack-single-stim	423	1289644	0.0-19.14-0.14	beast_fmri_test	278	1289169,/	t	<div class = centerbox2><div class = fixation>+</div></div>	none	500.0	test	n/a	n/a	n/a	n/a	n/a	n/a	n/a	n/a	n/a	n/a	n/a	n/a	n/a	n/a	n/a	n/a	n/a	n/a	fixation
69714.430979117285	2750.0	n/a	1204	71	2750	1447.56902088	stim	stop-signal	424	1292396	0.0-19.14-1.14	beast_fmri_test	278	1289850,/,1290531,/,1291211,/,1291891,/,1292570,/,1293246,/	t,t,t,t,t,t	<img class = center src='/static/experiments/beast_fmri_test/images/V.png'></img>	71,89	2750.0	test	<img class = center src='/static/experiments/beast_fmri_test/images/redV.png'></img>	go	2200.0	2.0	14.0	go	non-target	V	71,Index Finger	89,Middle Finger	600.0	550.0	2150.0	2200.0	0.0	n/a	550.0	0.0	go_stim
72464.430979117285	1447.56902088	n/a	1204	71	2750	1447.56902088	stim	stop-signal	424	1292396	0.0-19.14-1.14	beast_fmri_test	278	1289850,/,1290531,/,1291211,/,1291891,/,1292570,/,1293246,/	t,t,t,t,t,t	<img class = center src='/static/experiments/beast_fmri_test/images/V.png'></img>	71,89	2750.0	test	<img class = center src='/static/experiments/beast_fmri_test/images/redV.png'></img>	go	2200.0	2.0	14.0	go	non-target	V	71,Index Finger	89,Middle Finger	600.0	550.0	2150.0	2200.0	0.0	n/a	550.0	0.0	ITI
75902	500.0	n/a	-1	-1	500	0.0	fixation	poldrack-single-stim	425	1294386	0.0-19.15-0.15	beast_fmri_test	278	1293924,/	t	<div class = centerbox2><div class = fixation>+</div></div>	none	500.0	test	n/a	n/a	n/a	n/a	n/a	n/a	n/a	n/a	n/a	n/a	n/a	n/a	n/a	n/a	n/a	n/a	n/a	n/a	fixation
75896.66962912702	2750.0	n/a	955	89	2750	7.33037087297	stim	stop-signal	426	1297138	0.0-19.15-1.15	beast_fmri_test	278	1294606,/,1295285,/,1295964,/,1296645,/	t,t,t,t	<img class = center src='/static/experiments/beast_fmri_test/images/T.png'></img>	71,89	2750.0	test	<img class = center src='/static/experiments/beast_fmri_test/images/redT.png'></img>	go	2200.0	2.0	15.0	go	non-target	T	71,Index Finger	89,Middle Finger	600.0	550.0	2150.0	2200.0	1.0	n/a	550.0	1.0	go_stim
78646.66962912702	7.33037087297	n/a	955	89	2750	7.33037087297	stim	stop-signal	426	1297138	0.0-19.15-1.15	beast_fmri_test	278	1294606,/,1295285,/,1295964,/,1296645,/	t,t,t,t	<img class = center src='/static/experiments/beast_fmri_test/images/T.png'></img>	71,89	2750.0	test	<img class = center src='/static/experiments/beast_fmri_test/images/redT.png'></img>	go	2200.0	2.0	15.0	go	non-target	T	71,Index Finger	89,Middle Finger	600.0	550.0	2150.0	2200.0	1.0	n/a	550.0	1.0	ITI
79211	500.0	n/a	-1	-1	500	0.0	fixation	poldrack-single-stim	427	1297695	0.0-19.16-0.16	beast_fmri_test	278	1297325,/	t	<div class = centerbox2><div class = fixation>+</div></div>	none	500.0	test	n/a	n/a	n/a	n/a	n/a	n/a	n/a	n/a	n/a	n/a	n/a	n/a	n/a	n/a	n/a	n/a	n/a	n/a	fixation
78334.587659294717	2750.0	n/a	1156	89	2750	879.412340705	stim	stop-signal	428	1300448	0.0-19.16-1.16	beast_fmri_test	278	1298005,/,1298686,/,1299365,/,1300045,/,1300726,/	t,t,t,t,t	<img class = center src='/static/experiments/beast_fmri_test/images/V.png'></img>	71,89	2750.0	test	<img class = center src='/static/experiments/beast_fmri_test/images/redV.png'></img>	go	2150.0	2.0	16.0	go	target	V	71,Index Finger	89,Middle Finger	600.0	550.0	2150.0	2200.0	0.0	n/a	600.0	0.0	go_stim
81084.587659294717	879.412340705	n/a	1156	89	2750	879.412340705	stim	stop-signal	428	1300448	0.0-19.16-1.16	beast_fmri_test	278	1298005,/,1298686,/,1299365,/,1300045,/,1300726,/	t,t,t,t,t	<img class = center src='/static/experiments/beast_fmri_test/images/V.png'></img>	71,89	2750.0	test	<img class = center src='/static/experiments/beast_fmri_test/images/redV.png'></img>	go	2150.0	2.0	16.0	go	target	V	71,Index Finger	89,Middle Finger	600.0	550.0	2150.0	2200.0	0.0	n/a	600.0	0.0	ITI
83389	500.0	n/a	-1	-1	500	0.0	fixation	poldrack-single-stim	429	1301873	0.0-19.17-0.17	beast_fmri_test	278	1301405,/	t	<div class = centerbox2><div class = fixation>+</div></div>	none	500.0	test	n/a	n/a	n/a	n/a	n/a	n/a	n/a	n/a	n/a	n/a	n/a	n/a	n/a	n/a	n/a	n/a	n/a	n/a	fixation
83128.634506111965	2750.0	n/a	833	89	2750	259.365493888	stim	stop-signal	430	1304622	0.0-19.17-1.17	beast_fmri_test	278	1302086,/,1302764,/,1303441,/,1304120,/,1304802,/	t,t,t,t,t	<img class = center src='/static/experiments/beast_fmri_test/images/D.png'></img>	71,89	2750.0	test	<img class = center src='/static/experiments/beast_fmri_test/images/redD.png'></img>	go	2200.0	2.0	17.0	go	non-target	D	71,Index Finger	89,Middle Finger	600.0	550.0	2150.0	2200.0	1.0	n/a	550.0	1.0	go_stim
85878.634506111965	259.365493888	n/a	833	89	2750	259.365493888	stim	stop-signal	430	1304622	0.0-19.17-1.17	beast_fmri_test	278	1302086,/,1302764,/,1303441,/,1304120,/,1304802,/	t,t,t,t,t	<img class = center src='/static/experiments/beast_fmri_test/images/D.png'></img>	71,89	2750.0	test	<img class = center src='/static/experiments/beast_fmri_test/images/redD.png'></img>	go	2200.0	2.0	17.0	go	non-target	D	71,Index Finger	89,Middle Finger	600.0	550.0	2150.0	2200.0	1.0	n/a	550.0	1.0	ITI
86942	500.0	n/a	-1	-1	500	0.0	fixation	poldrack-single-stim	431	1305426	0.0-19.18-0.18	beast_fmri_test	278	n/a	n/a	<div class = centerbox2><div class = fixation>+</div></div>	none	500.0	test	n/a	n/a	n/a	n/a	n/a	n/a	n/a	n/a	n/a	n/a	n/a	n/a	n/a	n/a	n/a	n/a	n/a	n/a	fixation
86002.266402984969	550.0	n/a	-1	-1	2750	943.733597015	stim	stop-signal	432	1308180	0.0-19.18-1.18	beast_fmri_test	278	1305480,/,1306161,/,1306842,/,1307521,/,1308199,/,1308881,/	t,t,t,t,t,t	<img class = center src='/static/experiments/beast_fmri_test/images/T.png'></img>	71,89	2750.0	test	<img class = center src='/static/experiments/beast_fmri_test/images/redT.png'></img>	stop	2200.0	2.0	18.0	stop	non-target	T	71,Index Finger	89,Middle Finger	600.0	550.0	2150.0	2200.0	0.0	1.0	550.0	n/a	go_stim
88202.266402984969	2200.0	n/a	-1	-1	2750	943.733597015	stim	stop-signal	432	1308180	0.0-19.18-1.18	beast_fmri_test	278	1305480,/,1306161,/,1306842,/,1307521,/,1308199,/,1308881,/	t,t,t,t,t,t	<img class = center src='/static/experiments/beast_fmri_test/images/T.png'></img>	71,89	2750.0	test	<img class = center src='/static/experiments/beast_fmri_test/images/redT.png'></img>	stop	2200.0	2.0	18.0	stop	non-target	T	71,Index Finger	89,Middle Finger	600.0	550.0	2150.0	2200.0	0.0	1.0	550.0	n/a	stop_stim
88752.266402984969	943.733597015	n/a	-1	-1	2750	943.733597015	stim	stop-signal	432	1308180	0.0-19.18-1.18	beast_fmri_test	278	1305480,/,1306161,/,1306842,/,1307521,/,1308199,/,1308881,/	t,t,t,t,t,t	<img class = center src='/static/experiments/beast_fmri_test/images/T.png'></img>	71,89	2750.0	test	<img class = center src='/static/experiments/beast_fmri_test/images/redT.png'></img>	stop	2200.0	2.0	18.0	stop	non-target	T	71,Index Finger	89,Middle Finger	600.0	550.0	2150.0	2200.0	0.0	1.0	550.0	n/a	ITI
91187	500.0	n/a	-1	-1	500	0.0	fixation	poldrack-single-stim	433	1309671	0.0-19.19-0.19	beast_fmri_test	278	1309560,/	t	<div class = centerbox2><div class = fixation>+</div></div>	none	500.0	test	n/a	n/a	n/a	n/a	n/a	n/a	n/a	n/a	n/a	n/a	n/a	n/a	n/a	n/a	n/a	n/a	n/a	n/a	fixation
90913.726484101498	600.0	n/a	-1	-1	2750	276.273515898	stim	stop-signal	434	1312424	0.0-19.19-1.19	beast_fmri_test	278	1310241,/,1310922,/,1311601,/,1312281,/	t,t,t,t	<img class = center src='/static/experiments/beast_fmri_test/images/D.png'></img>	71,89	2750.0	test	<img class = center src='/static/experiments/beast_fmri_test/images/redD.png'></img>	stop	2150.0	2.0	19.0	stop	target	D	71,Index Finger	89,Middle Finger	600.0	600.0	2150.0	2200.0	0.0	1.0	600.0	n/a	go_stim
93063.726484101498	2150.0	n/a	-1	-1	2750	276.273515898	stim	stop-signal	434	1312424	0.0-19.19-1.19	beast_fmri_test	278	1310241,/,1310922,/,1311601,/,1312281,/	t,t,t,t	<img class = center src='/static/experiments/beast_fmri_test/images/D.png'></img>	71,89	2750.0	test	<img class = center src='/static/experiments/beast_fmri_test/images/redD.png'></img>	stop	2150.0	2.0	19.0	stop	target	D	71,Index Finger	89,Middle Finger	600.0	600.0	2150.0	2200.0	0.0	1.0	600.0	n/a	stop_stim
93663.726484101498	276.273515898	n/a	-1	-1	2750	276.273515898	stim	stop-signal	434	1312424	0.0-19.19-1.19	beast_fmri_test	278	1310241,/,1310922,/,1311601,/,1312281,/	t,t,t,t	<img class = center src='/static/experiments/beast_fmri_test/images/D.png'></img>	71,89	2750.0	test	<img class = center src='/static/experiments/beast_fmri_test/images/redD.png'></img>	stop	2150.0	2.0	19.0	stop	target	D	71,Index Finger	89,Middle Finger	600.0	600.0	2150.0	2200.0	0.0	1.0	600.0	n/a	ITI
94759	500.0	n/a	-1	-1	500	0.0	fixation	poldrack-single-stim	435	1313243	0.0-19.20-0.20	beast_fmri_test	278	1312959,/	t	<div class = centerbox2><div class = fixation>+</div></div>	none	500.0	test	n/a	n/a	n/a	n/a	n/a	n/a	n/a	n/a	n/a	n/a	n/a	n/a	n/a	n/a	n/a	n/a	n/a	n/a	fixation
94062.538262248039	2750.0	n/a	1038	89	2750	698.461737752	stim	stop-signal	436	1315995	0.0-19.20-1.20	beast_fmri_test	278	1313635,/,1314317,/,1314996,/,1315677,/,1316356,/	t,t,t,t,t	<img class = center src='/static/experiments/beast_fmri_test/images/T.png'></img>	71,89	2750.0	test	<img class = center src='/static/experiments/beast_fmri_test/images/redT.png'></img>	go	2100.0	2.0	20.0	go	target	T	71,Index Finger	89,Middle Finger	650.0	600.0	2100.0	2200.0	0.0	n/a	650.0	0.0	go_stim
96812.538262248039	698.461737752	n/a	1038	89	2750	698.461737752	stim	stop-signal	436	1315995	0.0-19.20-1.20	beast_fmri_test	278	1313635,/,1314317,/,1314996,/,1315677,/,1316356,/	t,t,t,t,t	<img class = center src='/static/experiments/beast_fmri_test/images/T.png'></img>	71,89	2750.0	test	<img class = center src='/static/experiments/beast_fmri_test/images/redT.png'></img>	go	2100.0	2.0	20.0	go	target	T	71,Index Finger	89,Middle Finger	650.0	600.0	2100.0	2200.0	0.0	n/a	650.0	0.0	ITI
98757	500.0	n/a	-1	-1	500	0.0	fixation	poldrack-single-stim	437	1317241	0.0-19.21-0.21	beast_fmri_test	278	1317037,/	t	<div class = centerbox2><div class = fixation>+</div></div>	none	500.0	test	n/a	n/a	n/a	n/a	n/a	n/a	n/a	n/a	n/a	n/a	n/a	n/a	n/a	n/a	n/a	n/a	n/a	n/a	fixation
98224.10099971015	2750.0	n/a	1127	89	2750	536.89900029	stim	stop-signal	438	1319995	0.0-19.21-1.21	beast_fmri_test	278	1317716,/,1318395,/,1319077,/,1319756,/,1320436,/	t,t,t,t,t	<img class = center src='/static/experiments/beast_fmri_test/images/T.png'></img>	71,89	2750.0	test	<img class = center src='/static/experiments/beast_fmri_test/images/redT.png'></img>	go	2150.0	2.0	21.0	go	non-target	T	71,Index Finger	89,Middle Finger	650.0	600.0	2100.0	2150.0	1.0	n/a	600.0	1.0	go_stim
100974.10099971015	536.89900029	n/a	1127	89	2750	536.89900029	stim	stop-signal	438	1319995	0.0-19.21-1.21	beast_fmri_test	278	1317716,/,1318395,/,1319077,/,1319756,/,1320436,/	t,t,t,t,t	<img class = center src='/static/experiments/beast_fmri_test/images/T.png'></img>	71,89	2750.0	test	<img class = center src='/static/experiments/beast_fmri_test/images/redT.png'></img>	go	2150.0	2.0	21.0	go	non-target	T	71,Index Finger	89,Middle Finger	650.0	600.0	2100.0	2150.0	1.0	n/a	600.0	1.0	ITI
102597	500.0	n/a	-1	-1	500	0.0	fixation	poldrack-single-stim	439	1321081	0.0-19.22-0.22	beast_fmri_test	278	n/a	n/a	<div class = centerbox2><div class = fixation>+</div></div>	none	500.0	test	n/a	n/a	n/a	n/a	n/a	n/a	n/a	n/a	n/a	n/a	n/a	n/a	n/a	n/a	n/a	n/a	n/a	n/a	fixation
98526.80745354481	2750.0	n/a	1204	89	2750	4068.19254646	stim	stop-signal	440	1323829	0.0-19.22-1.22	beast_fmri_test	278	1321115,/,1321796,/,1322475,/,1323152,/,1323831,/,1324511,/,1325191,/,1325872,/,1326552,/,1327231,/	t,t,t,t,t,t,t,t,t,t	<img class = center src='/static/experiments/beast_fmri_test/images/V.png'></img>	71,89	2750.0	test	<img class = center src='/static/experiments/beast_fmri_test/images/redV.png'></img>	go	2150.0	2.0	22.0	go	non-target	V	71,Index Finger	89,Middle Finger	650.0	600.0	2100.0	2150.0	1.0	n/a	600.0	1.0	go_stim
101276.80745354481	4068.19254646	n/a	1204	89	2750	4068.19254646	stim	stop-signal	440	1323829	0.0-19.22-1.22	beast_fmri_test	278	1321115,/,1321796,/,1322475,/,1323152,/,1323831,/,1324511,/,1325191,/,1325872,/,1326552,/,1327231,/	t,t,t,t,t,t,t,t,t,t	<img class = center src='/static/experiments/beast_fmri_test/images/V.png'></img>	71,89	2750.0	test	<img class = center src='/static/experiments/beast_fmri_test/images/redV.png'></img>	go	2150.0	2.0	22.0	go	non-target	V	71,Index Finger	89,Middle Finger	650.0	600.0	2100.0	2150.0	1.0	n/a	600.0	1.0	ITI
109961	500.0	n/a	-1	-1	500	0.0	fixation	poldrack-single-stim	441	1328445	0.0-19.23-0.23	beast_fmri_test	278	1327944,/	t	<div class = centerbox2><div class = fixation>+</div></div>	none	500.0	test	n/a	n/a	n/a	n/a	n/a	n/a	n/a	n/a	n/a	n/a	n/a	n/a	n/a	n/a	n/a	n/a	n/a	n/a	fixation
109357.97078733053	2750.0	n/a	706	71	2750	606.029212669	stim	stop-signal	442	1331198	0.0-19.23-1.23	beast_fmri_test	278	1328592,/,1329271,/,1329951,/,1330631,/,1331311,/	t,t,t,t,t	<img class = center src='/static/experiments/beast_fmri_test/images/T.png'></img>	71,89	2750.0	test	<img class = center src='/static/experiments/beast_fmri_test/images/redT.png'></img>	go	2100.0	2.0	23.0	go	target	T	71,Index Finger	89,Middle Finger	650.0	600.0	2100.0	2150.0	1.0	n/a	650.0	1.0	go_stim
112107.97078733053	606.029212669	n/a	706	71	2750	606.029212669	stim	stop-signal	442	1331198	0.0-19.23-1.23	beast_fmri_test	278	1328592,/,1329271,/,1329951,/,1330631,/,1331311,/	t,t,t,t,t	<img class = center src='/static/experiments/beast_fmri_test/images/T.png'></img>	71,89	2750.0	test	<img class = center src='/static/experiments/beast_fmri_test/images/redT.png'></img>	go	2100.0	2.0	23.0	go	target	T	71,Index Finger	89,Middle Finger	650.0	600.0	2100.0	2150.0	1.0	n/a	650.0	1.0	ITI
113865	500.0	n/a	-1	-1	500	0.0	fixation	poldrack-single-stim	443	1332349	0.0-19.24-0.24	beast_fmri_test	278	1331991,/	t	<div class = centerbox2><div class = fixation>+</div></div>	none	500.0	test	n/a	n/a	n/a	n/a	n/a	n/a	n/a	n/a	n/a	n/a	n/a	n/a	n/a	n/a	n/a	n/a	n/a	n/a	fixation
112931.51722085848	600.0	n/a	-1	-1	2750	931.482779142	stim	stop-signal	444	1335097	0.0-19.24-1.24	beast_fmri_test	278	1332670,/,1333349,/,1334027,/,1334707,/,1335386,/	t,t,t,t,t	<img class = center src='/static/experiments/beast_fmri_test/images/B.png'></img>	71,89	2750.0	test	<img class = center src='/static/experiments/beast_fmri_test/images/redB.png'></img>	stop	2150.0	2.0	24.0	stop	non-target	B	71,Index Finger	89,Middle Finger	650.0	600.0	2100.0	2150.0	0.0	1.0	600.0	n/a	go_stim
115081.51722085848	2150.0	n/a	-1	-1	2750	931.482779142	stim	stop-signal	444	1335097	0.0-19.24-1.24	beast_fmri_test	278	1332670,/,1333349,/,1334027,/,1334707,/,1335386,/	t,t,t,t,t	<img class = center src='/static/experiments/beast_fmri_test/images/B.png'></img>	71,89	2750.0	test	<img class = center src='/static/experiments/beast_fmri_test/images/redB.png'></img>	stop	2150.0	2.0	24.0	stop	non-target	B	71,Index Finger	89,Middle Finger	650.0	600.0	2100.0	2150.0	0.0	1.0	600.0	n/a	stop_stim
115681.51722085848	931.482779142	n/a	-1	-1	2750	931.482779142	stim	stop-signal	444	1335097	0.0-19.24-1.24	beast_fmri_test	278	1332670,/,1333349,/,1334027,/,1334707,/,1335386,/	t,t,t,t,t	<img class = center src='/static/experiments/beast_fmri_test/images/B.png'></img>	71,89	2750.0	test	<img class = center src='/static/experiments/beast_fmri_test/images/redB.png'></img>	stop	2150.0	2.0	24.0	stop	non-target	B	71,Index Finger	89,Middle Finger	650.0	600.0	2100.0	2150.0	0.0	1.0	600.0	n/a	ITI
118092	500.0	n/a	-1	-1	500	0.0	fixation	poldrack-single-stim	445	1336576	0.0-19.25-0.25	beast_fmri_test	278	1336074,/	t	<div class = centerbox2><div class = fixation>+</div></div>	none	500.0	test	n/a	n/a	n/a	n/a	n/a	n/a	n/a	n/a	n/a	n/a	n/a	n/a	n/a	n/a	n/a	n/a	n/a	n/a	fixation
116984.31622226886	2750.0	n/a	900	89	2750	1110.68377773	stim	stop-signal	446	1339329	0.0-19.25-1.25	beast_fmri_test	278	1336747,/,1337427,/,1338108,/,1338788,/,1339468,/,1340147,/	t,t,t,t,t,t	<img class = center src='/static/experiments/beast_fmri_test/images/T.png'></img>	71,89	2750.0	test	<img class = center src='/static/experiments/beast_fmri_test/images/redT.png'></img>	go	2100.0	2.0	25.0	go	target	T	71,Index Finger	89,Middle Finger	650.0	650.0	2100.0	2150.0	0.0	n/a	650.0	0.0	go_stim
119734.31622226886	1110.68377773	n/a	900	89	2750	1110.68377773	stim	stop-signal	446	1339329	0.0-19.25-1.25	beast_fmri_test	278	1336747,/,1337427,/,1338108,/,1338788,/,1339468,/,1340147,/	t,t,t,t,t,t	<img class = center src='/static/experiments/beast_fmri_test/images/T.png'></img>	71,89	2750.0	test	<img class = center src='/static/experiments/beast_fmri_test/images/redT.png'></img>	go	2100.0	2.0	25.0	go	target	T	71,Index Finger	89,Middle Finger	650.0	650.0	2100.0	2150.0	0.0	n/a	650.0	0.0	ITI
122503	500.0	n/a	-1	-1	500	0.0	fixation	poldrack-single-stim	447	1340987	0.0-19.26-0.26	beast_fmri_test	278	1340827,/	t	<div class = centerbox2><div class = fixation>+</div></div>	none	500.0	test	n/a	n/a	n/a	n/a	n/a	n/a	n/a	n/a	n/a	n/a	n/a	n/a	n/a	n/a	n/a	n/a	n/a	n/a	fixation
121771.03466749075	2750.0	n/a	706	89	2750	730.965332509	stim	stop-signal	448	1343736	0.0-19.26-1.26	beast_fmri_test	278	1341507,/,1342187,/,1342864,/,1343542,/,1344223,/	t,t,t,t,t	<img class = center src='/static/experiments/beast_fmri_test/images/P.png'></img>	71,89	2750.0	test	<img class = center src='/static/experiments/beast_fmri_test/images/redP.png'></img>	go	2100.0	2.0	26.0	go	non-target	P	71,Index Finger	89,Middle Finger	650.0	650.0	2100.0	2100.0	1.0	n/a	650.0	1.0	go_stim
124521.03466749075	730.965332509	n/a	706	89	2750	730.965332509	stim	stop-signal	448	1343736	0.0-19.26-1.26	beast_fmri_test	278	1341507,/,1342187,/,1342864,/,1343542,/,1344223,/	t,t,t,t,t	<img class = center src='/static/experiments/beast_fmri_test/images/P.png'></img>	71,89	2750.0	test	<img class = center src='/static/experiments/beast_fmri_test/images/redP.png'></img>	go	2100.0	2.0	26.0	go	non-target	P	71,Index Finger	89,Middle Finger	650.0	650.0	2100.0	2100.0	1.0	n/a	650.0	1.0	ITI
126532	500.0	n/a	-1	-1	500	0.0	fixation	poldrack-single-stim	449	1345016	0.0-19.27-0.27	beast_fmri_test	278	1344902,/	t	<div class = centerbox2><div class = fixation>+</div></div>	none	500.0	test	n/a	n/a	n/a	n/a	n/a	n/a	n/a	n/a	n/a	n/a	n/a	n/a	n/a	n/a	n/a	n/a	n/a	n/a	fixation
125717.33113650046	650.0	n/a	855	71	2750	817.668863499	stim	stop-signal	450	1347769	0.0-19.27-1.27	beast_fmri_test	278	1345582,/,1346261,/,1346943,/,1347622,/,1348301,/	t,t,t,t,t	<img class = center src='/static/experiments/beast_fmri_test/images/T.png'></img>	71,89	2750.0	test	<img class = center src='/static/experiments/beast_fmri_test/images/redT.png'></img>	stop	2100.0	2.0	27.0	stop	target	T	71,Index Finger	89,Middle Finger	650.0	650.0	2100.0	2100.0	0.0	0.0	650.0	n/a	go_stim
127817.33113650046	2100.0	n/a	855	71	2750	817.668863499	stim	stop-signal	450	1347769	0.0-19.27-1.27	beast_fmri_test	278	1345582,/,1346261,/,1346943,/,1347622,/,1348301,/	t,t,t,t,t	<img class = center src='/static/experiments/beast_fmri_test/images/T.png'></img>	71,89	2750.0	test	<img class = center src='/static/experiments/beast_fmri_test/images/redT.png'></img>	stop	2100.0	2.0	27.0	stop	target	T	71,Index Finger	89,Middle Finger	650.0	650.0	2100.0	2100.0	0.0	0.0	650.0	n/a	stop_stim
128467.33113650046	817.668863499	n/a	855	71	2750	817.668863499	stim	stop-signal	450	1347769	0.0-19.27-1.27	beast_fmri_test	278	1345582,/,1346261,/,1346943,/,1347622,/,1348301,/	t,t,t,t,t	<img class = center src='/static/experiments/beast_fmri_test/images/T.png'></img>	71,89	2750.0	test	<img class = center src='/static/experiments/beast_fmri_test/images/redT.png'></img>	stop	2100.0	2.0	27.0	stop	target	T	71,Index Finger	89,Middle Finger	650.0	650.0	2100.0	2100.0	0.0	0.0	650.0	n/a	ITI
130652	500.0	n/a	-1	-1	500	0.0	fixation	poldrack-single-stim	451	1349136	0.0-19.28-0.28	beast_fmri_test	278	1348983,/	t	<div class = centerbox2><div class = fixation>+</div></div>	none	500.0	test	n/a	n/a	n/a	n/a	n/a	n/a	n/a	n/a	n/a	n/a	n/a	n/a	n/a	n/a	n/a	n/a	n/a	n/a	fixation
128862.07293414767	650.0	n/a	659	89	2750	1793.92706585	stim	stop-signal	452	1351890	0.0-19.28-1.28	beast_fmri_test	278	1349662,/,1350341,/,1351021,/,1351702,/,1352383,/,1353060,/	t,t,t,t,t,t	<img class = center src='/static/experiments/beast_fmri_test/images/T.png'></img>	71,89	2750.0	test	<img class = center src='/static/experiments/beast_fmri_test/images/redT.png'></img>	stop	2100.0	2.0	28.0	stop	non-target	T	71,Index Finger	89,Middle Finger	600.0	650.0	2100.0	2100.0	0.0	0.0	650.0	n/a	go_stim
130962.07293414767	2100.0	n/a	659	89	2750	1793.92706585	stim	stop-signal	452	1351890	0.0-19.28-1.28	beast_fmri_test	278	1349662,/,1350341,/,1351021,/,1351702,/,1352383,/,1353060,/	t,t,t,t,t,t	<img class = center src='/static/experiments/beast_fmri_test/images/T.png'></img>	71,89	2750.0	test	<img class = center src='/static/experiments/beast_fmri_test/images/redT.png'></img>	stop	2100.0	2.0	28.0	stop	non-target	T	71,Index Finger	89,Middle Finger	600.0	650.0	2100.0	2100.0	0.0	0.0	650.0	n/a	stop_stim
131612.07293414767	1793.92706585	n/a	659	89	2750	1793.92706585	stim	stop-signal	452	1351890	0.0-19.28-1.28	beast_fmri_test	278	1349662,/,1350341,/,1351021,/,1351702,/,1352383,/,1353060,/	t,t,t,t,t,t	<img class = center src='/static/experiments/beast_fmri_test/images/T.png'></img>	71,89	2750.0	test	<img class = center src='/static/experiments/beast_fmri_test/images/redT.png'></img>	stop	2100.0	2.0	28.0	stop	non-target	T	71,Index Finger	89,Middle Finger	600.0	650.0	2100.0	2100.0	0.0	0.0	650.0	n/a	ITI
135740	500.0	n/a	-1	-1	500	0.0	fixation	poldrack-single-stim	453	1354224	0.0-19.29-0.29	beast_fmri_test	278	1353737,/	t	<div class = centerbox2><div class = fixation>+</div></div>	none	500.0	test	n/a	n/a	n/a	n/a	n/a	n/a	n/a	n/a	n/a	n/a	n/a	n/a	n/a	n/a	n/a	n/a	n/a	n/a	fixation
134782.51231052191	2750.0	n/a	998	89	2750	959.487689478	stim	stop-signal	454	1356976	0.0-19.29-1.29	beast_fmri_test	278	1354418,/,1355097,/,1355776,/,1356457,/,1357136,/,1357818,/	t,t,t,t,t,t	<img class = center src='/static/experiments/beast_fmri_test/images/V.png'></img>	71,89	2750.0	test	<img class = center src='/static/experiments/beast_fmri_test/images/redV.png'></img>	go	2150.0	2.0	29.0	go	non-target	V	71,Index Finger	89,Middle Finger	600.0	600.0	2100.0	2150.0	1.0	n/a	600.0	1.0	go_stim
137532.51231052191	959.487689478	n/a	998	89	2750	959.487689478	stim	stop-signal	454	1356976	0.0-19.29-1.29	beast_fmri_test	278	1354418,/,1355097,/,1355776,/,1356457,/,1357136,/,1357818,/	t,t,t,t,t,t	<img class = center src='/static/experiments/beast_fmri_test/images/V.png'></img>	71,89	2750.0	test	<img class = center src='/static/experiments/beast_fmri_test/images/redV.png'></img>	go	2150.0	2.0	29.0	go	non-target	V	71,Index Finger	89,Middle Finger	600.0	600.0	2100.0	2150.0	1.0	n/a	600.0	1.0	ITI
140000	500.0	n/a	-1	-1	500	0.0	fixation	poldrack-single-stim	455	1358484	0.0-19.30-0.30	beast_fmri_test	278	n/a	n/a	<div class = centerbox2><div class = fixation>+</div></div>	none	500.0	test	n/a	n/a	n/a	n/a	n/a	n/a	n/a	n/a	n/a	n/a	n/a	n/a	n/a	n/a	n/a	n/a	n/a	n/a	fixation
139734.53448767052	2750.0	n/a	1377	89	2750	268.465512329	stim	stop-signal	456	1361237	0.0-19.30-1.30	beast_fmri_test	278	1358497,/,1359177,/,1359856,/,1360537,/,1361219,/	t,t,t,t,t	<img class = center src='/static/experiments/beast_fmri_test/images/D.png'></img>	71,89	2750.0	test	<img class = center src='/static/experiments/beast_fmri_test/images/redD.png'></img>	go	2150.0	2.0	30.0	go	non-target	D	71,Index Finger	89,Middle Finger	600.0	600.0	2100.0	2150.0	1.0	n/a	600.0	1.0	go_stim
142484.53448767052	268.465512329	n/a	1377	89	2750	268.465512329	stim	stop-signal	456	1361237	0.0-19.30-1.30	beast_fmri_test	278	1358497,/,1359177,/,1359856,/,1360537,/,1361219,/	t,t,t,t,t	<img class = center src='/static/experiments/beast_fmri_test/images/D.png'></img>	71,89	2750.0	test	<img class = center src='/static/experiments/beast_fmri_test/images/redD.png'></img>	go	2150.0	2.0	30.0	go	non-target	D	71,Index Finger	89,Middle Finger	600.0	600.0	2100.0	2150.0	1.0	n/a	600.0	1.0	ITI
143571	500.0	n/a	-1	-1	500	0.0	fixation	poldrack-single-stim	457	1362055	0.0-19.31-0.31	beast_fmri_test	278	1361897,/	t	<div class = centerbox2><div class = fixation>+</div></div>	none	500.0	test	n/a	n/a	n/a	n/a	n/a	n/a	n/a	n/a	n/a	n/a	n/a	n/a	n/a	n/a	n/a	n/a	n/a	n/a	fixation
142549.19261842035	600.0	n/a	-1	-1	2750	1018.80738158	stim	stop-signal	458	1364802	0.0-19.31-1.31	beast_fmri_test	278	1362577,/,1363255,/,1363933,/,1364614,/,1365292,/	t,t,t,t,t	<img class = center src='/static/experiments/beast_fmri_test/images/P.png'></img>	71,89	2750.0	test	<img class = center src='/static/experiments/beast_fmri_test/images/redP.png'></img>	stop	2150.0	2.0	31.0	stop	non-target	P	71,Index Finger	89,Middle Finger	600.0	600.0	2100.0	2150.0	0.0	1.0	600.0	n/a	go_stim
144699.19261842035	2150.0	n/a	-1	-1	2750	1018.80738158	stim	stop-signal	458	1364802	0.0-19.31-1.31	beast_fmri_test	278	1362577,/,1363255,/,1363933,/,1364614,/,1365292,/	t,t,t,t,t	<img class = center src='/static/experiments/beast_fmri_test/images/P.png'></img>	71,89	2750.0	test	<img class = center src='/static/experiments/beast_fmri_test/images/redP.png'></img>	stop	2150.0	2.0	31.0	stop	non-target	P	71,Index Finger	89,Middle Finger	600.0	600.0	2100.0	2150.0	0.0	1.0	600.0	n/a	stop_stim
145299.19261842035	1018.80738158	n/a	-1	-1	2750	1018.80738158	stim	stop-signal	458	1364802	0.0-19.31-1.31	beast_fmri_test	278	1362577,/,1363255,/,1363933,/,1364614,/,1365292,/	t,t,t,t,t	<img class = center src='/static/experiments/beast_fmri_test/images/P.png'></img>	71,89	2750.0	test	<img class = center src='/static/experiments/beast_fmri_test/images/redP.png'></img>	stop	2150.0	2.0	31.0	stop	non-target	P	71,Index Finger	89,Middle Finger	600.0	600.0	2100.0	2150.0	0.0	1.0	600.0	n/a	ITI
147883	500.0	n/a	-1	-1	500	0.0	fixation	poldrack-single-stim	459	1366367	0.0-19.32-0.32	beast_fmri_test	278	1365974,/	t	<div class = centerbox2><div class = fixation>+</div></div>	none	500.0	test	n/a	n/a	n/a	n/a	n/a	n/a	n/a	n/a	n/a	n/a	n/a	n/a	n/a	n/a	n/a	n/a	n/a	n/a	fixation
143992.04862935236	650.0	n/a	680	89	2750	3894.95137065	stim	stop-signal	460	1369121	0.0-19.32-1.32	beast_fmri_test	278	1366654,/,1367334,/,1368014,/,1368694,/,1369373,/,1370053,/,1370734,/,1371413,/,1372092,/,1372772,/	t,t,t,t,t,t,t,t,t,t	<img class = center src='/static/experiments/beast_fmri_test/images/T.png'></img>	71,89	2750.0	test	<img class = center src='/static/experiments/beast_fmri_test/images/redT.png'></img>	stop	2100.0	2.0	32.0	stop	non-target	T	71,Index Finger	89,Middle Finger	600.0	650.0	2100.0	2100.0	0.0	0.0	650.0	n/a	go_stim
146092.04862935236	2100.0	n/a	680	89	2750	3894.95137065	stim	stop-signal	460	1369121	0.0-19.32-1.32	beast_fmri_test	278	1366654,/,1367334,/,1368014,/,1368694,/,1369373,/,1370053,/,1370734,/,1371413,/,1372092,/,1372772,/	t,t,t,t,t,t,t,t,t,t	<img class = center src='/static/experiments/beast_fmri_test/images/T.png'></img>	71,89	2750.0	test	<img class = center src='/static/experiments/beast_fmri_test/images/redT.png'></img>	stop	2100.0	2.0	32.0	stop	non-target	T	71,Index Finger	89,Middle Finger	600.0	650.0	2100.0	2100.0	0.0	0.0	650.0	n/a	stop_stim
146742.04862935236	3894.95137065	n/a	680	89	2750	3894.95137065	stim	stop-signal	460	1369121	0.0-19.32-1.32	beast_fmri_test	278	1366654,/,1367334,/,1368014,/,1368694,/,1369373,/,1370053,/,1370734,/,1371413,/,1372092,/,1372772,/	t,t,t,t,t,t,t,t,t,t	<img class = center src='/static/experiments/beast_fmri_test/images/T.png'></img>	71,89	2750.0	test	<img class = center src='/static/experiments/beast_fmri_test/images/redT.png'></img>	stop	2100.0	2.0	32.0	stop	non-target	T	71,Index Finger	89,Middle Finger	600.0	650.0	2100.0	2100.0	0.0	0.0	650.0	n/a	ITI
155078	500.0	n/a	-1	-1	500	0.0	fixation	poldrack-single-stim	461	1373562	0.0-19.33-0.33	beast_fmri_test	278	1373448,/	t	<div class = centerbox2><div class = fixation>+</div></div>	none	500.0	test	n/a	n/a	n/a	n/a	n/a	n/a	n/a	n/a	n/a	n/a	n/a	n/a	n/a	n/a	n/a	n/a	n/a	n/a	fixation
154921.50788442232	2750.0	n/a	757	89	2750	158.492115578	stim	stop-signal	462	1376314	0.0-19.33-1.33	beast_fmri_test	278	1374129,/,1374808,/,1375489,/,1376168,/	t,t,t,t	<img class = center src='/static/experiments/beast_fmri_test/images/P.png'></img>	71,89	2750.0	test	<img class = center src='/static/experiments/beast_fmri_test/images/redP.png'></img>	go	2150.0	2.0	33.0	go	target	P	71,Index Finger	89,Middle Finger	600.0	600.0	2150.0	2100.0	0.0	n/a	600.0	0.0	go_stim
157671.50788442232	158.492115578	n/a	757	89	2750	158.492115578	stim	stop-signal	462	1376314	0.0-19.33-1.33	beast_fmri_test	278	1374129,/,1374808,/,1375489,/,1376168,/	t,t,t,t	<img class = center src='/static/experiments/beast_fmri_test/images/P.png'></img>	71,89	2750.0	test	<img class = center src='/static/experiments/beast_fmri_test/images/redP.png'></img>	go	2150.0	2.0	33.0	go	target	P	71,Index Finger	89,Middle Finger	600.0	600.0	2150.0	2100.0	0.0	n/a	600.0	0.0	ITI
158538	500.0	n/a	-1	-1	500	0.0	fixation	poldrack-single-stim	463	1377022	0.0-19.34-0.34	beast_fmri_test	278	1376848,/	t	<div class = centerbox2><div class = fixation>+</div></div>	none	500.0	test	n/a	n/a	n/a	n/a	n/a	n/a	n/a	n/a	n/a	n/a	n/a	n/a	n/a	n/a	n/a	n/a	n/a	n/a	fixation
157674.92447997071	600.0	n/a	-1	-1	2750	865.075520029	stim	stop-signal	464	1379774	0.0-19.34-1.34	beast_fmri_test	278	1377529,/,1378208,/,1378887,/,1379569,/,1380249,/	t,t,t,t,t	<img class = center src='/static/experiments/beast_fmri_test/images/D.png'></img>	71,89	2750.0	test	<img class = center src='/static/experiments/beast_fmri_test/images/redD.png'></img>	stop	2150.0	2.0	34.0	stop	non-target	D	71,Index Finger	89,Middle Finger	600.0	600.0	2150.0	2150.0	0.0	1.0	600.0	n/a	go_stim
159824.92447997071	2150.0	n/a	-1	-1	2750	865.075520029	stim	stop-signal	464	1379774	0.0-19.34-1.34	beast_fmri_test	278	1377529,/,1378208,/,1378887,/,1379569,/,1380249,/	t,t,t,t,t	<img class = center src='/static/experiments/beast_fmri_test/images/D.png'></img>	71,89	2750.0	test	<img class = center src='/static/experiments/beast_fmri_test/images/redD.png'></img>	stop	2150.0	2.0	34.0	stop	non-target	D	71,Index Finger	89,Middle Finger	600.0	600.0	2150.0	2150.0	0.0	1.0	600.0	n/a	stop_stim
160424.92447997071	865.075520029	n/a	-1	-1	2750	865.075520029	stim	stop-signal	464	1379774	0.0-19.34-1.34	beast_fmri_test	278	1377529,/,1378208,/,1378887,/,1379569,/,1380249,/	t,t,t,t,t	<img class = center src='/static/experiments/beast_fmri_test/images/D.png'></img>	71,89	2750.0	test	<img class = center src='/static/experiments/beast_fmri_test/images/redD.png'></img>	stop	2150.0	2.0	34.0	stop	non-target	D	71,Index Finger	89,Middle Finger	600.0	600.0	2150.0	2150.0	0.0	1.0	600.0	n/a	ITI
162703	500.0	n/a	-1	-1	500	0.0	fixation	poldrack-single-stim	465	1381187	0.0-19.35-0.35	beast_fmri_test	278	1380928,/	t	<div class = centerbox2><div class = fixation>+</div></div>	none	500.0	test	n/a	n/a	n/a	n/a	n/a	n/a	n/a	n/a	n/a	n/a	n/a	n/a	n/a	n/a	n/a	n/a	n/a	n/a	fixation
162450.26995722135	2750.0	n/a	653	89	2750	250.730042779	stim	stop-signal	466	1383935	0.0-19.35-1.35	beast_fmri_test	278	1381609,/,1382289,/,1382965,/,1383643,/	t,t,t,t	<img class = center src='/static/experiments/beast_fmri_test/images/V.png'></img>	71,89	2750.0	test	<img class = center src='/static/experiments/beast_fmri_test/images/redV.png'></img>	go	2100.0	2.0	35.0	go	non-target	V	71,Index Finger	89,Middle Finger	600.0	650.0	2150.0	2100.0	1.0	n/a	650.0	1.0	go_stim
165200.26995722135	250.730042779	n/a	653	89	2750	250.730042779	stim	stop-signal	466	1383935	0.0-19.35-1.35	beast_fmri_test	278	1381609,/,1382289,/,1382965,/,1383643,/	t,t,t,t	<img class = center src='/static/experiments/beast_fmri_test/images/V.png'></img>	71,89	2750.0	test	<img class = center src='/static/experiments/beast_fmri_test/images/redV.png'></img>	go	2100.0	2.0	35.0	go	non-target	V	71,Index Finger	89,Middle Finger	600.0	650.0	2150.0	2100.0	1.0	n/a	650.0	1.0	ITI
166251	500.0	n/a	-1	-1	500	0.0	fixation	poldrack-single-stim	467	1384735	0.0-19.36-0.36	beast_fmri_test	278	1384324,/	t	<div class = centerbox2><div class = fixation>+</div></div>	none	500.0	test	n/a	n/a	n/a	n/a	n/a	n/a	n/a	n/a	n/a	n/a	n/a	n/a	n/a	n/a	n/a	n/a	n/a	n/a	fixation
166060.97518192627	2750.0	n/a	923	71	2750	194.024818074	stim	stop-signal	468	1387489	0.0-19.36-1.36	beast_fmri_test	278	1385004,/,1385682,/,1386363,/,1387044,/	t,t,t,t	<img class = center src='/static/experiments/beast_fmri_test/images/V.png'></img>	71,89	2750.0	test	<img class = center src='/static/experiments/beast_fmri_test/images/redV.png'></img>	go	2100.0	2.0	36.0	go	non-target	V	71,Index Finger	89,Middle Finger	600.0	650.0	2150.0	2100.0	0.0	n/a	650.0	0.0	go_stim
168810.97518192627	194.024818074	n/a	923	71	2750	194.024818074	stim	stop-signal	468	1387489	0.0-19.36-1.36	beast_fmri_test	278	1385004,/,1385682,/,1386363,/,1387044,/	t,t,t,t	<img class = center src='/static/experiments/beast_fmri_test/images/V.png'></img>	71,89	2750.0	test	<img class = center src='/static/experiments/beast_fmri_test/images/redV.png'></img>	go	2100.0	2.0	36.0	go	non-target	V	71,Index Finger	89,Middle Finger	600.0	650.0	2150.0	2100.0	0.0	n/a	650.0	0.0	ITI
169750	500.0	n/a	-1	-1	500	0.0	fixation	poldrack-single-stim	469	1388234	0.0-19.37-0.37	beast_fmri_test	278	1387733,/	t	<div class = centerbox2><div class = fixation>+</div></div>	none	500.0	test	n/a	n/a	n/a	n/a	n/a	n/a	n/a	n/a	n/a	n/a	n/a	n/a	n/a	n/a	n/a	n/a	n/a	n/a	fixation
169291.56362136058	650.0	n/a	666	89	2750	461.436378639	stim	stop-signal	470	1390987	0.0-19.37-1.37	beast_fmri_test	278	1388403,/,1389085,/,1389762,/,1390444,/,1391124,/	t,t,t,t,t	<img class = center src='/static/experiments/beast_fmri_test/images/D.png'></img>	71,89	2750.0	test	<img class = center src='/static/experiments/beast_fmri_test/images/redD.png'></img>	stop	2100.0	2.0	37.0	stop	non-target	D	71,Index Finger	89,Middle Finger	600.0	650.0	2150.0	2100.0	0.0	0.0	650.0	n/a	go_stim
171391.56362136058	2100.0	n/a	666	89	2750	461.436378639	stim	stop-signal	470	1390987	0.0-19.37-1.37	beast_fmri_test	278	1388403,/,1389085,/,1389762,/,1390444,/,1391124,/	t,t,t,t,t	<img class = center src='/static/experiments/beast_fmri_test/images/D.png'></img>	71,89	2750.0	test	<img class = center src='/static/experiments/beast_fmri_test/images/redD.png'></img>	stop	2100.0	2.0	37.0	stop	non-target	D	71,Index Finger	89,Middle Finger	600.0	650.0	2150.0	2100.0	0.0	0.0	650.0	n/a	stop_stim
172041.56362136058	461.436378639	n/a	666	89	2750	461.436378639	stim	stop-signal	470	1390987	0.0-19.37-1.37	beast_fmri_test	278	1388403,/,1389085,/,1389762,/,1390444,/,1391124,/	t,t,t,t,t	<img class = center src='/static/experiments/beast_fmri_test/images/D.png'></img>	71,89	2750.0	test	<img class = center src='/static/experiments/beast_fmri_test/images/redD.png'></img>	stop	2100.0	2.0	37.0	stop	non-target	D	71,Index Finger	89,Middle Finger	600.0	650.0	2150.0	2100.0	0.0	0.0	650.0	n/a	ITI
173518	500.0	n/a	-1	-1	500	0.0	fixation	poldrack-single-stim	471	1392002	0.0-19.38-0.38	beast_fmri_test	278	1391806,/	t	<div class = centerbox2><div class = fixation>+</div></div>	none	500.0	test	n/a	n/a	n/a	n/a	n/a	n/a	n/a	n/a	n/a	n/a	n/a	n/a	n/a	n/a	n/a	n/a	n/a	n/a	fixation
173220.46339572896	2750.0	n/a	869	89	2750	295.536604271	stim	stop-signal	472	1394750	0.0-19.38-1.38	beast_fmri_test	278	1392484,/,1393161,/,1393839,/,1394520,/	t,t,t,t	<img class = center src='/static/experiments/beast_fmri_test/images/T.png'></img>	71,89	2750.0	test	<img class = center src='/static/experiments/beast_fmri_test/images/redT.png'></img>	go	2150.0	2.0	38.0	go	non-target	T	71,Index Finger	89,Middle Finger	600.0	600.0	2150.0	2150.0	1.0	n/a	600.0	1.0	go_stim
175970.46339572896	295.536604271	n/a	869	89	2750	295.536604271	stim	stop-signal	472	1394750	0.0-19.38-1.38	beast_fmri_test	278	1392484,/,1393161,/,1393839,/,1394520,/	t,t,t,t	<img class = center src='/static/experiments/beast_fmri_test/images/T.png'></img>	71,89	2750.0	test	<img class = center src='/static/experiments/beast_fmri_test/images/redT.png'></img>	go	2150.0	2.0	38.0	go	non-target	T	71,Index Finger	89,Middle Finger	600.0	600.0	2150.0	2150.0	1.0	n/a	600.0	1.0	ITI
177110	500.0	n/a	-1	-1	500	0.0	fixation	poldrack-single-stim	473	1395594	0.0-19.39-0.39	beast_fmri_test	278	1395199,/	t	<div class = centerbox2><div class = fixation>+</div></div>	none	500.0	test	n/a	n/a	n/a	n/a	n/a	n/a	n/a	n/a	n/a	n/a	n/a	n/a	n/a	n/a	n/a	n/a	n/a	n/a	fixation
176829.17827313882	2750.0	n/a	611	71	2750	284.821726861	stim	stop-signal	474	1398348	0.0-19.39-1.39	beast_fmri_test	278	1395879,/,1396560,/,1397238,/,1397919,/,1398600,/	t,t,t,t,t	<img class = center src='/static/experiments/beast_fmri_test/images/D.png'></img>	71,89	2750.0	test	<img class = center src='/static/experiments/beast_fmri_test/images/redD.png'></img>	go	2150.0	2.0	39.0	go	target	D	71,Index Finger	89,Middle Finger	600.0	600.0	2150.0	2150.0	1.0	n/a	600.0	1.0	go_stim
179579.17827313882	284.821726861	n/a	611	71	2750	284.821726861	stim	stop-signal	474	1398348	0.0-19.39-1.39	beast_fmri_test	278	1395879,/,1396560,/,1397238,/,1397919,/,1398600,/	t,t,t,t,t	<img class = center src='/static/experiments/beast_fmri_test/images/D.png'></img>	71,89	2750.0	test	<img class = center src='/static/experiments/beast_fmri_test/images/redD.png'></img>	go	2150.0	2.0	39.0	go	target	D	71,Index Finger	89,Middle Finger	600.0	600.0	2150.0	2150.0	1.0	n/a	600.0	1.0	ITI
180695	500.0	n/a	-1	-1	500	0.0	fixation	poldrack-single-stim	475	1399179	0.0-19.40-0.40	beast_fmri_test	278	n/a	n/a	<div class = centerbox2><div class = fixation>+</div></div>	none	500.0	test	n/a	n/a	n/a	n/a	n/a	n/a	n/a	n/a	n/a	n/a	n/a	n/a	n/a	n/a	n/a	n/a	n/a	n/a	fixation
180578.10958875017	2750.0	n/a	973	89	2750	120.89041125	stim	stop-signal	476	1401933	0.0-19.40-1.40	beast_fmri_test	278	1399279,/,1399959,/,1400639,/,1401319,/,1401999,/	t,t,t,t,t	<img class = center src='/static/experiments/beast_fmri_test/images/D.png'></img>	71,89	2750.0	test	<img class = center src='/static/experiments/beast_fmri_test/images/redD.png'></img>	go	2150.0	2.0	40.0	go	non-target	D	71,Index Finger	89,Middle Finger	600.0	600.0	2150.0	2150.0	1.0	n/a	600.0	1.0	go_stim
183328.10958875017	120.89041125	n/a	973	89	2750	120.89041125	stim	stop-signal	476	1401933	0.0-19.40-1.40	beast_fmri_test	278	1399279,/,1399959,/,1400639,/,1401319,/,1401999,/	t,t,t,t,t	<img class = center src='/static/experiments/beast_fmri_test/images/D.png'></img>	71,89	2750.0	test	<img class = center src='/static/experiments/beast_fmri_test/images/redD.png'></img>	go	2150.0	2.0	40.0	go	non-target	D	71,Index Finger	89,Middle Finger	600.0	600.0	2150.0	2150.0	1.0	n/a	600.0	1.0	ITI
184111	500.0	n/a	-1	-1	500	0.0	fixation	poldrack-single-stim	477	1402595	0.0-19.41-0.41	beast_fmri_test	278	n/a	n/a	<div class = centerbox2><div class = fixation>+</div></div>	none	500.0	test	n/a	n/a	n/a	n/a	n/a	n/a	n/a	n/a	n/a	n/a	n/a	n/a	n/a	n/a	n/a	n/a	n/a	n/a	fixation
183971.1018335924	2750.0	n/a	881	89	2750	138.898166408	stim	stop-signal	478	1405344	0.0-19.41-1.41	beast_fmri_test	278	1402678,/,1403356,/,1404035,/,1404715,/,1405394,/	t,t,t,t,t	<img class = center src='/static/experiments/beast_fmri_test/images/D.png'></img>	71,89	2750.0	test	<img class = center src='/static/experiments/beast_fmri_test/images/redD.png'></img>	go	2150.0	2.0	41.0	go	target	D	71,Index Finger	89,Middle Finger	600.0	600.0	2150.0	2150.0	0.0	n/a	600.0	0.0	go_stim
186721.1018335924	138.898166408	n/a	881	89	2750	138.898166408	stim	stop-signal	478	1405344	0.0-19.41-1.41	beast_fmri_test	278	1402678,/,1403356,/,1404035,/,1404715,/,1405394,/	t,t,t,t,t	<img class = center src='/static/experiments/beast_fmri_test/images/D.png'></img>	71,89	2750.0	test	<img class = center src='/static/experiments/beast_fmri_test/images/redD.png'></img>	go	2150.0	2.0	41.0	go	target	D	71,Index Finger	89,Middle Finger	600.0	600.0	2150.0	2150.0	0.0	n/a	600.0	0.0	ITI
187548	500.0	n/a	-1	-1	500	0.0	fixation	poldrack-single-stim	479	1406032	0.0-19.42-0.42	beast_fmri_test	278	n/a	n/a	<div class = centerbox2><div class = fixation>+</div></div>	none	500.0	test	n/a	n/a	n/a	n/a	n/a	n/a	n/a	n/a	n/a	n/a	n/a	n/a	n/a	n/a	n/a	n/a	n/a	n/a	fixation
186475.76176463789	2750.0	n/a	925	71	2750	1074.23823536	stim	stop-signal	480	1408784	0.0-19.42-1.42	beast_fmri_test	278	1406074,/,1406755,/,1407434,/,1408114,/,1408799,/,1409475,/	t,t,t,t,t,t	<img class = center src='/static/experiments/beast_fmri_test/images/B.png'></img>	71,89	2750.0	test	<img class = center src='/static/experiments/beast_fmri_test/images/redB.png'></img>	go	2150.0	2.0	42.0	go	non-target	B	71,Index Finger	89,Middle Finger	600.0	600.0	2150.0	2150.0	0.0	n/a	600.0	0.0	go_stim
189225.76176463789	1074.23823536	n/a	925	71	2750	1074.23823536	stim	stop-signal	480	1408784	0.0-19.42-1.42	beast_fmri_test	278	1406074,/,1406755,/,1407434,/,1408114,/,1408799,/,1409475,/	t,t,t,t,t,t	<img class = center src='/static/experiments/beast_fmri_test/images/B.png'></img>	71,89	2750.0	test	<img class = center src='/static/experiments/beast_fmri_test/images/redB.png'></img>	go	2150.0	2.0	42.0	go	non-target	B	71,Index Finger	89,Middle Finger	600.0	600.0	2150.0	2150.0	0.0	n/a	600.0	0.0	ITI
191922	500.0	n/a	-1	-1	500	0.0	fixation	poldrack-single-stim	481	1410406	0.0-19.43-0.43	beast_fmri_test	278	1410154,/	t	<div class = centerbox2><div class = fixation>+</div></div>	none	500.0	test	n/a	n/a	n/a	n/a	n/a	n/a	n/a	n/a	n/a	n/a	n/a	n/a	n/a	n/a	n/a	n/a	n/a	n/a	fixation
191818.19263157481	2750.0	n/a	971	89	2750	103.807368425	stim	stop-signal	482	1413156	0.0-19.43-1.43	beast_fmri_test	278	1410835,/,1411513,/,1412194,/,1412871,/	t,t,t,t	<img class = center src='/static/experiments/beast_fmri_test/images/B.png'></img>	71,89	2750.0	test	<img class = center src='/static/experiments/beast_fmri_test/images/redB.png'></img>	go	2150.0	2.0	43.0	go	non-target	B	71,Index Finger	89,Middle Finger	600.0	600.0	2150.0	2150.0	1.0	n/a	600.0	1.0	go_stim
194568.19263157481	103.807368425	n/a	971	89	2750	103.807368425	stim	stop-signal	482	1413156	0.0-19.43-1.43	beast_fmri_test	278	1410835,/,1411513,/,1412194,/,1412871,/	t,t,t,t	<img class = center src='/static/experiments/beast_fmri_test/images/B.png'></img>	71,89	2750.0	test	<img class = center src='/static/experiments/beast_fmri_test/images/redB.png'></img>	go	2150.0	2.0	43.0	go	non-target	B	71,Index Finger	89,Middle Finger	600.0	600.0	2150.0	2150.0	1.0	n/a	600.0	1.0	ITI
195322	500.0	n/a	-1	-1	500	0.0	fixation	poldrack-single-stim	483	1413806	0.0-19.44-0.44	beast_fmri_test	278	1413550,/	t	<div class = centerbox2><div class = fixation>+</div></div>	none	500.0	test	n/a	n/a	n/a	n/a	n/a	n/a	n/a	n/a	n/a	n/a	n/a	n/a	n/a	n/a	n/a	n/a	n/a	n/a	fixation
193966.29096231214	2750.0	n/a	1063	71	2750	1358.70903769	stim	stop-signal	484	1416559	0.0-19.44-1.44	beast_fmri_test	278	1414230,/,1414910,/,1415590,/,1416268,/,1416949,/,1417629,/	t,t,t,t,t,t	<img class = center src='/static/experiments/beast_fmri_test/images/B.png'></img>	71,89	2750.0	test	<img class = center src='/static/experiments/beast_fmri_test/images/redB.png'></img>	go	2150.0	2.0	44.0	go	target	B	71,Index Finger	89,Middle Finger	600.0	600.0	2150.0	2150.0	1.0	n/a	600.0	1.0	go_stim
196716.29096231214	1358.70903769	n/a	1063	71	2750	1358.70903769	stim	stop-signal	484	1416559	0.0-19.44-1.44	beast_fmri_test	278	1414230,/,1414910,/,1415590,/,1416268,/,1416949,/,1417629,/	t,t,t,t,t,t	<img class = center src='/static/experiments/beast_fmri_test/images/B.png'></img>	71,89	2750.0	test	<img class = center src='/static/experiments/beast_fmri_test/images/redB.png'></img>	go	2150.0	2.0	44.0	go	target	B	71,Index Finger	89,Middle Finger	600.0	600.0	2150.0	2150.0	1.0	n/a	600.0	1.0	ITI
199983	500.0	n/a	-1	-1	500	0.0	fixation	poldrack-single-stim	485	1418467	0.0-19.45-0.45	beast_fmri_test	278	1418310,/	t	<div class = centerbox2><div class = fixation>+</div></div>	none	500.0	test	n/a	n/a	n/a	n/a	n/a	n/a	n/a	n/a	n/a	n/a	n/a	n/a	n/a	n/a	n/a	n/a	n/a	n/a	fixation
199698.79394076415	2750.0	n/a	744	71	2750	286.206059236	stim	stop-signal	486	1421219	0.0-19.45-1.45	beast_fmri_test	278	1418990,/,1419669,/,1420350,/,1421030,/	t,t,t,t	<img class = center src='/static/experiments/beast_fmri_test/images/B.png'></img>	71,89	2750.0	test	<img class = center src='/static/experiments/beast_fmri_test/images/redB.png'></img>	go	2150.0	2.0	45.0	go	target	B	71,Index Finger	89,Middle Finger	600.0	600.0	2150.0	2150.0	1.0	n/a	600.0	1.0	go_stim
202448.79394076415	286.206059236	n/a	744	71	2750	286.206059236	stim	stop-signal	486	1421219	0.0-19.45-1.45	beast_fmri_test	278	1418990,/,1419669,/,1420350,/,1421030,/	t,t,t,t	<img class = center src='/static/experiments/beast_fmri_test/images/B.png'></img>	71,89	2750.0	test	<img class = center src='/static/experiments/beast_fmri_test/images/redB.png'></img>	go	2150.0	2.0	45.0	go	target	B	71,Index Finger	89,Middle Finger	600.0	600.0	2150.0	2150.0	1.0	n/a	600.0	1.0	ITI
203570	500.0	n/a	-1	-1	500	0.0	fixation	poldrack-single-stim	487	1422054	0.0-19.46-0.46	beast_fmri_test	278	1421710,/	t	<div class = centerbox2><div class = fixation>+</div></div>	none	500.0	test	n/a	n/a	n/a	n/a	n/a	n/a	n/a	n/a	n/a	n/a	n/a	n/a	n/a	n/a	n/a	n/a	n/a	n/a	fixation
202597.91745924484	600.0	n/a	545	71	2750	970.082540755	stim	stop-signal	488	1424802	0.0-19.46-1.46	beast_fmri_test	278	1422391,/,1423067,/,1423746,/,1424425,/,1425105,/	t,t,t,t,t	<img class = center src='/static/experiments/beast_fmri_test/images/B.png'></img>	71,89	2750.0	test	<img class = center src='/static/experiments/beast_fmri_test/images/redB.png'></img>	stop	2150.0	2.0	46.0	stop	target	B	71,Index Finger	89,Middle Finger	600.0	600.0	2150.0	2150.0	0.0	0.0	600.0	n/a	go_stim
204747.91745924484	2150.0	n/a	545	71	2750	970.082540755	stim	stop-signal	488	1424802	0.0-19.46-1.46	beast_fmri_test	278	1422391,/,1423067,/,1423746,/,1424425,/,1425105,/	t,t,t,t,t	<img class = center src='/static/experiments/beast_fmri_test/images/B.png'></img>	71,89	2750.0	test	<img class = center src='/static/experiments/beast_fmri_test/images/redB.png'></img>	stop	2150.0	2.0	46.0	stop	target	B	71,Index Finger	89,Middle Finger	600.0	600.0	2150.0	2150.0	0.0	0.0	600.0	n/a	stop_stim
205347.91745924484	970.082540755	n/a	545	71	2750	970.082540755	stim	stop-signal	488	1424802	0.0-19.46-1.46	beast_fmri_test	278	1422391,/,1423067,/,1423746,/,1424425,/,1425105,/	t,t,t,t,t	<img class = center src='/static/experiments/beast_fmri_test/images/B.png'></img>	71,89	2750.0	test	<img class = center src='/static/experiments/beast_fmri_test/images/redB.png'></img>	stop	2150.0	2.0	46.0	stop	target	B	71,Index Finger	89,Middle Finger	600.0	600.0	2150.0	2150.0	0.0	0.0	600.0	n/a	ITI
222335	15000.0	n/a	-1	-1	15000	0.0	practice-no-stop-feedback	poldrack-single-stim	489	1440819	0.0-20.0	beast_fmri_test	278	1425822,/,1426466,/,1427146,/,1427826,/,1428506,/,1429186,/,1429865,/,1430545,/,1431226,/,1431904,/,1432584,/,1433263,/,1433940,/,1434620,/,1435301,/,1435980,/,1436661,/,1437341,/,1438021,/,1438700,/,1439381,/,1440061,/,1440740,/	t,t,t,t,t,t,t,t,t,t,t,t,t,t,t,t,t,t,t,t,t,t,t	"<div class = ""centerbox""><p class = ""block-text"">Your delay is 1 trials.</p><p class = block-text>Please wait for the scanner to start the block</p></div>"	77	15000.0	n/a	n/a	n/a	n/a	n/a	n/a	n/a	n/a	n/a	n/a	n/a	n/a	n/a	n/a	n/a	n/a	n/a	n/a	n/a	practice-no-stop-feedback
222838	500.0	n/a	-1	-1	500	0.0	fixation	poldrack-single-stim	490	1441322	0.0-21.0-0.0	beast_fmri_test	278	n/a	n/a	<div class = centerbox2><div class = fixation>+</div></div>	none	500.0	test	n/a	n/a	n/a	n/a	n/a	n/a	n/a	n/a	n/a	n/a	n/a	n/a	n/a	n/a	n/a	n/a	n/a	n/a	fixation
222165.22091472452	2750.0	n/a	1085	89	2750	670.779085275	stim	stop-signal	491	1444070	0.0-21.0-1.0	beast_fmri_test	278	1441419,/,1442101,/,1442779,/,1443455,/,1444134,/	t,t,t,t,t	<img class = center src='/static/experiments/beast_fmri_test/images/T.png'></img>	71,89	2750.0	test	<img class = center src='/static/experiments/beast_fmri_test/images/redT.png'></img>	go	-1.0	1.0	0.0	go	temp-non-target	T	71,Index Finger	89,Middle Finger	550.0	600.0	2150.0	2150.0	0.0	n/a	n/a	n/a	go_stim
224915.22091472452	670.779085275	n/a	1085	89	2750	670.779085275	stim	stop-signal	491	1444070	0.0-21.0-1.0	beast_fmri_test	278	1441419,/,1442101,/,1442779,/,1443455,/,1444134,/	t,t,t,t,t	<img class = center src='/static/experiments/beast_fmri_test/images/T.png'></img>	71,89	2750.0	test	<img class = center src='/static/experiments/beast_fmri_test/images/redT.png'></img>	go	-1.0	1.0	0.0	go	temp-non-target	T	71,Index Finger	89,Middle Finger	550.0	600.0	2150.0	2150.0	0.0	n/a	n/a	n/a	ITI
226806	500.0	n/a	-1	-1	500	0.0	fixation	poldrack-single-stim	492	1445290	0.0-21.1-0.1	beast_fmri_test	278	1444814,/	t	<div class = centerbox2><div class = fixation>+</div></div>	none	500.0	test	n/a	n/a	n/a	n/a	n/a	n/a	n/a	n/a	n/a	n/a	n/a	n/a	n/a	n/a	n/a	n/a	n/a	n/a	fixation
222641.62606722605	600.0	n/a	589	89	2750	4167.37393277	stim	stop-signal	493	1448043	0.0-21.1-1.1	beast_fmri_test	278	1445496,/,1446175,/,1446856,/,1447536,/,1448216,/,1448895,/,1449577,/,1450256,/,1450937,/,1451617,/	t,t,t,t,t,t,t,t,t,t	<img class = center src='/static/experiments/beast_fmri_test/images/D.png'></img>	71,89	2750.0	test	<img class = center src='/static/experiments/beast_fmri_test/images/redD.png'></img>	stop	2150.0	1.0	1.0	stop	non-target	D	71,Index Finger	89,Middle Finger	550.0	600.0	2150.0	2150.0	0.0	0.0	600.0	n/a	go_stim
224791.62606722605	2150.0	n/a	589	89	2750	4167.37393277	stim	stop-signal	493	1448043	0.0-21.1-1.1	beast_fmri_test	278	1445496,/,1446175,/,1446856,/,1447536,/,1448216,/,1448895,/,1449577,/,1450256,/,1450937,/,1451617,/	t,t,t,t,t,t,t,t,t,t	<img class = center src='/static/experiments/beast_fmri_test/images/D.png'></img>	71,89	2750.0	test	<img class = center src='/static/experiments/beast_fmri_test/images/redD.png'></img>	stop	2150.0	1.0	1.0	stop	non-target	D	71,Index Finger	89,Middle Finger	550.0	600.0	2150.0	2150.0	0.0	0.0	600.0	n/a	stop_stim
225391.62606722605	4167.37393277	n/a	589	89	2750	4167.37393277	stim	stop-signal	493	1448043	0.0-21.1-1.1	beast_fmri_test	278	1445496,/,1446175,/,1446856,/,1447536,/,1448216,/,1448895,/,1449577,/,1450256,/,1450937,/,1451617,/	t,t,t,t,t,t,t,t,t,t	<img class = center src='/static/experiments/beast_fmri_test/images/D.png'></img>	71,89	2750.0	test	<img class = center src='/static/experiments/beast_fmri_test/images/redD.png'></img>	stop	2150.0	1.0	1.0	stop	non-target	D	71,Index Finger	89,Middle Finger	550.0	600.0	2150.0	2150.0	0.0	0.0	600.0	n/a	ITI
234275	500.0	n/a	-1	-1	500	0.0	fixation	poldrack-single-stim	494	1452759	0.0-21.2-0.2	beast_fmri_test	278	1452302,/	t	<div class = centerbox2><div class = fixation>+</div></div>	none	500.0	test	n/a	n/a	n/a	n/a	n/a	n/a	n/a	n/a	n/a	n/a	n/a	n/a	n/a	n/a	n/a	n/a	n/a	n/a	fixation
232862.81354682823	2750.0	n/a	592	71	2750	1412.18645317	stim	stop-signal	495	1455509	0.0-21.2-1.2	beast_fmri_test	278	1452973,/,1453651,/,1454331,/,1455012,/,1455692,/,1456371,/	t,t,t,t,t,t	<img class = center src='/static/experiments/beast_fmri_test/images/D.png'></img>	71,89	2750.0	test	<img class = center src='/static/experiments/beast_fmri_test/images/redD.png'></img>	go	2200.0	1.0	2.0	go	target	D	71,Index Finger	89,Middle Finger	550.0	550.0	2200.0	2150.0	1.0	n/a	550.0	1.0	go_stim
235612.81354682823	1412.18645317	n/a	592	71	2750	1412.18645317	stim	stop-signal	495	1455509	0.0-21.2-1.2	beast_fmri_test	278	1452973,/,1453651,/,1454331,/,1455012,/,1455692,/,1456371,/	t,t,t,t,t,t	<img class = center src='/static/experiments/beast_fmri_test/images/D.png'></img>	71,89	2750.0	test	<img class = center src='/static/experiments/beast_fmri_test/images/redD.png'></img>	go	2200.0	1.0	2.0	go	target	D	71,Index Finger	89,Middle Finger	550.0	550.0	2200.0	2150.0	1.0	n/a	550.0	1.0	ITI
238987	500.0	n/a	-1	-1	500	0.0	fixation	poldrack-single-stim	496	1457471	0.0-21.3-0.3	beast_fmri_test	278	1457051,/	t	<div class = centerbox2><div class = fixation>+</div></div>	none	500.0	test	n/a	n/a	n/a	n/a	n/a	n/a	n/a	n/a	n/a	n/a	n/a	n/a	n/a	n/a	n/a	n/a	n/a	n/a	fixation
238985.08505472797	2750.0	n/a	824	89	2750	4.91494527211	stim	stop-signal	497	1460224	0.0-21.3-1.3	beast_fmri_test	278	1457732,/,1458412,/,1459092,/,1459772,/	t,t,t,t	<img class = center src='/static/experiments/beast_fmri_test/images/B.png'></img>	71,89	2750.0	test	<img class = center src='/static/experiments/beast_fmri_test/images/redB.png'></img>	go	2200.0	1.0	3.0	go	non-target	B	71,Index Finger	89,Middle Finger	550.0	550.0	2200.0	2200.0	1.0	n/a	550.0	1.0	go_stim
241735.08505472797	4.91494527211	n/a	824	89	2750	4.91494527211	stim	stop-signal	497	1460224	0.0-21.3-1.3	beast_fmri_test	278	1457732,/,1458412,/,1459092,/,1459772,/	t,t,t,t	<img class = center src='/static/experiments/beast_fmri_test/images/B.png'></img>	71,89	2750.0	test	<img class = center src='/static/experiments/beast_fmri_test/images/redB.png'></img>	go	2200.0	1.0	3.0	go	non-target	B	71,Index Finger	89,Middle Finger	550.0	550.0	2200.0	2200.0	1.0	n/a	550.0	1.0	ITI
242299	500.0	n/a	-1	-1	500	0.0	fixation	poldrack-single-stim	498	1460783	0.0-21.4-0.4	beast_fmri_test	278	1460451,/	t	<div class = centerbox2><div class = fixation>+</div></div>	none	500.0	test	n/a	n/a	n/a	n/a	n/a	n/a	n/a	n/a	n/a	n/a	n/a	n/a	n/a	n/a	n/a	n/a	n/a	n/a	fixation
241480.93432579585	2750.0	n/a	1331	89	2750	816.065674204	stim	stop-signal	499	1463531	0.0-21.4-1.4	beast_fmri_test	278	1461132,/,1461812,/,1462491,/,1463167,/,1463847,/	t,t,t,t,t	<img class = center src='/static/experiments/beast_fmri_test/images/T.png'></img>	71,89	2750.0	test	<img class = center src='/static/experiments/beast_fmri_test/images/redT.png'></img>	go	2200.0	1.0	4.0	go	non-target	T	71,Index Finger	89,Middle Finger	550.0	550.0	2200.0	2200.0	1.0	n/a	550.0	1.0	go_stim
244230.93432579585	816.065674204	n/a	1331	89	2750	816.065674204	stim	stop-signal	499	1463531	0.0-21.4-1.4	beast_fmri_test	278	1461132,/,1461812,/,1462491,/,1463167,/,1463847,/	t,t,t,t,t	<img class = center src='/static/experiments/beast_fmri_test/images/T.png'></img>	71,89	2750.0	test	<img class = center src='/static/experiments/beast_fmri_test/images/redT.png'></img>	go	2200.0	1.0	4.0	go	non-target	T	71,Index Finger	89,Middle Finger	550.0	550.0	2200.0	2200.0	1.0	n/a	550.0	1.0	ITI
246414	500.0	n/a	-1	-1	500	0.0	fixation	poldrack-single-stim	500	1464898	0.0-21.5-0.5	beast_fmri_test	278	1464528,/	t	<div class = centerbox2><div class = fixation>+</div></div>	none	500.0	test	n/a	n/a	n/a	n/a	n/a	n/a	n/a	n/a	n/a	n/a	n/a	n/a	n/a	n/a	n/a	n/a	n/a	n/a	fixation
245586.69685606752	2750.0	n/a	811	89	2750	830.303143933	stim	stop-signal	501	1467651	0.0-21.5-1.5	beast_fmri_test	278	1465206,/,1465887,/,1466567,/,1467247,/,1467925,/	t,t,t,t,t	<img class = center src='/static/experiments/beast_fmri_test/images/D.png'></img>	71,89	2750.0	test	<img class = center src='/static/experiments/beast_fmri_test/images/redD.png'></img>	go	2200.0	1.0	5.0	go	non-target	D	71,Index Finger	89,Middle Finger	550.0	550.0	2200.0	2200.0	1.0	n/a	550.0	1.0	go_stim
248336.69685606752	830.303143933	n/a	811	89	2750	830.303143933	stim	stop-signal	501	1467651	0.0-21.5-1.5	beast_fmri_test	278	1465206,/,1465887,/,1466567,/,1467247,/,1467925,/	t,t,t,t,t	<img class = center src='/static/experiments/beast_fmri_test/images/D.png'></img>	71,89	2750.0	test	<img class = center src='/static/experiments/beast_fmri_test/images/redD.png'></img>	go	2200.0	1.0	5.0	go	non-target	D	71,Index Finger	89,Middle Finger	550.0	550.0	2200.0	2200.0	1.0	n/a	550.0	1.0	ITI
250554	500.0	n/a	-1	-1	500	0.0	fixation	poldrack-single-stim	502	1469038	0.0-21.6-0.6	beast_fmri_test	278	1468606,/	t	<div class = centerbox2><div class = fixation>+</div></div>	none	500.0	test	n/a	n/a	n/a	n/a	n/a	n/a	n/a	n/a	n/a	n/a	n/a	n/a	n/a	n/a	n/a	n/a	n/a	n/a	fixation
249845.7997509772	2750.0	n/a	606	89	2750	711.200249023	stim	stop-signal	503	1471791	0.0-21.6-1.6	beast_fmri_test	278	1469287,/,1469965,/,1470647,/,1471327,/,1472007,/	t,t,t,t,t	<img class = center src='/static/experiments/beast_fmri_test/images/V.png'></img>	71,89	2750.0	test	<img class = center src='/static/experiments/beast_fmri_test/images/redV.png'></img>	go	2200.0	1.0	6.0	go	non-target	V	71,Index Finger	89,Middle Finger	550.0	550.0	2200.0	2200.0	1.0	n/a	550.0	1.0	go_stim
252595.7997509772	711.200249023	n/a	606	89	2750	711.200249023	stim	stop-signal	503	1471791	0.0-21.6-1.6	beast_fmri_test	278	1469287,/,1469965,/,1470647,/,1471327,/,1472007,/	t,t,t,t,t	<img class = center src='/static/experiments/beast_fmri_test/images/V.png'></img>	71,89	2750.0	test	<img class = center src='/static/experiments/beast_fmri_test/images/redV.png'></img>	go	2200.0	1.0	6.0	go	non-target	V	71,Index Finger	89,Middle Finger	550.0	550.0	2200.0	2200.0	1.0	n/a	550.0	1.0	ITI
254573	500.0	n/a	-1	-1	500	0.0	fixation	poldrack-single-stim	504	1473057	0.0-21.7-0.7	beast_fmri_test	278	1472685,/	t	<div class = centerbox2><div class = fixation>+</div></div>	none	500.0	test	n/a	n/a	n/a	n/a	n/a	n/a	n/a	n/a	n/a	n/a	n/a	n/a	n/a	n/a	n/a	n/a	n/a	n/a	fixation
254159.45955688017	2750.0	n/a	515	71	2750	414.54044312	stim	stop-signal	505	1475808	0.0-21.7-1.7	beast_fmri_test	278	1473362,/,1474042,/,1474721,/,1475402,/,1476082,/	t,t,t,t,t	<img class = center src='/static/experiments/beast_fmri_test/images/V.png'></img>	71,89	2750.0	test	<img class = center src='/static/experiments/beast_fmri_test/images/redV.png'></img>	go	2200.0	1.0	7.0	go	target	V	71,Index Finger	89,Middle Finger	550.0	550.0	2200.0	2200.0	1.0	n/a	550.0	1.0	go_stim
256909.45955688017	414.54044312	n/a	515	71	2750	414.54044312	stim	stop-signal	505	1475808	0.0-21.7-1.7	beast_fmri_test	278	1473362,/,1474042,/,1474721,/,1475402,/,1476082,/	t,t,t,t,t	<img class = center src='/static/experiments/beast_fmri_test/images/V.png'></img>	71,89	2750.0	test	<img class = center src='/static/experiments/beast_fmri_test/images/redV.png'></img>	go	2200.0	1.0	7.0	go	target	V	71,Index Finger	89,Middle Finger	550.0	550.0	2200.0	2200.0	1.0	n/a	550.0	1.0	ITI
258293	500.0	n/a	-1	-1	500	0.0	fixation	poldrack-single-stim	506	1476777	0.0-21.8-0.8	beast_fmri_test	278	1476762,/	t	<div class = centerbox2><div class = fixation>+</div></div>	none	500.0	test	n/a	n/a	n/a	n/a	n/a	n/a	n/a	n/a	n/a	n/a	n/a	n/a	n/a	n/a	n/a	n/a	n/a	n/a	fixation
257026.16127269063	2750.0	n/a	466	71	2750	1269.83872731	stim	stop-signal	507	1479530	0.0-21.8-1.8	beast_fmri_test	278	1477443,/,1478123,/,1478803,/,1479483,/,1480163,/	t,t,t,t,t	<img class = center src='/static/experiments/beast_fmri_test/images/V.png'></img>	71,89	2750.0	test	<img class = center src='/static/experiments/beast_fmri_test/images/redV.png'></img>	go	2200.0	1.0	8.0	go	target	V	71,Index Finger	89,Middle Finger	550.0	550.0	2200.0	2200.0	1.0	n/a	550.0	1.0	go_stim
259776.16127269063	1269.83872731	n/a	466	71	2750	1269.83872731	stim	stop-signal	507	1479530	0.0-21.8-1.8	beast_fmri_test	278	1477443,/,1478123,/,1478803,/,1479483,/,1480163,/	t,t,t,t,t	<img class = center src='/static/experiments/beast_fmri_test/images/V.png'></img>	71,89	2750.0	test	<img class = center src='/static/experiments/beast_fmri_test/images/redV.png'></img>	go	2200.0	1.0	8.0	go	target	V	71,Index Finger	89,Middle Finger	550.0	550.0	2200.0	2200.0	1.0	n/a	550.0	1.0	ITI
262882	500.0	n/a	-1	-1	500	0.0	fixation	poldrack-single-stim	508	1481366	0.0-21.9-0.9	beast_fmri_test	278	1480864,/	t	<div class = centerbox2><div class = fixation>+</div></div>	none	500.0	test	n/a	n/a	n/a	n/a	n/a	n/a	n/a	n/a	n/a	n/a	n/a	n/a	n/a	n/a	n/a	n/a	n/a	n/a	fixation
262346.46418673592	2750.0	n/a	462	89	2750	533.535813264	stim	stop-signal	509	1484114	0.0-21.9-1.9	beast_fmri_test	278	1481524,/,1482202,/,1482880,/,1483556,/,1484238,/	t,t,t,t,t	<img class = center src='/static/experiments/beast_fmri_test/images/D.png'></img>	71,89	2750.0	test	<img class = center src='/static/experiments/beast_fmri_test/images/redD.png'></img>	go	2200.0	1.0	9.0	go	non-target	D	71,Index Finger	89,Middle Finger	550.0	550.0	2200.0	2200.0	1.0	n/a	550.0	1.0	go_stim
265096.46418673592	533.535813264	n/a	462	89	2750	533.535813264	stim	stop-signal	509	1484114	0.0-21.9-1.9	beast_fmri_test	278	1481524,/,1482202,/,1482880,/,1483556,/,1484238,/	t,t,t,t,t	<img class = center src='/static/experiments/beast_fmri_test/images/D.png'></img>	71,89	2750.0	test	<img class = center src='/static/experiments/beast_fmri_test/images/redD.png'></img>	go	2200.0	1.0	9.0	go	non-target	D	71,Index Finger	89,Middle Finger	550.0	550.0	2200.0	2200.0	1.0	n/a	550.0	1.0	ITI
266717	500.0	n/a	-1	-1	500	0.0	fixation	poldrack-single-stim	510	1485201	0.0-21.10-0.10	beast_fmri_test	278	1484918,/	t	<div class = centerbox2><div class = fixation>+</div></div>	none	500.0	test	n/a	n/a	n/a	n/a	n/a	n/a	n/a	n/a	n/a	n/a	n/a	n/a	n/a	n/a	n/a	n/a	n/a	n/a	fixation
266708.09625516878	2750.0	n/a	638	89	2750	11.9037448312	stim	stop-signal	511	1487954	0.0-21.10-1.10	beast_fmri_test	278	1485598,/,1486277,/,1486958,/,1487637,/	t,t,t,t	<img class = center src='/static/experiments/beast_fmri_test/images/P.png'></img>	71,89	2750.0	test	<img class = center src='/static/experiments/beast_fmri_test/images/redP.png'></img>	go	2200.0	1.0	10.0	go	non-target	P	71,Index Finger	89,Middle Finger	550.0	550.0	2200.0	2200.0	1.0	n/a	550.0	1.0	go_stim
269458.09625516878	11.9037448312	n/a	638	89	2750	11.9037448312	stim	stop-signal	511	1487954	0.0-21.10-1.10	beast_fmri_test	278	1485598,/,1486277,/,1486958,/,1487637,/	t,t,t,t	<img class = center src='/static/experiments/beast_fmri_test/images/P.png'></img>	71,89	2750.0	test	<img class = center src='/static/experiments/beast_fmri_test/images/redP.png'></img>	go	2200.0	1.0	10.0	go	non-target	P	71,Index Finger	89,Middle Finger	550.0	550.0	2200.0	2200.0	1.0	n/a	550.0	1.0	ITI
270032	500.0	n/a	-1	-1	500	0.0	fixation	poldrack-single-stim	512	1488516	0.0-21.11-0.11	beast_fmri_test	278	1488317,/	t	<div class = centerbox2><div class = fixation>+</div></div>	none	500.0	test	n/a	n/a	n/a	n/a	n/a	n/a	n/a	n/a	n/a	n/a	n/a	n/a	n/a	n/a	n/a	n/a	n/a	n/a	fixation
269361.08247606782	2750.0	n/a	747	89	2750	674.917523932	stim	stop-signal	513	1491270	0.0-21.11-1.11	beast_fmri_test	278	1488998,/,1489677,/,1490358,/,1491037,/,1491716,/	t,t,t,t,t	<img class = center src='/static/experiments/beast_fmri_test/images/V.png'></img>	71,89	2750.0	test	<img class = center src='/static/experiments/beast_fmri_test/images/redV.png'></img>	go	2200.0	1.0	11.0	go	non-target	V	71,Index Finger	89,Middle Finger	550.0	550.0	2200.0	2200.0	1.0	n/a	550.0	1.0	go_stim
272111.08247606782	674.917523932	n/a	747	89	2750	674.917523932	stim	stop-signal	513	1491270	0.0-21.11-1.11	beast_fmri_test	278	1488998,/,1489677,/,1490358,/,1491037,/,1491716,/	t,t,t,t,t	<img class = center src='/static/experiments/beast_fmri_test/images/V.png'></img>	71,89	2750.0	test	<img class = center src='/static/experiments/beast_fmri_test/images/redV.png'></img>	go	2200.0	1.0	11.0	go	non-target	V	71,Index Finger	89,Middle Finger	550.0	550.0	2200.0	2200.0	1.0	n/a	550.0	1.0	ITI
274014	500.0	n/a	-1	-1	500	0.0	fixation	poldrack-single-stim	514	1492498	0.0-21.12-0.12	beast_fmri_test	278	1492398,/	t	<div class = centerbox2><div class = fixation>+</div></div>	none	500.0	test	n/a	n/a	n/a	n/a	n/a	n/a	n/a	n/a	n/a	n/a	n/a	n/a	n/a	n/a	n/a	n/a	n/a	n/a	fixation
271950.9931902471	550.0	n/a	676	89	2750	2062.00680975	stim	stop-signal	515	1495247	0.0-21.12-1.12	beast_fmri_test	278	1493073,/,1493752,/,1494433,/,1495113,/,1495793,/,1496473,/,1497152,/	t,t,t,t,t,t,t	<img class = center src='/static/experiments/beast_fmri_test/images/P.png'></img>	71,89	2750.0	test	<img class = center src='/static/experiments/beast_fmri_test/images/redP.png'></img>	stop	2200.0	1.0	12.0	stop	non-target	P	71,Index Finger	89,Middle Finger	550.0	550.0	2200.0	2200.0	0.0	0.0	550.0	n/a	go_stim
274150.9931902471	2200.0	n/a	676	89	2750	2062.00680975	stim	stop-signal	515	1495247	0.0-21.12-1.12	beast_fmri_test	278	1493073,/,1493752,/,1494433,/,1495113,/,1495793,/,1496473,/,1497152,/	t,t,t,t,t,t,t	<img class = center src='/static/experiments/beast_fmri_test/images/P.png'></img>	71,89	2750.0	test	<img class = center src='/static/experiments/beast_fmri_test/images/redP.png'></img>	stop	2200.0	1.0	12.0	stop	non-target	P	71,Index Finger	89,Middle Finger	550.0	550.0	2200.0	2200.0	0.0	0.0	550.0	n/a	stop_stim
274700.9931902471	2062.00680975	n/a	676	89	2750	2062.00680975	stim	stop-signal	515	1495247	0.0-21.12-1.12	beast_fmri_test	278	1493073,/,1493752,/,1494433,/,1495113,/,1495793,/,1496473,/,1497152,/	t,t,t,t,t,t,t	<img class = center src='/static/experiments/beast_fmri_test/images/P.png'></img>	71,89	2750.0	test	<img class = center src='/static/experiments/beast_fmri_test/images/redP.png'></img>	stop	2200.0	1.0	12.0	stop	non-target	P	71,Index Finger	89,Middle Finger	550.0	550.0	2200.0	2200.0	0.0	0.0	550.0	n/a	ITI
279378	500.0	n/a	-1	-1	500	0.0	fixation	poldrack-single-stim	516	1497862	0.0-21.13-0.13	beast_fmri_test	278	1497833,/	t	<div class = centerbox2><div class = fixation>+</div></div>	none	500.0	test	n/a	n/a	n/a	n/a	n/a	n/a	n/a	n/a	n/a	n/a	n/a	n/a	n/a	n/a	n/a	n/a	n/a	n/a	fixation
279046.02101218188	2750.0	n/a	520	89	2750	334.978987818	stim	stop-signal	517	1500615	0.0-21.13-1.13	beast_fmri_test	278	1498513,/,1499192,/,1499873,/,1500553,/	t,t,t,t	<img class = center src='/static/experiments/beast_fmri_test/images/T.png'></img>	71,89	2750.0	test	<img class = center src='/static/experiments/beast_fmri_test/images/redT.png'></img>	go	2250.0	1.0	13.0	go	non-target	T	71,Index Finger	89,Middle Finger	550.0	500.0	2200.0	2250.0	1.0	n/a	500.0	1.0	go_stim
281796.02101218188	334.978987818	n/a	520	89	2750	334.978987818	stim	stop-signal	517	1500615	0.0-21.13-1.13	beast_fmri_test	278	1498513,/,1499192,/,1499873,/,1500553,/	t,t,t,t	<img class = center src='/static/experiments/beast_fmri_test/images/T.png'></img>	71,89	2750.0	test	<img class = center src='/static/experiments/beast_fmri_test/images/redT.png'></img>	go	2250.0	1.0	13.0	go	non-target	T	71,Index Finger	89,Middle Finger	550.0	500.0	2200.0	2250.0	1.0	n/a	500.0	1.0	ITI
283022	500.0	n/a	-1	-1	500	0.0	fixation	poldrack-single-stim	518	1501506	0.0-21.14-0.14	beast_fmri_test	278	1501232,/	t	<div class = centerbox2><div class = fixation>+</div></div>	none	500.0	test	n/a	n/a	n/a	n/a	n/a	n/a	n/a	n/a	n/a	n/a	n/a	n/a	n/a	n/a	n/a	n/a	n/a	n/a	fixation
282701.5684716776	500.0	n/a	699	89	2750	319.431528322	stim	stop-signal	519	1504255	0.0-21.14-1.14	beast_fmri_test	278	1501913,/,1502592,/,1503268,/,1503948,/	t,t,t,t	<img class = center src='/static/experiments/beast_fmri_test/images/P.png'></img>	71,89	2750.0	test	<img class = center src='/static/experiments/beast_fmri_test/images/redP.png'></img>	stop	2250.0	1.0	14.0	stop	non-target	P	71,Index Finger	89,Middle Finger	550.0	500.0	2200.0	2250.0	0.0	0.0	500.0	n/a	go_stim
284951.5684716776	2250.0	n/a	699	89	2750	319.431528322	stim	stop-signal	519	1504255	0.0-21.14-1.14	beast_fmri_test	278	1501913,/,1502592,/,1503268,/,1503948,/	t,t,t,t	<img class = center src='/static/experiments/beast_fmri_test/images/P.png'></img>	71,89	2750.0	test	<img class = center src='/static/experiments/beast_fmri_test/images/redP.png'></img>	stop	2250.0	1.0	14.0	stop	non-target	P	71,Index Finger	89,Middle Finger	550.0	500.0	2200.0	2250.0	0.0	0.0	500.0	n/a	stop_stim
285451.5684716776	319.431528322	n/a	699	89	2750	319.431528322	stim	stop-signal	519	1504255	0.0-21.14-1.14	beast_fmri_test	278	1501913,/,1502592,/,1503268,/,1503948,/	t,t,t,t	<img class = center src='/static/experiments/beast_fmri_test/images/P.png'></img>	71,89	2750.0	test	<img class = center src='/static/experiments/beast_fmri_test/images/redP.png'></img>	stop	2250.0	1.0	14.0	stop	non-target	P	71,Index Finger	89,Middle Finger	550.0	500.0	2200.0	2250.0	0.0	0.0	500.0	n/a	ITI
286650	500.0	n/a	-1	-1	500	0.0	fixation	poldrack-single-stim	520	1505134	0.0-21.15-0.15	beast_fmri_test	278	1504633,/	t	<div class = centerbox2><div class = fixation>+</div></div>	none	500.0	test	n/a	n/a	n/a	n/a	n/a	n/a	n/a	n/a	n/a	n/a	n/a	n/a	n/a	n/a	n/a	n/a	n/a	n/a	fixation
286000.04154936736	2750.0	n/a	496	89	2750	651.958450633	stim	stop-signal	521	1507886	0.0-21.15-1.15	beast_fmri_test	278	1505308,/,1505989,/,1506669,/,1507348,/,1508029,/	t,t,t,t,t	<img class = center src='/static/experiments/beast_fmri_test/images/V.png'></img>	71,89	2750.0	test	<img class = center src='/static/experiments/beast_fmri_test/images/redV.png'></img>	go	2300.0	1.0	15.0	go	non-target	V	71,Index Finger	89,Middle Finger	550.0	450.0	2200.0	2300.0	1.0	n/a	450.0	1.0	go_stim
288750.04154936736	651.958450633	n/a	496	89	2750	651.958450633	stim	stop-signal	521	1507886	0.0-21.15-1.15	beast_fmri_test	278	1505308,/,1505989,/,1506669,/,1507348,/,1508029,/	t,t,t,t,t	<img class = center src='/static/experiments/beast_fmri_test/images/V.png'></img>	71,89	2750.0	test	<img class = center src='/static/experiments/beast_fmri_test/images/redV.png'></img>	go	2300.0	1.0	15.0	go	non-target	V	71,Index Finger	89,Middle Finger	550.0	450.0	2200.0	2300.0	1.0	n/a	450.0	1.0	ITI
290610	500.0	n/a	-1	-1	500	0.0	fixation	poldrack-single-stim	522	1509094	0.0-21.16-0.16	beast_fmri_test	278	1508708,/	t	<div class = centerbox2><div class = fixation>+</div></div>	none	500.0	test	n/a	n/a	n/a	n/a	n/a	n/a	n/a	n/a	n/a	n/a	n/a	n/a	n/a	n/a	n/a	n/a	n/a	n/a	fixation
289905.55261801486	2750.0	n/a	498	89	2750	707.447381985	stim	stop-signal	523	1511847	0.0-21.16-1.16	beast_fmri_test	278	1509390,/,1510069,/,1510749,/,1511429,/,1512109,/	t,t,t,t,t	<img class = center src='/static/experiments/beast_fmri_test/images/D.png'></img>	71,89	2750.0	test	<img class = center src='/static/experiments/beast_fmri_test/images/redD.png'></img>	go	2300.0	1.0	16.0	go	non-target	D	71,Index Finger	89,Middle Finger	550.0	450.0	2200.0	2300.0	1.0	n/a	450.0	1.0	go_stim
292655.55261801486	707.447381985	n/a	498	89	2750	707.447381985	stim	stop-signal	523	1511847	0.0-21.16-1.16	beast_fmri_test	278	1509390,/,1510069,/,1510749,/,1511429,/,1512109,/	t,t,t,t,t	<img class = center src='/static/experiments/beast_fmri_test/images/D.png'></img>	71,89	2750.0	test	<img class = center src='/static/experiments/beast_fmri_test/images/redD.png'></img>	go	2300.0	1.0	16.0	go	non-target	D	71,Index Finger	89,Middle Finger	550.0	450.0	2200.0	2300.0	1.0	n/a	450.0	1.0	ITI
294621	500.0	n/a	-1	-1	500	0.0	fixation	poldrack-single-stim	524	1513105	0.0-21.17-0.17	beast_fmri_test	278	1512788,/	t	<div class = centerbox2><div class = fixation>+</div></div>	none	500.0	test	n/a	n/a	n/a	n/a	n/a	n/a	n/a	n/a	n/a	n/a	n/a	n/a	n/a	n/a	n/a	n/a	n/a	n/a	fixation
293928.42624466377	450.0	n/a	691	89	2750	693.573755336	stim	stop-signal	525	1515856	0.0-21.17-1.17	beast_fmri_test	278	1513463,/,1514144,/,1514824,/,1515503,/,1516184,/	t,t,t,t,t	<img class = center src='/static/experiments/beast_fmri_test/images/P.png'></img>	71,89	2750.0	test	<img class = center src='/static/experiments/beast_fmri_test/images/redP.png'></img>	stop	2300.0	1.0	17.0	stop	non-target	P	71,Index Finger	89,Middle Finger	550.0	450.0	2200.0	2300.0	0.0	0.0	450.0	n/a	go_stim
296228.42624466377	2300.0	n/a	691	89	2750	693.573755336	stim	stop-signal	525	1515856	0.0-21.17-1.17	beast_fmri_test	278	1513463,/,1514144,/,1514824,/,1515503,/,1516184,/	t,t,t,t,t	<img class = center src='/static/experiments/beast_fmri_test/images/P.png'></img>	71,89	2750.0	test	<img class = center src='/static/experiments/beast_fmri_test/images/redP.png'></img>	stop	2300.0	1.0	17.0	stop	non-target	P	71,Index Finger	89,Middle Finger	550.0	450.0	2200.0	2300.0	0.0	0.0	450.0	n/a	stop_stim
296678.42624466377	693.573755336	n/a	691	89	2750	693.573755336	stim	stop-signal	525	1515856	0.0-21.17-1.17	beast_fmri_test	278	1513463,/,1514144,/,1514824,/,1515503,/,1516184,/	t,t,t,t,t	<img class = center src='/static/experiments/beast_fmri_test/images/P.png'></img>	71,89	2750.0	test	<img class = center src='/static/experiments/beast_fmri_test/images/redP.png'></img>	stop	2300.0	1.0	17.0	stop	non-target	P	71,Index Finger	89,Middle Finger	550.0	450.0	2200.0	2300.0	0.0	0.0	450.0	n/a	ITI
298621	500.0	n/a	-1	-1	500	0.0	fixation	poldrack-single-stim	526	1517105	0.0-21.18-0.18	beast_fmri_test	278	1516864,/	t	<div class = centerbox2><div class = fixation>+</div></div>	none	500.0	test	n/a	n/a	n/a	n/a	n/a	n/a	n/a	n/a	n/a	n/a	n/a	n/a	n/a	n/a	n/a	n/a	n/a	n/a	fixation
296541.51834502444	2750.0	n/a	594	89	2750	2081.48165498	stim	stop-signal	527	1519857	0.0-21.18-1.18	beast_fmri_test	278	1517543,/,1518231,/,1518903,/,1519584,/,1520262,/,1520943,/,1521624,/	t,t,t,t,t,t,t	<img class = center src='/static/experiments/beast_fmri_test/images/B.png'></img>	71,89	2750.0	test	<img class = center src='/static/experiments/beast_fmri_test/images/redB.png'></img>	go	2350.0	1.0	18.0	go	non-target	B	71,Index Finger	89,Middle Finger	550.0	400.0	2200.0	2350.0	1.0	n/a	400.0	1.0	go_stim
299291.51834502444	2081.48165498	n/a	594	89	2750	2081.48165498	stim	stop-signal	527	1519857	0.0-21.18-1.18	beast_fmri_test	278	1517543,/,1518231,/,1518903,/,1519584,/,1520262,/,1520943,/,1521624,/	t,t,t,t,t,t,t	<img class = center src='/static/experiments/beast_fmri_test/images/B.png'></img>	71,89	2750.0	test	<img class = center src='/static/experiments/beast_fmri_test/images/redB.png'></img>	go	2350.0	1.0	18.0	go	non-target	B	71,Index Finger	89,Middle Finger	550.0	400.0	2200.0	2350.0	1.0	n/a	400.0	1.0	ITI
304011	500.0	n/a	-1	-1	500	0.0	fixation	poldrack-single-stim	528	1522495	0.0-21.19-0.19	beast_fmri_test	278	1522303,/	t	<div class = centerbox2><div class = fixation>+</div></div>	none	500.0	test	n/a	n/a	n/a	n/a	n/a	n/a	n/a	n/a	n/a	n/a	n/a	n/a	n/a	n/a	n/a	n/a	n/a	n/a	fixation
303403.87847839342	400.0	n/a	435	89	2750	607.121521607	stim	stop-signal	529	1525245	0.0-21.19-1.19	beast_fmri_test	278	1522981,/,1523659,/,1524338,/,1525019,/,1525699,/	t,t,t,t,t	<img class = center src='/static/experiments/beast_fmri_test/images/D.png'></img>	71,89	2750.0	test	<img class = center src='/static/experiments/beast_fmri_test/images/redD.png'></img>	stop	2350.0	1.0	19.0	stop	non-target	D	71,Index Finger	89,Middle Finger	550.0	400.0	2200.0	2350.0	0.0	0.0	400.0	n/a	go_stim
305753.87847839342	2350.0	n/a	435	89	2750	607.121521607	stim	stop-signal	529	1525245	0.0-21.19-1.19	beast_fmri_test	278	1522981,/,1523659,/,1524338,/,1525019,/,1525699,/	t,t,t,t,t	<img class = center src='/static/experiments/beast_fmri_test/images/D.png'></img>	71,89	2750.0	test	<img class = center src='/static/experiments/beast_fmri_test/images/redD.png'></img>	stop	2350.0	1.0	19.0	stop	non-target	D	71,Index Finger	89,Middle Finger	550.0	400.0	2200.0	2350.0	0.0	0.0	400.0	n/a	stop_stim
306153.87847839342	607.121521607	n/a	435	89	2750	607.121521607	stim	stop-signal	529	1525245	0.0-21.19-1.19	beast_fmri_test	278	1522981,/,1523659,/,1524338,/,1525019,/,1525699,/	t,t,t,t,t	<img class = center src='/static/experiments/beast_fmri_test/images/D.png'></img>	71,89	2750.0	test	<img class = center src='/static/experiments/beast_fmri_test/images/redD.png'></img>	stop	2350.0	1.0	19.0	stop	non-target	D	71,Index Finger	89,Middle Finger	550.0	400.0	2200.0	2350.0	0.0	0.0	400.0	n/a	ITI
307920	500.0	n/a	-1	-1	500	0.0	fixation	poldrack-single-stim	530	1526404	0.0-21.20-0.20	beast_fmri_test	278	1526379,/	t	<div class = centerbox2><div class = fixation>+</div></div>	none	500.0	test	n/a	n/a	n/a	n/a	n/a	n/a	n/a	n/a	n/a	n/a	n/a	n/a	n/a	n/a	n/a	n/a	n/a	n/a	fixation
307587.03038825048	550.0	n/a	684	71	2750	335.969611749	stim	stop-signal	531	1529157	0.0-21.20-1.20	beast_fmri_test	278	1527060,/,1527739,/,1528419,/,1529098,/	t,t,t,t	<img class = center src='/static/experiments/beast_fmri_test/images/D.png'></img>	71,89	2750.0	test	<img class = center src='/static/experiments/beast_fmri_test/images/redD.png'></img>	stop	2200.0	1.0	20.0	stop	target	D	71,Index Finger	89,Middle Finger	550.0	350.0	2200.0	2350.0	0.0	0.0	550.0	n/a	go_stim
309787.03038825048	2200.0	n/a	684	71	2750	335.969611749	stim	stop-signal	531	1529157	0.0-21.20-1.20	beast_fmri_test	278	1527060,/,1527739,/,1528419,/,1529098,/	t,t,t,t	<img class = center src='/static/experiments/beast_fmri_test/images/D.png'></img>	71,89	2750.0	test	<img class = center src='/static/experiments/beast_fmri_test/images/redD.png'></img>	stop	2200.0	1.0	20.0	stop	target	D	71,Index Finger	89,Middle Finger	550.0	350.0	2200.0	2350.0	0.0	0.0	550.0	n/a	stop_stim
310337.03038825048	335.969611749	n/a	684	71	2750	335.969611749	stim	stop-signal	531	1529157	0.0-21.20-1.20	beast_fmri_test	278	1527060,/,1527739,/,1528419,/,1529098,/	t,t,t,t	<img class = center src='/static/experiments/beast_fmri_test/images/D.png'></img>	71,89	2750.0	test	<img class = center src='/static/experiments/beast_fmri_test/images/redD.png'></img>	stop	2200.0	1.0	20.0	stop	target	D	71,Index Finger	89,Middle Finger	550.0	350.0	2200.0	2350.0	0.0	0.0	550.0	n/a	ITI
311562	500.0	n/a	-1	-1	500	0.0	fixation	poldrack-single-stim	532	1530046	0.0-21.21-0.21	beast_fmri_test	278	1529780,/	t	<div class = centerbox2><div class = fixation>+</div></div>	none	500.0	test	n/a	n/a	n/a	n/a	n/a	n/a	n/a	n/a	n/a	n/a	n/a	n/a	n/a	n/a	n/a	n/a	n/a	n/a	fixation
311492.60636311863	2750.0	n/a	472	71	2750	71.3936368814	stim	stop-signal	533	1532798	0.0-21.21-1.21	beast_fmri_test	278	1530458,/,1531138,/,1531818,/,1532497,/	t,t,t,t	<img class = center src='/static/experiments/beast_fmri_test/images/D.png'></img>	71,89	2750.0	test	<img class = center src='/static/experiments/beast_fmri_test/images/redD.png'></img>	go	2250.0	1.0	21.0	go	target	D	71,Index Finger	89,Middle Finger	500.0	350.0	2250.0	2350.0	1.0	n/a	500.0	1.0	go_stim
314242.60636311863	71.3936368814	n/a	472	71	2750	71.3936368814	stim	stop-signal	533	1532798	0.0-21.21-1.21	beast_fmri_test	278	1530458,/,1531138,/,1531818,/,1532497,/	t,t,t,t	<img class = center src='/static/experiments/beast_fmri_test/images/D.png'></img>	71,89	2750.0	test	<img class = center src='/static/experiments/beast_fmri_test/images/redD.png'></img>	go	2250.0	1.0	21.0	go	target	D	71,Index Finger	89,Middle Finger	500.0	350.0	2250.0	2350.0	1.0	n/a	500.0	1.0	ITI
314933	500.0	n/a	-1	-1	500	0.0	fixation	poldrack-single-stim	534	1533417	0.0-21.22-0.22	beast_fmri_test	278	1533175,/	t	<div class = centerbox2><div class = fixation>+</div></div>	none	500.0	test	n/a	n/a	n/a	n/a	n/a	n/a	n/a	n/a	n/a	n/a	n/a	n/a	n/a	n/a	n/a	n/a	n/a	n/a	fixation
314677.39374924218	500.0	n/a	516	71	2750	257.606250758	stim	stop-signal	535	1536169	0.0-21.22-1.22	beast_fmri_test	278	1533855,/,1534535,/,1535215,/,1535896,/	t,t,t,t	<img class = center src='/static/experiments/beast_fmri_test/images/D.png'></img>	71,89	2750.0	test	<img class = center src='/static/experiments/beast_fmri_test/images/redD.png'></img>	stop	2250.0	1.0	22.0	stop	target	D	71,Index Finger	89,Middle Finger	500.0	350.0	2250.0	2350.0	0.0	0.0	500.0	n/a	go_stim
316927.39374924218	2250.0	n/a	516	71	2750	257.606250758	stim	stop-signal	535	1536169	0.0-21.22-1.22	beast_fmri_test	278	1533855,/,1534535,/,1535215,/,1535896,/	t,t,t,t	<img class = center src='/static/experiments/beast_fmri_test/images/D.png'></img>	71,89	2750.0	test	<img class = center src='/static/experiments/beast_fmri_test/images/redD.png'></img>	stop	2250.0	1.0	22.0	stop	target	D	71,Index Finger	89,Middle Finger	500.0	350.0	2250.0	2350.0	0.0	0.0	500.0	n/a	stop_stim
