onset	duration	text	rt	key_press	block_duration	timing_post_trial	trial_id	trial_type	trial_index	time_elapsed	internal_node_id	exp_id	subject_id	trigger_times	triggers	stimulus	possible_responses	stim_duration	exp_stage	SS_stimulus	SS_trial_type	SS_duration	load	trial_num	stop_trial_type	adaptive_trial_type	stim	yes_response_key	no_response_key	SSD_target	SSD_non_target	SSTarget	SSNonTarget	go_acc	SS_delay	stop_acc	adaptive_acc	new_trial_type
test	10880	n/a	-1	-1	10880	0.0	practice-no-stop-feedback	poldrack-single-stim	584	1673390	0.0-24.0	beast_fmri_test	388	1662505,/,1663184,/,1663863,/,1664544,/,1665224,/,1665903,/,1666583,/,1667263,/,1667943,/,1668623,/,1669304,/,1669986,/,1670667,/,1671347,/,1672027,/,1672707,/,1673388,/	t,t,t,t,t,t,t,t,t,t,t,t,t,t,t,t,t	"<div class = ""centerbox2_2""><p class = ""block-text2"">Your delay is 2 trials.</p><p class = block-text2>Please wait for the scanner to start the block</p></div>"	77	10880.0	n/a	n/a	n/a	n/a	n/a	n/a	n/a	n/a	n/a	n/a	n/a	n/a	n/a	n/a	n/a	n/a	n/a	n/a	n/a	start_functional_block
11388	500	n/a	-1	-1	500	0.0	fixation	poldrack-single-stim	585	1673893	0.0-25.0-0.0	beast_fmri_test	388	n/a	n/a	<div class = centerbox2><div class = fixation>+</div></div>	none	500.0	test	n/a	n/a	n/a	n/a	n/a	n/a	n/a	n/a	n/a	n/a	n/a	n/a	n/a	n/a	n/a	n/a	n/a	n/a	fixation
11092.189679805422	2750	n/a	1287	89	2750	298.810320195	stim	stop-signal	586	1676646	0.0-25.0-1.0	beast_fmri_test	388	1674068,/,1674747,/,1675427,/,1676107,/,1676787,/	t,t,t,t,t	<img class = center src='/static/experiments/beast_fmri_test/images/P.png'></img>	71,89	2750.0	test	<img class = center src='/static/experiments/beast_fmri_test/images/redP.png'></img>	go	-1.0	2.0	0.0	go	temp-non-target	P	71,Index Finger	89,Middle Finger	900.0	1000.0	1850.0	1750.0	0.0	n/a	n/a	n/a	go_stim
13842.189679805422	298.81032019464567	n/a	1287	89	2750	298.810320195	stim	stop-signal	586	1676646	0.0-25.0-1.0	beast_fmri_test	388	1674068,/,1674747,/,1675427,/,1676107,/,1676787,/	t,t,t,t,t	<img class = center src='/static/experiments/beast_fmri_test/images/P.png'></img>	71,89	2750.0	test	<img class = center src='/static/experiments/beast_fmri_test/images/redP.png'></img>	go	-1.0	2.0	0.0	go	temp-non-target	P	71,Index Finger	89,Middle Finger	900.0	1000.0	1850.0	1750.0	0.0	n/a	n/a	n/a	ITI
14998	500	n/a	-1	-1	500	0.0	fixation	poldrack-single-stim	587	1677503	0.0-25.1-0.1	beast_fmri_test	388	1677468,/	t	<div class = centerbox2><div class = fixation>+</div></div>	none	500.0	test	n/a	n/a	n/a	n/a	n/a	n/a	n/a	n/a	n/a	n/a	n/a	n/a	n/a	n/a	n/a	n/a	n/a	n/a	fixation
14839.740959309274	2750	n/a	1150	89	2750	164.259040691	stim	stop-signal	588	1680259	0.0-25.1-1.1	beast_fmri_test	388	1678148,/,1678828,/,1679508,/,1680191,/	t,t,t,t	<img class = center src='/static/experiments/beast_fmri_test/images/V.png'></img>	71,89	2750.0	test	<img class = center src='/static/experiments/beast_fmri_test/images/redV.png'></img>	go	-1.0	2.0	1.0	go	temp-non-target	V	71,Index Finger	89,Middle Finger	900.0	1000.0	1850.0	1750.0	0.0	n/a	n/a	n/a	go_stim
17589.740959309274	164.25904069064075	n/a	1150	89	2750	164.259040691	stim	stop-signal	588	1680259	0.0-25.1-1.1	beast_fmri_test	388	1678148,/,1678828,/,1679508,/,1680191,/	t,t,t,t	<img class = center src='/static/experiments/beast_fmri_test/images/V.png'></img>	71,89	2750.0	test	<img class = center src='/static/experiments/beast_fmri_test/images/redV.png'></img>	go	-1.0	2.0	1.0	go	temp-non-target	V	71,Index Finger	89,Middle Finger	900.0	1000.0	1850.0	1750.0	0.0	n/a	n/a	n/a	ITI
18482	500	n/a	-1	-1	500	0.0	fixation	poldrack-single-stim	589	1680987	0.0-25.2-0.2	beast_fmri_test	388	1680872,/	t	<div class = centerbox2><div class = fixation>+</div></div>	none	500.0	test	n/a	n/a	n/a	n/a	n/a	n/a	n/a	n/a	n/a	n/a	n/a	n/a	n/a	n/a	n/a	n/a	n/a	n/a	fixation
17100.492886953056	2750	n/a	1112	89	2750	1385.50711305	stim	stop-signal	590	1683741	0.0-25.2-1.2	beast_fmri_test	388	1681553,/,1682232,/,1682912,/,1683592,/,1684272,/,1684952,/	t,t,t,t,t,t	<img class = center src='/static/experiments/beast_fmri_test/images/V.png'></img>	71,89	2750.0	test	<img class = center src='/static/experiments/beast_fmri_test/images/redV.png'></img>	go	1750.0	2.0	2.0	go	non-target	V	71,Index Finger	89,Middle Finger	900.0	1000.0	1850.0	1750.0	1.0	1000.0	n/a	1.0	go_stim
19850.492886953056	1385.507113046926	n/a	1112	89	2750	1385.50711305	stim	stop-signal	590	1683741	0.0-25.2-1.2	beast_fmri_test	388	1681553,/,1682232,/,1682912,/,1683592,/,1684272,/,1684952,/	t,t,t,t,t,t	<img class = center src='/static/experiments/beast_fmri_test/images/V.png'></img>	71,89	2750.0	test	<img class = center src='/static/experiments/beast_fmri_test/images/redV.png'></img>	go	1750.0	2.0	2.0	go	non-target	V	71,Index Finger	89,Middle Finger	900.0	1000.0	1850.0	1750.0	1.0	1000.0	n/a	1.0	ITI
23179	500	n/a	-1	-1	500	0.0	fixation	poldrack-single-stim	591	1685684	0.0-25.3-0.3	beast_fmri_test	388	1685631,/	t	<div class = centerbox2><div class = fixation>+</div></div>	none	500.0	test	n/a	n/a	n/a	n/a	n/a	n/a	n/a	n/a	n/a	n/a	n/a	n/a	n/a	n/a	n/a	n/a	n/a	n/a	fixation
22506.644147719955	2750	n/a	953	89	2750	677.35585228	stim	stop-signal	592	1688439	0.0-25.3-1.3	beast_fmri_test	388	1686315,/,1686993,/,1687673,/,1688352,/,1689033,/	t,t,t,t,t	<img class = center src='/static/experiments/beast_fmri_test/images/D.png'></img>	71,89	2750.0	test	<img class = center src='/static/experiments/beast_fmri_test/images/redD.png'></img>	go	1750.0	2.0	3.0	go	non-target	D	71,Index Finger	89,Middle Finger	900.0	1000.0	1850.0	1750.0	1.0	1000.0	n/a	1.0	go_stim
25256.644147719955	677.35585228013531	n/a	953	89	2750	677.35585228	stim	stop-signal	592	1688439	0.0-25.3-1.3	beast_fmri_test	388	1686315,/,1686993,/,1687673,/,1688352,/,1689033,/	t,t,t,t,t	<img class = center src='/static/experiments/beast_fmri_test/images/D.png'></img>	71,89	2750.0	test	<img class = center src='/static/experiments/beast_fmri_test/images/redD.png'></img>	go	1750.0	2.0	3.0	go	non-target	D	71,Index Finger	89,Middle Finger	900.0	1000.0	1850.0	1750.0	1.0	1000.0	n/a	1.0	ITI
27177	500	n/a	-1	-1	500	0.0	fixation	poldrack-single-stim	593	1689682	0.0-25.4-0.4	beast_fmri_test	388	n/a	n/a	<div class = centerbox2><div class = fixation>+</div></div>	none	500.0	test	n/a	n/a	n/a	n/a	n/a	n/a	n/a	n/a	n/a	n/a	n/a	n/a	n/a	n/a	n/a	n/a	n/a	n/a	fixation
26134.346443604678	2750	n/a	786	71	2750	1048.6535564	stim	stop-signal	594	1692438	0.0-25.4-1.4	beast_fmri_test	388	1689713,/,1690397,/,1691077,/,1691757,/,1692437,/,1693117,/	t,t,t,t,t,t	<img class = center src='/static/experiments/beast_fmri_test/images/V.png'></img>	71,89	2750.0	test	<img class = center src='/static/experiments/beast_fmri_test/images/redV.png'></img>	go	1850.0	2.0	4.0	go	target	V	71,Index Finger	89,Middle Finger	900.0	1000.0	1850.0	1750.0	1.0	900.0	n/a	1.0	go_stim
28884.346443604678	1048.6535563954214	n/a	786	71	2750	1048.6535564	stim	stop-signal	594	1692438	0.0-25.4-1.4	beast_fmri_test	388	1689713,/,1690397,/,1691077,/,1691757,/,1692437,/,1693117,/	t,t,t,t,t,t	<img class = center src='/static/experiments/beast_fmri_test/images/V.png'></img>	71,89	2750.0	test	<img class = center src='/static/experiments/beast_fmri_test/images/redV.png'></img>	go	1850.0	2.0	4.0	go	target	V	71,Index Finger	89,Middle Finger	900.0	1000.0	1850.0	1750.0	1.0	900.0	n/a	1.0	ITI
31547	500	n/a	-1	-1	500	0.0	fixation	poldrack-single-stim	595	1694052	0.0-25.5-0.5	beast_fmri_test	388	1693797,/	t	<div class = centerbox2><div class = fixation>+</div></div>	none	500.0	test	n/a	n/a	n/a	n/a	n/a	n/a	n/a	n/a	n/a	n/a	n/a	n/a	n/a	n/a	n/a	n/a	n/a	n/a	fixation
31051.916349660838	2750	n/a	1451	89	2750	498.083650339	stim	stop-signal	596	1696805	0.0-25.5-1.5	beast_fmri_test	388	1694477,/,1695157,/,1695837,/,1696517,/,1697196,/	t,t,t,t,t	<img class = center src='/static/experiments/beast_fmri_test/images/V.png'></img>	71,89	2750.0	test	<img class = center src='/static/experiments/beast_fmri_test/images/redV.png'></img>	go	1750.0	2.0	5.0	go	non-target	V	71,Index Finger	89,Middle Finger	900.0	1000.0	1850.0	1750.0	1.0	1000.0	n/a	1.0	go_stim
33801.916349660838	498.08365033927328	n/a	1451	89	2750	498.083650339	stim	stop-signal	596	1696805	0.0-25.5-1.5	beast_fmri_test	388	1694477,/,1695157,/,1695837,/,1696517,/,1697196,/	t,t,t,t,t	<img class = center src='/static/experiments/beast_fmri_test/images/V.png'></img>	71,89	2750.0	test	<img class = center src='/static/experiments/beast_fmri_test/images/redV.png'></img>	go	1750.0	2.0	5.0	go	non-target	V	71,Index Finger	89,Middle Finger	900.0	1000.0	1850.0	1750.0	1.0	1000.0	n/a	1.0	ITI
35363	500	n/a	-1	-1	500	0.0	fixation	poldrack-single-stim	597	1697868	0.0-25.6-0.6	beast_fmri_test	388	n/a	n/a	<div class = centerbox2><div class = fixation>+</div></div>	none	500.0	test	n/a	n/a	n/a	n/a	n/a	n/a	n/a	n/a	n/a	n/a	n/a	n/a	n/a	n/a	n/a	n/a	n/a	n/a	fixation
35183.010545643046	1000.0	n/a	987	89	2750	186.989454357	stim	stop-signal	598	1700625	0.0-25.6-1.6	beast_fmri_test	388	1697883,/,1698557,/,1699236,/,1699919,/,1700600,/	t,t,t,t,t	<img class = center src='/static/experiments/beast_fmri_test/images/P.png'></img>	71,89	2750.0	test	<img class = center src='/static/experiments/beast_fmri_test/images/redP.png'></img>	stop	1750.0	2.0	6.0	stop	non-target	P	71,Index Finger	89,Middle Finger	900.0	1000.0	1850.0	1750.0	0.0	1000.0	0.0	n/a	go_stim
36933.010545643046	1750.0	n/a	987	89	2750	186.989454357	stim	stop-signal	598	1700625	0.0-25.6-1.6	beast_fmri_test	388	1697883,/,1698557,/,1699236,/,1699919,/,1700600,/	t,t,t,t,t	<img class = center src='/static/experiments/beast_fmri_test/images/P.png'></img>	71,89	2750.0	test	<img class = center src='/static/experiments/beast_fmri_test/images/redP.png'></img>	stop	1750.0	2.0	6.0	stop	non-target	P	71,Index Finger	89,Middle Finger	900.0	1000.0	1850.0	1750.0	0.0	1000.0	0.0	n/a	stop_stim
37933.010545643046	186.98945435691172	n/a	987	89	2750	186.989454357	stim	stop-signal	598	1700625	0.0-25.6-1.6	beast_fmri_test	388	1697883,/,1698557,/,1699236,/,1699919,/,1700600,/	t,t,t,t,t	<img class = center src='/static/experiments/beast_fmri_test/images/P.png'></img>	71,89	2750.0	test	<img class = center src='/static/experiments/beast_fmri_test/images/redP.png'></img>	stop	1750.0	2.0	6.0	stop	non-target	P	71,Index Finger	89,Middle Finger	900.0	1000.0	1850.0	1750.0	0.0	1000.0	0.0	n/a	ITI
38875	500	n/a	-1	-1	500	0.0	fixation	poldrack-single-stim	599	1701380	0.0-25.7-0.7	beast_fmri_test	388	1701281,/	t	<div class = centerbox2><div class = fixation>+</div></div>	none	500.0	test	n/a	n/a	n/a	n/a	n/a	n/a	n/a	n/a	n/a	n/a	n/a	n/a	n/a	n/a	n/a	n/a	n/a	n/a	fixation
38861.144558087457	2750	n/a	1028	89	2750	17.8554419125	stim	stop-signal	600	1704134	0.0-25.7-1.7	beast_fmri_test	388	1701959,/,1702640,/,1703321,/,1704000,/	t,t,t,t	<img class = center src='/static/experiments/beast_fmri_test/images/T.png'></img>	71,89	2750.0	test	<img class = center src='/static/experiments/beast_fmri_test/images/redT.png'></img>	go	1800.0	2.0	7.0	go	non-target	T	71,Index Finger	89,Middle Finger	900.0	950.0	1850.0	1800.0	1.0	950.0	n/a	1.0	go_stim
41611.144558087457	17.855441912546297	n/a	1028	89	2750	17.8554419125	stim	stop-signal	600	1704134	0.0-25.7-1.7	beast_fmri_test	388	1701959,/,1702640,/,1703321,/,1704000,/	t,t,t,t	<img class = center src='/static/experiments/beast_fmri_test/images/T.png'></img>	71,89	2750.0	test	<img class = center src='/static/experiments/beast_fmri_test/images/redT.png'></img>	go	1800.0	2.0	7.0	go	non-target	T	71,Index Finger	89,Middle Finger	900.0	950.0	1850.0	1800.0	1.0	950.0	n/a	1.0	ITI
42209	500	n/a	-1	-1	500	0.0	fixation	poldrack-single-stim	601	1704714	0.0-25.8-0.8	beast_fmri_test	388	1704681,/	t	<div class = centerbox2><div class = fixation>+</div></div>	none	500.0	test	n/a	n/a	n/a	n/a	n/a	n/a	n/a	n/a	n/a	n/a	n/a	n/a	n/a	n/a	n/a	n/a	n/a	n/a	fixation
40163.824386444874	900.0	n/a	947	71	2750	2048.17561356	stim	stop-signal	602	1707467	0.0-25.8-1.8	beast_fmri_test	388	1705361,/,1706039,/,1706721,/,1707401,/,1708081,/,1708762,/,1709443,/	t,t,t,t,t,t,t	<img class = center src='/static/experiments/beast_fmri_test/images/P.png'></img>	71,89	2750.0	test	<img class = center src='/static/experiments/beast_fmri_test/images/redP.png'></img>	stop	1850.0	2.0	8.0	stop	target	P	71,Index Finger	89,Middle Finger	900.0	950.0	1850.0	1800.0	0.0	900.0	0.0	n/a	go_stim
42013.824386444874	1850.0	n/a	947	71	2750	2048.17561356	stim	stop-signal	602	1707467	0.0-25.8-1.8	beast_fmri_test	388	1705361,/,1706039,/,1706721,/,1707401,/,1708081,/,1708762,/,1709443,/	t,t,t,t,t,t,t	<img class = center src='/static/experiments/beast_fmri_test/images/P.png'></img>	71,89	2750.0	test	<img class = center src='/static/experiments/beast_fmri_test/images/redP.png'></img>	stop	1850.0	2.0	8.0	stop	target	P	71,Index Finger	89,Middle Finger	900.0	950.0	1850.0	1800.0	0.0	900.0	0.0	n/a	stop_stim
42913.824386444874	2048.1756135551682	n/a	947	71	2750	2048.17561356	stim	stop-signal	602	1707467	0.0-25.8-1.8	beast_fmri_test	388	1705361,/,1706039,/,1706721,/,1707401,/,1708081,/,1708762,/,1709443,/	t,t,t,t,t,t,t	<img class = center src='/static/experiments/beast_fmri_test/images/P.png'></img>	71,89	2750.0	test	<img class = center src='/static/experiments/beast_fmri_test/images/redP.png'></img>	stop	1850.0	2.0	8.0	stop	target	P	71,Index Finger	89,Middle Finger	900.0	950.0	1850.0	1800.0	0.0	900.0	0.0	n/a	ITI
47577	500	n/a	-1	-1	500	0.0	fixation	poldrack-single-stim	603	1710082	0.0-25.9-0.9	beast_fmri_test	388	n/a	n/a	<div class = centerbox2><div class = fixation>+</div></div>	none	500.0	test	n/a	n/a	n/a	n/a	n/a	n/a	n/a	n/a	n/a	n/a	n/a	n/a	n/a	n/a	n/a	n/a	n/a	n/a	fixation
46982.906286309706	2750	n/a	967	71	2750	597.09371369	stim	stop-signal	604	1712835	0.0-25.9-1.9	beast_fmri_test	388	1710122,/,1710806,/,1711486,/,1712165,/,1712845,/	t,t,t,t,t	<img class = center src='/static/experiments/beast_fmri_test/images/T.png'></img>	71,89	2750.0	test	<img class = center src='/static/experiments/beast_fmri_test/images/redT.png'></img>	go	1900.0	2.0	9.0	go	target	T	71,Index Finger	89,Middle Finger	850.0	950.0	1900.0	1800.0	1.0	850.0	n/a	1.0	go_stim
49732.906286309706	597.0937136902794	n/a	967	71	2750	597.09371369	stim	stop-signal	604	1712835	0.0-25.9-1.9	beast_fmri_test	388	1710122,/,1710806,/,1711486,/,1712165,/,1712845,/	t,t,t,t,t	<img class = center src='/static/experiments/beast_fmri_test/images/T.png'></img>	71,89	2750.0	test	<img class = center src='/static/experiments/beast_fmri_test/images/redT.png'></img>	go	1900.0	2.0	9.0	go	target	T	71,Index Finger	89,Middle Finger	850.0	950.0	1900.0	1800.0	1.0	850.0	n/a	1.0	ITI
51490	500	n/a	-1	-1	500	0.0	fixation	poldrack-single-stim	605	1713995	0.0-25.10-0.10	beast_fmri_test	388	1713524,/	t	<div class = centerbox2><div class = fixation>+</div></div>	none	500.0	test	n/a	n/a	n/a	n/a	n/a	n/a	n/a	n/a	n/a	n/a	n/a	n/a	n/a	n/a	n/a	n/a	n/a	n/a	fixation
51175.349659262924	2750	n/a	1177	89	2750	318.650340737	stim	stop-signal	606	1716749	0.0-25.10-1.10	beast_fmri_test	388	1714205,/,1714886,/,1715566,/,1716246,/,1716925,/	t,t,t,t,t	<img class = center src='/static/experiments/beast_fmri_test/images/T.png'></img>	71,89	2750.0	test	<img class = center src='/static/experiments/beast_fmri_test/images/redT.png'></img>	go	1800.0	2.0	10.0	go	non-target	T	71,Index Finger	89,Middle Finger	850.0	950.0	1900.0	1800.0	1.0	950.0	n/a	1.0	go_stim
53925.349659262924	318.65034073697376	n/a	1177	89	2750	318.650340737	stim	stop-signal	606	1716749	0.0-25.10-1.10	beast_fmri_test	388	1714205,/,1714886,/,1715566,/,1716246,/,1716925,/	t,t,t,t,t	<img class = center src='/static/experiments/beast_fmri_test/images/T.png'></img>	71,89	2750.0	test	<img class = center src='/static/experiments/beast_fmri_test/images/redT.png'></img>	go	1800.0	2.0	10.0	go	non-target	T	71,Index Finger	89,Middle Finger	850.0	950.0	1900.0	1800.0	1.0	950.0	n/a	1.0	ITI
55124	500	n/a	-1	-1	500	0.0	fixation	poldrack-single-stim	607	1717629	0.0-25.11-0.11	beast_fmri_test	388	1717606,/	t	<div class = centerbox2><div class = fixation>+</div></div>	none	500.0	test	n/a	n/a	n/a	n/a	n/a	n/a	n/a	n/a	n/a	n/a	n/a	n/a	n/a	n/a	n/a	n/a	n/a	n/a	fixation
53220.47468129592	2750	n/a	1006	89	2750	1907.5253187	stim	stop-signal	608	1720383	0.0-25.11-1.11	beast_fmri_test	388	1718286,/,1718966,/,1719644,/,1720326,/,1721006,/,1721685,/	t,t,t,t,t,t	<img class = center src='/static/experiments/beast_fmri_test/images/B.png'></img>	71,89	2750.0	test	<img class = center src='/static/experiments/beast_fmri_test/images/redB.png'></img>	go	1800.0	2.0	11.0	go	non-target	B	71,Index Finger	89,Middle Finger	850.0	950.0	1900.0	1800.0	1.0	950.0	n/a	1.0	go_stim
55970.47468129592	1907.525318704108	n/a	1006	89	2750	1907.5253187	stim	stop-signal	608	1720383	0.0-25.11-1.11	beast_fmri_test	388	1718286,/,1718966,/,1719644,/,1720326,/,1721006,/,1721685,/	t,t,t,t,t,t	<img class = center src='/static/experiments/beast_fmri_test/images/B.png'></img>	71,89	2750.0	test	<img class = center src='/static/experiments/beast_fmri_test/images/redB.png'></img>	go	1800.0	2.0	11.0	go	non-target	B	71,Index Finger	89,Middle Finger	850.0	950.0	1900.0	1800.0	1.0	950.0	n/a	1.0	ITI
60361	500	n/a	-1	-1	500	0.0	fixation	poldrack-single-stim	609	1722866	0.0-25.12-0.12	beast_fmri_test	388	1722368,/	t	<div class = centerbox2><div class = fixation>+</div></div>	none	500.0	test	n/a	n/a	n/a	n/a	n/a	n/a	n/a	n/a	n/a	n/a	n/a	n/a	n/a	n/a	n/a	n/a	n/a	n/a	fixation
59809.515729642007	950.0	n/a	797	89	2750	555.484270358	stim	stop-signal	610	1725620	0.0-25.12-1.12	beast_fmri_test	388	1723046,/,1723725,/,1724406,/,1725086,/,1725766,/	t,t,t,t,t	<img class = center src='/static/experiments/beast_fmri_test/images/B.png'></img>	71,89	2750.0	test	<img class = center src='/static/experiments/beast_fmri_test/images/redB.png'></img>	stop	1800.0	2.0	12.0	stop	non-target	B	71,Index Finger	89,Middle Finger	850.0	950.0	1900.0	1800.0	0.0	950.0	0.0	n/a	go_stim
61609.515729642007	1800.0	n/a	797	89	2750	555.484270358	stim	stop-signal	610	1725620	0.0-25.12-1.12	beast_fmri_test	388	1723046,/,1723725,/,1724406,/,1725086,/,1725766,/	t,t,t,t,t	<img class = center src='/static/experiments/beast_fmri_test/images/B.png'></img>	71,89	2750.0	test	<img class = center src='/static/experiments/beast_fmri_test/images/redB.png'></img>	stop	1800.0	2.0	12.0	stop	non-target	B	71,Index Finger	89,Middle Finger	850.0	950.0	1900.0	1800.0	0.0	950.0	0.0	n/a	stop_stim
62559.515729642007	555.48427035801433	n/a	797	89	2750	555.484270358	stim	stop-signal	610	1725620	0.0-25.12-1.12	beast_fmri_test	388	1723046,/,1723725,/,1724406,/,1725086,/,1725766,/	t,t,t,t,t	<img class = center src='/static/experiments/beast_fmri_test/images/B.png'></img>	71,89	2750.0	test	<img class = center src='/static/experiments/beast_fmri_test/images/redB.png'></img>	stop	1800.0	2.0	12.0	stop	non-target	B	71,Index Finger	89,Middle Finger	850.0	950.0	1900.0	1800.0	0.0	950.0	0.0	n/a	ITI
64230	500	n/a	-1	-1	500	0.0	fixation	poldrack-single-stim	611	1726735	0.0-25.13-0.13	beast_fmri_test	388	1726446,/	t	<div class = centerbox2><div class = fixation>+</div></div>	none	500.0	test	n/a	n/a	n/a	n/a	n/a	n/a	n/a	n/a	n/a	n/a	n/a	n/a	n/a	n/a	n/a	n/a	n/a	n/a	fixation
63100.5568733213	2750	n/a	1343	89	2750	1133.44312668	stim	stop-signal	612	1729489	0.0-25.13-1.13	beast_fmri_test	388	1727125,/,1727806,/,1728486,/,1729164,/,1729847,/,1730530,/	t,t,t,t,t,t	<img class = center src='/static/experiments/beast_fmri_test/images/T.png'></img>	71,89	2750.0	test	<img class = center src='/static/experiments/beast_fmri_test/images/redT.png'></img>	go	1850.0	2.0	13.0	go	non-target	T	71,Index Finger	89,Middle Finger	850.0	900.0	1900.0	1850.0	1.0	900.0	n/a	1.0	go_stim
65850.5568733213	1133.443126678811	n/a	1343	89	2750	1133.44312668	stim	stop-signal	612	1729489	0.0-25.13-1.13	beast_fmri_test	388	1727125,/,1727806,/,1728486,/,1729164,/,1729847,/,1730530,/	t,t,t,t,t,t	<img class = center src='/static/experiments/beast_fmri_test/images/T.png'></img>	71,89	2750.0	test	<img class = center src='/static/experiments/beast_fmri_test/images/redT.png'></img>	go	1850.0	2.0	13.0	go	non-target	T	71,Index Finger	89,Middle Finger	850.0	900.0	1900.0	1850.0	1.0	900.0	n/a	1.0	ITI
68681	500	n/a	-1	-1	500	0.0	fixation	poldrack-single-stim	613	1731186	0.0-25.14-0.14	beast_fmri_test	388	n/a	n/a	<div class = centerbox2><div class = fixation>+</div></div>	none	500.0	test	n/a	n/a	n/a	n/a	n/a	n/a	n/a	n/a	n/a	n/a	n/a	n/a	n/a	n/a	n/a	n/a	n/a	n/a	fixation
68620.957150660688	900.0	n/a	961	89	2750	64.0428493393	stim	stop-signal	614	1733940	0.0-25.14-1.14	beast_fmri_test	388	1731209,/,1731890,/,1732570,/,1733250,/,1733930,/	t,t,t,t,t	<img class = center src='/static/experiments/beast_fmri_test/images/P.png'></img>	71,89	2750.0	test	<img class = center src='/static/experiments/beast_fmri_test/images/redP.png'></img>	stop	1850.0	2.0	14.0	stop	non-target	P	71,Index Finger	89,Middle Finger	850.0	900.0	1900.0	1850.0	0.0	900.0	0.0	n/a	go_stim
70470.957150660688	1850.0	n/a	961	89	2750	64.0428493393	stim	stop-signal	614	1733940	0.0-25.14-1.14	beast_fmri_test	388	1731209,/,1731890,/,1732570,/,1733250,/,1733930,/	t,t,t,t,t	<img class = center src='/static/experiments/beast_fmri_test/images/P.png'></img>	71,89	2750.0	test	<img class = center src='/static/experiments/beast_fmri_test/images/redP.png'></img>	stop	1850.0	2.0	14.0	stop	non-target	P	71,Index Finger	89,Middle Finger	850.0	900.0	1900.0	1850.0	0.0	900.0	0.0	n/a	stop_stim
71370.957150660688	64.042849339309839	n/a	961	89	2750	64.0428493393	stim	stop-signal	614	1733940	0.0-25.14-1.14	beast_fmri_test	388	1731209,/,1731890,/,1732570,/,1733250,/,1733930,/	t,t,t,t,t	<img class = center src='/static/experiments/beast_fmri_test/images/P.png'></img>	71,89	2750.0	test	<img class = center src='/static/experiments/beast_fmri_test/images/redP.png'></img>	stop	1850.0	2.0	14.0	stop	non-target	P	71,Index Finger	89,Middle Finger	850.0	900.0	1900.0	1850.0	0.0	900.0	0.0	n/a	ITI
72059	500	n/a	-1	-1	500	0.0	fixation	poldrack-single-stim	615	1734564	0.0-25.15-0.15	beast_fmri_test	388	n/a	n/a	<div class = centerbox2><div class = fixation>+</div></div>	none	500.0	test	n/a	n/a	n/a	n/a	n/a	n/a	n/a	n/a	n/a	n/a	n/a	n/a	n/a	n/a	n/a	n/a	n/a	n/a	fixation
71452.919258026406	850.0	n/a	-1	-1	2750	609.080741974	stim	stop-signal	616	1737317	0.0-25.15-1.15	beast_fmri_test	388	1734608,/,1735290,/,1735970,/,1736649,/,1737329,/	t,t,t,t,t	<img class = center src='/static/experiments/beast_fmri_test/images/B.png'></img>	71,89	2750.0	test	<img class = center src='/static/experiments/beast_fmri_test/images/redB.png'></img>	stop	1900.0	2.0	15.0	stop	non-target	B	71,Index Finger	89,Middle Finger	850.0	850.0	1900.0	1900.0	0.0	850.0	1.0	n/a	go_stim
73352.919258026406	1900.0	n/a	-1	-1	2750	609.080741974	stim	stop-signal	616	1737317	0.0-25.15-1.15	beast_fmri_test	388	1734608,/,1735290,/,1735970,/,1736649,/,1737329,/	t,t,t,t,t	<img class = center src='/static/experiments/beast_fmri_test/images/B.png'></img>	71,89	2750.0	test	<img class = center src='/static/experiments/beast_fmri_test/images/redB.png'></img>	stop	1900.0	2.0	15.0	stop	non-target	B	71,Index Finger	89,Middle Finger	850.0	850.0	1900.0	1900.0	0.0	850.0	1.0	n/a	stop_stim
74202.919258026406	609.08074197366955	n/a	-1	-1	2750	609.080741974	stim	stop-signal	616	1737317	0.0-25.15-1.15	beast_fmri_test	388	1734608,/,1735290,/,1735970,/,1736649,/,1737329,/	t,t,t,t,t	<img class = center src='/static/experiments/beast_fmri_test/images/B.png'></img>	71,89	2750.0	test	<img class = center src='/static/experiments/beast_fmri_test/images/redB.png'></img>	stop	1900.0	2.0	15.0	stop	non-target	B	71,Index Finger	89,Middle Finger	850.0	850.0	1900.0	1900.0	0.0	850.0	1.0	n/a	ITI
75986	500	n/a	-1	-1	500	0.0	fixation	poldrack-single-stim	617	1738491	0.0-25.16-0.16	beast_fmri_test	388	1738008,/	t	<div class = centerbox2><div class = fixation>+</div></div>	none	500.0	test	n/a	n/a	n/a	n/a	n/a	n/a	n/a	n/a	n/a	n/a	n/a	n/a	n/a	n/a	n/a	n/a	n/a	n/a	fixation
74403.504603786627	2750	n/a	1481	71	2750	1590.49539621	stim	stop-signal	618	1741249	0.0-25.16-1.16	beast_fmri_test	388	1738690,/,1739372,/,1740054,/,1740733,/,1741414,/,1742094,/,1742775,/	t,t,t,t,t,t,t	<img class = center src='/static/experiments/beast_fmri_test/images/T.png'></img>	71,89	2750.0	test	<img class = center src='/static/experiments/beast_fmri_test/images/redT.png'></img>	go	1850.0	2.0	16.0	go	non-target	T	71,Index Finger	89,Middle Finger	850.0	900.0	1900.0	1850.0	0.0	900.0	n/a	0.0	go_stim
77153.504603786627	1590.4953962133054	n/a	1481	71	2750	1590.49539621	stim	stop-signal	618	1741249	0.0-25.16-1.16	beast_fmri_test	388	1738690,/,1739372,/,1740054,/,1740733,/,1741414,/,1742094,/,1742775,/	t,t,t,t,t,t,t	<img class = center src='/static/experiments/beast_fmri_test/images/T.png'></img>	71,89	2750.0	test	<img class = center src='/static/experiments/beast_fmri_test/images/redT.png'></img>	go	1850.0	2.0	16.0	go	non-target	T	71,Index Finger	89,Middle Finger	850.0	900.0	1900.0	1850.0	0.0	900.0	n/a	0.0	ITI
80894	500	n/a	-1	-1	500	0.0	fixation	poldrack-single-stim	619	1743399	0.0-25.17-0.17	beast_fmri_test	388	n/a	n/a	<div class = centerbox2><div class = fixation>+</div></div>	none	500.0	test	n/a	n/a	n/a	n/a	n/a	n/a	n/a	n/a	n/a	n/a	n/a	n/a	n/a	n/a	n/a	n/a	n/a	n/a	fixation
79601.883453379851	2750	n/a	1227	89	2750	1296.11654662	stim	stop-signal	620	1746153	0.0-25.17-1.17	beast_fmri_test	388	1743455,/,1744135,/,1744815,/,1745494,/,1746175,/,1746855,/	t,t,t,t,t,t	<img class = center src='/static/experiments/beast_fmri_test/images/V.png'></img>	71,89	2750.0	test	<img class = center src='/static/experiments/beast_fmri_test/images/redV.png'></img>	go	1850.0	2.0	17.0	go	non-target	V	71,Index Finger	89,Middle Finger	850.0	900.0	1900.0	1850.0	1.0	900.0	n/a	1.0	go_stim
82351.883453379851	1296.1165466202019	n/a	1227	89	2750	1296.11654662	stim	stop-signal	620	1746153	0.0-25.17-1.17	beast_fmri_test	388	1743455,/,1744135,/,1744815,/,1745494,/,1746175,/,1746855,/	t,t,t,t,t,t	<img class = center src='/static/experiments/beast_fmri_test/images/V.png'></img>	71,89	2750.0	test	<img class = center src='/static/experiments/beast_fmri_test/images/redV.png'></img>	go	1850.0	2.0	17.0	go	non-target	V	71,Index Finger	89,Middle Finger	850.0	900.0	1900.0	1850.0	1.0	900.0	n/a	1.0	ITI
85502	500	n/a	-1	-1	500	0.0	fixation	poldrack-single-stim	621	1748007	0.0-25.18-0.18	beast_fmri_test	388	1747533,/	t	<div class = centerbox2><div class = fixation>+</div></div>	none	500.0	test	n/a	n/a	n/a	n/a	n/a	n/a	n/a	n/a	n/a	n/a	n/a	n/a	n/a	n/a	n/a	n/a	n/a	n/a	fixation
83415.758790858323	900.0	n/a	-1	-1	2750	2092.24120914	stim	stop-signal	622	1750763	0.0-25.18-1.18	beast_fmri_test	388	1748215,/,1748895,/,1749576,/,1750259,/,1750939,/,1751619,/,1752299,/	t,t,t,t,t,t,t	<img class = center src='/static/experiments/beast_fmri_test/images/D.png'></img>	71,89	2750.0	test	<img class = center src='/static/experiments/beast_fmri_test/images/redD.png'></img>	stop	1850.0	2.0	18.0	stop	non-target	D	71,Index Finger	89,Middle Finger	850.0	900.0	1900.0	1850.0	0.0	900.0	1.0	n/a	go_stim
85265.758790858323	1850.0	n/a	-1	-1	2750	2092.24120914	stim	stop-signal	622	1750763	0.0-25.18-1.18	beast_fmri_test	388	1748215,/,1748895,/,1749576,/,1750259,/,1750939,/,1751619,/,1752299,/	t,t,t,t,t,t,t	<img class = center src='/static/experiments/beast_fmri_test/images/D.png'></img>	71,89	2750.0	test	<img class = center src='/static/experiments/beast_fmri_test/images/redD.png'></img>	stop	1850.0	2.0	18.0	stop	non-target	D	71,Index Finger	89,Middle Finger	850.0	900.0	1900.0	1850.0	0.0	900.0	1.0	n/a	stop_stim
86165.758790858323	2092.2412091415727	n/a	-1	-1	2750	2092.24120914	stim	stop-signal	622	1750763	0.0-25.18-1.18	beast_fmri_test	388	1748215,/,1748895,/,1749576,/,1750259,/,1750939,/,1751619,/,1752299,/	t,t,t,t,t,t,t	<img class = center src='/static/experiments/beast_fmri_test/images/D.png'></img>	71,89	2750.0	test	<img class = center src='/static/experiments/beast_fmri_test/images/redD.png'></img>	stop	1850.0	2.0	18.0	stop	non-target	D	71,Index Finger	89,Middle Finger	850.0	900.0	1900.0	1850.0	0.0	900.0	1.0	n/a	ITI
90910	500	n/a	-1	-1	500	0.0	fixation	poldrack-single-stim	623	1753415	0.0-25.19-0.19	beast_fmri_test	388	1752979,/	t	<div class = centerbox2><div class = fixation>+</div></div>	none	500.0	test	n/a	n/a	n/a	n/a	n/a	n/a	n/a	n/a	n/a	n/a	n/a	n/a	n/a	n/a	n/a	n/a	n/a	n/a	fixation
89082.441902937135	2750	n/a	1478	89	2750	1830.55809706	stim	stop-signal	624	1756168	0.0-25.19-1.19	beast_fmri_test	388	1753659,/,1754339,/,1755018,/,1755699,/,1756379,/,1757058,/,1757739,/	t,t,t,t,t,t,t	<img class = center src='/static/experiments/beast_fmri_test/images/T.png'></img>	71,89	2750.0	test	<img class = center src='/static/experiments/beast_fmri_test/images/redT.png'></img>	go	1800.0	2.0	19.0	go	non-target	T	71,Index Finger	89,Middle Finger	850.0	950.0	1900.0	1800.0	1.0	950.0	n/a	1.0	go_stim
91832.441902937135	1830.5580970628464	n/a	1478	89	2750	1830.55809706	stim	stop-signal	624	1756168	0.0-25.19-1.19	beast_fmri_test	388	1753659,/,1754339,/,1755018,/,1755699,/,1756379,/,1757058,/,1757739,/	t,t,t,t,t,t,t	<img class = center src='/static/experiments/beast_fmri_test/images/T.png'></img>	71,89	2750.0	test	<img class = center src='/static/experiments/beast_fmri_test/images/redT.png'></img>	go	1800.0	2.0	19.0	go	non-target	T	71,Index Finger	89,Middle Finger	850.0	950.0	1900.0	1800.0	1.0	950.0	n/a	1.0	ITI
96058	500	n/a	-1	-1	500	0.0	fixation	poldrack-single-stim	625	1758563	0.0-25.20-0.20	beast_fmri_test	388	1758418,/	t	<div class = centerbox2><div class = fixation>+</div></div>	none	500.0	test	n/a	n/a	n/a	n/a	n/a	n/a	n/a	n/a	n/a	n/a	n/a	n/a	n/a	n/a	n/a	n/a	n/a	n/a	fixation
94078.529617384076	950.0	n/a	-1	-1	2750	1986.47038262	stim	stop-signal	626	1761320	0.0-25.20-1.20	beast_fmri_test	388	1759098,/,1759781,/,1760462,/,1761143,/,1761823,/,1762503,/,1763184,/	t,t,t,t,t,t,t	<img class = center src='/static/experiments/beast_fmri_test/images/T.png'></img>	71,89	2750.0	test	<img class = center src='/static/experiments/beast_fmri_test/images/redT.png'></img>	stop	1800.0	2.0	20.0	stop	non-target	T	71,Index Finger	89,Middle Finger	850.0	950.0	1900.0	1800.0	0.0	950.0	1.0	n/a	go_stim
95878.529617384076	1800.0	n/a	-1	-1	2750	1986.47038262	stim	stop-signal	626	1761320	0.0-25.20-1.20	beast_fmri_test	388	1759098,/,1759781,/,1760462,/,1761143,/,1761823,/,1762503,/,1763184,/	t,t,t,t,t,t,t	<img class = center src='/static/experiments/beast_fmri_test/images/T.png'></img>	71,89	2750.0	test	<img class = center src='/static/experiments/beast_fmri_test/images/redT.png'></img>	stop	1800.0	2.0	20.0	stop	non-target	T	71,Index Finger	89,Middle Finger	850.0	950.0	1900.0	1800.0	0.0	950.0	1.0	n/a	stop_stim
96828.529617384076	1986.4703826159744	n/a	-1	-1	2750	1986.47038262	stim	stop-signal	626	1761320	0.0-25.20-1.20	beast_fmri_test	388	1759098,/,1759781,/,1760462,/,1761143,/,1761823,/,1762503,/,1763184,/	t,t,t,t,t,t,t	<img class = center src='/static/experiments/beast_fmri_test/images/T.png'></img>	71,89	2750.0	test	<img class = center src='/static/experiments/beast_fmri_test/images/redT.png'></img>	stop	1800.0	2.0	20.0	stop	non-target	T	71,Index Finger	89,Middle Finger	850.0	950.0	1900.0	1800.0	0.0	950.0	1.0	n/a	ITI
101361	500	n/a	-1	-1	500	0.0	fixation	poldrack-single-stim	627	1763866	0.0-25.21-0.21	beast_fmri_test	388	1763863,/	t	<div class = centerbox2><div class = fixation>+</div></div>	none	500.0	test	n/a	n/a	n/a	n/a	n/a	n/a	n/a	n/a	n/a	n/a	n/a	n/a	n/a	n/a	n/a	n/a	n/a	n/a	fixation
101327.74940399546	2750	n/a	1368	89	2750	37.2505960046	stim	stop-signal	628	1766620	0.0-25.21-1.21	beast_fmri_test	388	1764544,/,1765223,/,1765903,/,1766584,/	t,t,t,t	<img class = center src='/static/experiments/beast_fmri_test/images/B.png'></img>	71,89	2750.0	test	<img class = center src='/static/experiments/beast_fmri_test/images/redB.png'></img>	go	1750.0	2.0	21.0	go	non-target	B	71,Index Finger	89,Middle Finger	850.0	1000.0	1900.0	1750.0	1.0	1000.0	n/a	1.0	go_stim
104077.74940399546	37.250596004563647	n/a	1368	89	2750	37.2505960046	stim	stop-signal	628	1766620	0.0-25.21-1.21	beast_fmri_test	388	1764544,/,1765223,/,1765903,/,1766584,/	t,t,t,t	<img class = center src='/static/experiments/beast_fmri_test/images/B.png'></img>	71,89	2750.0	test	<img class = center src='/static/experiments/beast_fmri_test/images/redB.png'></img>	go	1750.0	2.0	21.0	go	non-target	B	71,Index Finger	89,Middle Finger	850.0	1000.0	1900.0	1750.0	1.0	1000.0	n/a	1.0	ITI
104712	500	n/a	-1	-1	500	0.0	fixation	poldrack-single-stim	629	1767217	0.0-25.22-0.22	beast_fmri_test	388	n/a	n/a	<div class = centerbox2><div class = fixation>+</div></div>	none	500.0	test	n/a	n/a	n/a	n/a	n/a	n/a	n/a	n/a	n/a	n/a	n/a	n/a	n/a	n/a	n/a	n/a	n/a	n/a	fixation
104324.08849559072	850.0	n/a	-1	-1	2750	394.911504409	stim	stop-signal	630	1769974	0.0-25.22-1.22	beast_fmri_test	388	1767263,/,1767944,/,1768624,/,1769304,/,1769985,/	t,t,t,t,t	<img class = center src='/static/experiments/beast_fmri_test/images/T.png'></img>	71,89	2750.0	test	<img class = center src='/static/experiments/beast_fmri_test/images/redT.png'></img>	stop	1900.0	2.0	22.0	stop	target	T	71,Index Finger	89,Middle Finger	850.0	1000.0	1900.0	1750.0	0.0	850.0	1.0	n/a	go_stim
106224.08849559072	1900.0	n/a	-1	-1	2750	394.911504409	stim	stop-signal	630	1769974	0.0-25.22-1.22	beast_fmri_test	388	1767263,/,1767944,/,1768624,/,1769304,/,1769985,/	t,t,t,t,t	<img class = center src='/static/experiments/beast_fmri_test/images/T.png'></img>	71,89	2750.0	test	<img class = center src='/static/experiments/beast_fmri_test/images/redT.png'></img>	stop	1900.0	2.0	22.0	stop	target	T	71,Index Finger	89,Middle Finger	850.0	1000.0	1900.0	1750.0	0.0	850.0	1.0	n/a	stop_stim
107074.08849559072	394.91150440923178	n/a	-1	-1	2750	394.911504409	stim	stop-signal	630	1769974	0.0-25.22-1.22	beast_fmri_test	388	1767263,/,1767944,/,1768624,/,1769304,/,1769985,/	t,t,t,t,t	<img class = center src='/static/experiments/beast_fmri_test/images/T.png'></img>	71,89	2750.0	test	<img class = center src='/static/experiments/beast_fmri_test/images/redT.png'></img>	stop	1900.0	2.0	22.0	stop	target	T	71,Index Finger	89,Middle Finger	850.0	1000.0	1900.0	1750.0	0.0	850.0	1.0	n/a	ITI
108435	500	n/a	-1	-1	500	0.0	fixation	poldrack-single-stim	631	1770940	0.0-25.23-0.23	beast_fmri_test	388	1770669,/	t	<div class = centerbox2><div class = fixation>+</div></div>	none	500.0	test	n/a	n/a	n/a	n/a	n/a	n/a	n/a	n/a	n/a	n/a	n/a	n/a	n/a	n/a	n/a	n/a	n/a	n/a	fixation
106947.10223734239	1000.0	n/a	-1	-1	2750	1492.89776266	stim	stop-signal	632	1773695	0.0-25.23-1.23	beast_fmri_test	388	1771347,/,1772028,/,1772707,/,1773388,/,1774068,/,1774747,/	t,t,t,t,t,t	<img class = center src='/static/experiments/beast_fmri_test/images/T.png'></img>	71,89	2750.0	test	<img class = center src='/static/experiments/beast_fmri_test/images/redT.png'></img>	stop	1750.0	2.0	23.0	stop	non-target	T	71,Index Finger	89,Middle Finger	900.0	1000.0	1900.0	1750.0	0.0	1000.0	1.0	n/a	go_stim
108697.10223734239	1750.0	n/a	-1	-1	2750	1492.89776266	stim	stop-signal	632	1773695	0.0-25.23-1.23	beast_fmri_test	388	1771347,/,1772028,/,1772707,/,1773388,/,1774068,/,1774747,/	t,t,t,t,t,t	<img class = center src='/static/experiments/beast_fmri_test/images/T.png'></img>	71,89	2750.0	test	<img class = center src='/static/experiments/beast_fmri_test/images/redT.png'></img>	stop	1750.0	2.0	23.0	stop	non-target	T	71,Index Finger	89,Middle Finger	900.0	1000.0	1900.0	1750.0	0.0	1000.0	1.0	n/a	stop_stim
109697.10223734239	1492.8977626575461	n/a	-1	-1	2750	1492.89776266	stim	stop-signal	632	1773695	0.0-25.23-1.23	beast_fmri_test	388	1771347,/,1772028,/,1772707,/,1773388,/,1774068,/,1774747,/	t,t,t,t,t,t	<img class = center src='/static/experiments/beast_fmri_test/images/T.png'></img>	71,89	2750.0	test	<img class = center src='/static/experiments/beast_fmri_test/images/redT.png'></img>	stop	1750.0	2.0	23.0	stop	non-target	T	71,Index Finger	89,Middle Finger	900.0	1000.0	1900.0	1750.0	0.0	1000.0	1.0	n/a	ITI
113252	500	n/a	-1	-1	500	0.0	fixation	poldrack-single-stim	633	1775757	0.0-25.24-0.24	beast_fmri_test	388	1775429,/	t	<div class = centerbox2><div class = fixation>+</div></div>	none	500.0	test	n/a	n/a	n/a	n/a	n/a	n/a	n/a	n/a	n/a	n/a	n/a	n/a	n/a	n/a	n/a	n/a	n/a	n/a	fixation
111904.65288173221	2750	n/a	959	89	2750	1350.34711827	stim	stop-signal	634	1778510	0.0-25.24-1.24	beast_fmri_test	388	1776107,/,1776789,/,1777468,/,1778148,/,1778828,/,1779508,/	t,t,t,t,t,t	<img class = center src='/static/experiments/beast_fmri_test/images/V.png'></img>	71,89	2750.0	test	<img class = center src='/static/experiments/beast_fmri_test/images/redV.png'></img>	go	1700.0	2.0	24.0	go	non-target	V	71,Index Finger	89,Middle Finger	900.0	1050.0	1900.0	1700.0	1.0	1050.0	n/a	1.0	go_stim
114654.65288173221	1350.3471182678959	n/a	959	89	2750	1350.34711827	stim	stop-signal	634	1778510	0.0-25.24-1.24	beast_fmri_test	388	1776107,/,1776789,/,1777468,/,1778148,/,1778828,/,1779508,/	t,t,t,t,t,t	<img class = center src='/static/experiments/beast_fmri_test/images/V.png'></img>	71,89	2750.0	test	<img class = center src='/static/experiments/beast_fmri_test/images/redV.png'></img>	go	1700.0	2.0	24.0	go	non-target	V	71,Index Finger	89,Middle Finger	900.0	1050.0	1900.0	1700.0	1.0	1050.0	n/a	1.0	ITI
117921	500	n/a	-1	-1	500	0.0	fixation	poldrack-single-stim	635	1780426	0.0-25.25-0.25	beast_fmri_test	388	1780192,/	t	<div class = centerbox2><div class = fixation>+</div></div>	none	500.0	test	n/a	n/a	n/a	n/a	n/a	n/a	n/a	n/a	n/a	n/a	n/a	n/a	n/a	n/a	n/a	n/a	n/a	n/a	fixation
117277.2010766021	900.0	n/a	-1	-1	2750	645.798923398	stim	stop-signal	636	1783178	0.0-25.25-1.25	beast_fmri_test	388	1780872,/,1781552,/,1782232,/,1782912,/,1783592,/	t,t,t,t,t	<img class = center src='/static/experiments/beast_fmri_test/images/T.png'></img>	71,89	2750.0	test	<img class = center src='/static/experiments/beast_fmri_test/images/redT.png'></img>	stop	1850.0	2.0	25.0	stop	target	T	71,Index Finger	89,Middle Finger	900.0	1050.0	1850.0	1700.0	0.0	900.0	1.0	n/a	go_stim
119127.2010766021	1850.0	n/a	-1	-1	2750	645.798923398	stim	stop-signal	636	1783178	0.0-25.25-1.25	beast_fmri_test	388	1780872,/,1781552,/,1782232,/,1782912,/,1783592,/	t,t,t,t,t	<img class = center src='/static/experiments/beast_fmri_test/images/T.png'></img>	71,89	2750.0	test	<img class = center src='/static/experiments/beast_fmri_test/images/redT.png'></img>	stop	1850.0	2.0	25.0	stop	target	T	71,Index Finger	89,Middle Finger	900.0	1050.0	1850.0	1700.0	0.0	900.0	1.0	n/a	stop_stim
120027.2010766021	645.79892339799267	n/a	-1	-1	2750	645.798923398	stim	stop-signal	636	1783178	0.0-25.25-1.25	beast_fmri_test	388	1780872,/,1781552,/,1782232,/,1782912,/,1783592,/	t,t,t,t,t	<img class = center src='/static/experiments/beast_fmri_test/images/T.png'></img>	71,89	2750.0	test	<img class = center src='/static/experiments/beast_fmri_test/images/redT.png'></img>	stop	1850.0	2.0	25.0	stop	target	T	71,Index Finger	89,Middle Finger	900.0	1050.0	1850.0	1700.0	0.0	900.0	1.0	n/a	ITI
121880	500	n/a	-1	-1	500	0.0	fixation	poldrack-single-stim	637	1784385	0.0-25.26-0.26	beast_fmri_test	388	1784272,/	t	<div class = centerbox2><div class = fixation>+</div></div>	none	500.0	test	n/a	n/a	n/a	n/a	n/a	n/a	n/a	n/a	n/a	n/a	n/a	n/a	n/a	n/a	n/a	n/a	n/a	n/a	fixation
121838.43514468824	2750	n/a	914	71	2750	45.5648553118	stim	stop-signal	638	1787139	0.0-25.26-1.26	beast_fmri_test	388	1784953,/,1785633,/,1786313,/,1786993,/	t,t,t,t	<img class = center src='/static/experiments/beast_fmri_test/images/V.png'></img>	71,89	2750.0	test	<img class = center src='/static/experiments/beast_fmri_test/images/redV.png'></img>	go	1800.0	2.0	26.0	go	target	V	71,Index Finger	89,Middle Finger	950.0	1050.0	1800.0	1700.0	1.0	950.0	n/a	1.0	go_stim
124588.43514468824	45.564855311801736	n/a	914	71	2750	45.5648553118	stim	stop-signal	638	1787139	0.0-25.26-1.26	beast_fmri_test	388	1784953,/,1785633,/,1786313,/,1786993,/	t,t,t,t	<img class = center src='/static/experiments/beast_fmri_test/images/V.png'></img>	71,89	2750.0	test	<img class = center src='/static/experiments/beast_fmri_test/images/redV.png'></img>	go	1800.0	2.0	26.0	go	target	V	71,Index Finger	89,Middle Finger	950.0	1050.0	1800.0	1700.0	1.0	950.0	n/a	1.0	ITI
125241	500	n/a	-1	-1	500	0.0	fixation	poldrack-single-stim	639	1787746	0.0-25.27-0.27	beast_fmri_test	388	1787672,/	t	<div class = centerbox2><div class = fixation>+</div></div>	none	500.0	test	n/a	n/a	n/a	n/a	n/a	n/a	n/a	n/a	n/a	n/a	n/a	n/a	n/a	n/a	n/a	n/a	n/a	n/a	fixation
125030.81992756645	950.0	n/a	-1	-1	2750	216.180072434	stim	stop-signal	640	1790502	0.0-25.27-1.27	beast_fmri_test	388	1788352,/,1789032,/,1789714,/,1790395,/	t,t,t,t	<img class = center src='/static/experiments/beast_fmri_test/images/T.png'></img>	71,89	2750.0	test	<img class = center src='/static/experiments/beast_fmri_test/images/redT.png'></img>	stop	1800.0	2.0	27.0	stop	target	T	71,Index Finger	89,Middle Finger	950.0	1050.0	1800.0	1700.0	0.0	950.0	1.0	n/a	go_stim
126830.81992756645	1800.0	n/a	-1	-1	2750	216.180072434	stim	stop-signal	640	1790502	0.0-25.27-1.27	beast_fmri_test	388	1788352,/,1789032,/,1789714,/,1790395,/	t,t,t,t	<img class = center src='/static/experiments/beast_fmri_test/images/T.png'></img>	71,89	2750.0	test	<img class = center src='/static/experiments/beast_fmri_test/images/redT.png'></img>	stop	1800.0	2.0	27.0	stop	target	T	71,Index Finger	89,Middle Finger	950.0	1050.0	1800.0	1700.0	0.0	950.0	1.0	n/a	stop_stim
127780.81992756645	216.18007243357877	n/a	-1	-1	2750	216.180072434	stim	stop-signal	640	1790502	0.0-25.27-1.27	beast_fmri_test	388	1788352,/,1789032,/,1789714,/,1790395,/	t,t,t,t	<img class = center src='/static/experiments/beast_fmri_test/images/T.png'></img>	71,89	2750.0	test	<img class = center src='/static/experiments/beast_fmri_test/images/redT.png'></img>	stop	1800.0	2.0	27.0	stop	target	T	71,Index Finger	89,Middle Finger	950.0	1050.0	1800.0	1700.0	0.0	950.0	1.0	n/a	ITI
128774	500	n/a	-1	-1	500	0.0	fixation	poldrack-single-stim	641	1791279	0.0-25.28-0.28	beast_fmri_test	388	1791077,/	t	<div class = centerbox2><div class = fixation>+</div></div>	none	500.0	test	n/a	n/a	n/a	n/a	n/a	n/a	n/a	n/a	n/a	n/a	n/a	n/a	n/a	n/a	n/a	n/a	n/a	n/a	fixation
127167.74334469507	1050.0	n/a	954	89	2750	1609.2566553	stim	stop-signal	642	1794032	0.0-25.28-1.28	beast_fmri_test	388	1791757,/,1792436,/,1793116,/,1793797,/,1794477,/,1795158,/	t,t,t,t,t,t	<img class = center src='/static/experiments/beast_fmri_test/images/D.png'></img>	71,89	2750.0	test	<img class = center src='/static/experiments/beast_fmri_test/images/redD.png'></img>	stop	1700.0	2.0	28.0	stop	non-target	D	71,Index Finger	89,Middle Finger	1000.0	1050.0	1800.0	1700.0	0.0	1050.0	0.0	n/a	go_stim
128867.74334469507	1700.0	n/a	954	89	2750	1609.2566553	stim	stop-signal	642	1794032	0.0-25.28-1.28	beast_fmri_test	388	1791757,/,1792436,/,1793116,/,1793797,/,1794477,/,1795158,/	t,t,t,t,t,t	<img class = center src='/static/experiments/beast_fmri_test/images/D.png'></img>	71,89	2750.0	test	<img class = center src='/static/experiments/beast_fmri_test/images/redD.png'></img>	stop	1700.0	2.0	28.0	stop	non-target	D	71,Index Finger	89,Middle Finger	1000.0	1050.0	1800.0	1700.0	0.0	1050.0	0.0	n/a	stop_stim
129917.74334469507	1609.2566553049203	n/a	954	89	2750	1609.2566553	stim	stop-signal	642	1794032	0.0-25.28-1.28	beast_fmri_test	388	1791757,/,1792436,/,1793116,/,1793797,/,1794477,/,1795158,/	t,t,t,t,t,t	<img class = center src='/static/experiments/beast_fmri_test/images/D.png'></img>	71,89	2750.0	test	<img class = center src='/static/experiments/beast_fmri_test/images/redD.png'></img>	stop	1700.0	2.0	28.0	stop	non-target	D	71,Index Finger	89,Middle Finger	1000.0	1050.0	1800.0	1700.0	0.0	1050.0	0.0	n/a	ITI
133699	500	n/a	-1	-1	500	0.0	fixation	poldrack-single-stim	643	1796204	0.0-25.29-0.29	beast_fmri_test	388	1795838,/	t	<div class = centerbox2><div class = fixation>+</div></div>	none	500.0	test	n/a	n/a	n/a	n/a	n/a	n/a	n/a	n/a	n/a	n/a	n/a	n/a	n/a	n/a	n/a	n/a	n/a	n/a	fixation
133005.96258358425	1000.0	n/a	900	71	2750	697.037416416	stim	stop-signal	644	1798958	0.0-25.29-1.29	beast_fmri_test	388	1796518,/,1797197,/,1797877,/,1798557,/,1799238,/	t,t,t,t,t	<img class = center src='/static/experiments/beast_fmri_test/images/T.png'></img>	71,89	2750.0	test	<img class = center src='/static/experiments/beast_fmri_test/images/redT.png'></img>	stop	1750.0	2.0	29.0	stop	target	T	71,Index Finger	89,Middle Finger	1000.0	1000.0	1750.0	1700.0	0.0	1000.0	0.0	n/a	go_stim
134755.96258358425	1750.0	n/a	900	71	2750	697.037416416	stim	stop-signal	644	1798958	0.0-25.29-1.29	beast_fmri_test	388	1796518,/,1797197,/,1797877,/,1798557,/,1799238,/	t,t,t,t,t	<img class = center src='/static/experiments/beast_fmri_test/images/T.png'></img>	71,89	2750.0	test	<img class = center src='/static/experiments/beast_fmri_test/images/redT.png'></img>	stop	1750.0	2.0	29.0	stop	target	T	71,Index Finger	89,Middle Finger	1000.0	1000.0	1750.0	1700.0	0.0	1000.0	0.0	n/a	stop_stim
135755.96258358425	697.0374164158568	n/a	900	71	2750	697.037416416	stim	stop-signal	644	1798958	0.0-25.29-1.29	beast_fmri_test	388	1796518,/,1797197,/,1797877,/,1798557,/,1799238,/	t,t,t,t,t	<img class = center src='/static/experiments/beast_fmri_test/images/T.png'></img>	71,89	2750.0	test	<img class = center src='/static/experiments/beast_fmri_test/images/redT.png'></img>	stop	1750.0	2.0	29.0	stop	target	T	71,Index Finger	89,Middle Finger	1000.0	1000.0	1750.0	1700.0	0.0	1000.0	0.0	n/a	ITI
137719	500	n/a	-1	-1	500	0.0	fixation	poldrack-single-stim	645	1800224	0.0-25.30-0.30	beast_fmri_test	388	1799920,/	t	<div class = centerbox2><div class = fixation>+</div></div>	none	500.0	test	n/a	n/a	n/a	n/a	n/a	n/a	n/a	n/a	n/a	n/a	n/a	n/a	n/a	n/a	n/a	n/a	n/a	n/a	fixation
137165.05537931016	2750	n/a	1213	71	2750	557.94462069	stim	stop-signal	646	1802978	0.0-25.30-1.30	beast_fmri_test	388	1800602,/,1801281,/,1801961,/,1802640,/,1803321,/	t,t,t,t,t	<img class = center src='/static/experiments/beast_fmri_test/images/V.png'></img>	71,89	2750.0	test	<img class = center src='/static/experiments/beast_fmri_test/images/redV.png'></img>	go	1750.0	2.0	30.0	go	non-target	V	71,Index Finger	89,Middle Finger	950.0	1000.0	1750.0	1750.0	0.0	1000.0	n/a	0.0	go_stim
139915.05537931016	557.9446206899587	n/a	1213	71	2750	557.94462069	stim	stop-signal	646	1802978	0.0-25.30-1.30	beast_fmri_test	388	1800602,/,1801281,/,1801961,/,1802640,/,1803321,/	t,t,t,t,t	<img class = center src='/static/experiments/beast_fmri_test/images/V.png'></img>	71,89	2750.0	test	<img class = center src='/static/experiments/beast_fmri_test/images/redV.png'></img>	go	1750.0	2.0	30.0	go	non-target	V	71,Index Finger	89,Middle Finger	950.0	1000.0	1750.0	1750.0	0.0	1000.0	n/a	0.0	ITI
141600	500	n/a	-1	-1	500	0.0	fixation	poldrack-single-stim	647	1804105	0.0-25.31-0.31	beast_fmri_test	388	1804000,/	t	<div class = centerbox2><div class = fixation>+</div></div>	none	500.0	test	n/a	n/a	n/a	n/a	n/a	n/a	n/a	n/a	n/a	n/a	n/a	n/a	n/a	n/a	n/a	n/a	n/a	n/a	fixation
140723.03180768387	2750	n/a	1667	89	2750	880.968192316	stim	stop-signal	648	1806859	0.0-25.31-1.31	beast_fmri_test	388	1804681,/,1805362,/,1806041,/,1806721,/,1807401,/	t,t,t,t,t	<img class = center src='/static/experiments/beast_fmri_test/images/D.png'></img>	71,89	2750.0	test	<img class = center src='/static/experiments/beast_fmri_test/images/redD.png'></img>	go	1750.0	2.0	31.0	go	non-target	D	71,Index Finger	89,Middle Finger	950.0	1000.0	1750.0	1750.0	1.0	1000.0	n/a	1.0	go_stim
143473.03180768387	880.96819231621919	n/a	1667	89	2750	880.968192316	stim	stop-signal	648	1806859	0.0-25.31-1.31	beast_fmri_test	388	1804681,/,1805362,/,1806041,/,1806721,/,1807401,/	t,t,t,t,t	<img class = center src='/static/experiments/beast_fmri_test/images/D.png'></img>	71,89	2750.0	test	<img class = center src='/static/experiments/beast_fmri_test/images/redD.png'></img>	go	1750.0	2.0	31.0	go	non-target	D	71,Index Finger	89,Middle Finger	950.0	1000.0	1750.0	1750.0	1.0	1000.0	n/a	1.0	ITI
145798	500	n/a	-1	-1	500	0.0	fixation	poldrack-single-stim	649	1808303	0.0-25.32-0.32	beast_fmri_test	388	1808081,/	t	<div class = centerbox2><div class = fixation>+</div></div>	none	500.0	test	n/a	n/a	n/a	n/a	n/a	n/a	n/a	n/a	n/a	n/a	n/a	n/a	n/a	n/a	n/a	n/a	n/a	n/a	fixation
143259.15834352584	2750	n/a	1588	71	2750	2545.84165647	stim	stop-signal	650	1811060	0.0-25.32-1.32	beast_fmri_test	388	1808761,/,1809442,/,1810125,/,1810805,/,1811485,/,1812165,/,1812845,/,1813526,/	t,t,t,t,t,t,t,t	<img class = center src='/static/experiments/beast_fmri_test/images/V.png'></img>	71,89	2750.0	test	<img class = center src='/static/experiments/beast_fmri_test/images/redV.png'></img>	go	1800.0	2.0	32.0	go	target	V	71,Index Finger	89,Middle Finger	950.0	1000.0	1800.0	1750.0	1.0	950.0	n/a	1.0	go_stim
146009.15834352584	2545.8416564741328	n/a	1588	71	2750	2545.84165647	stim	stop-signal	650	1811060	0.0-25.32-1.32	beast_fmri_test	388	1808761,/,1809442,/,1810125,/,1810805,/,1811485,/,1812165,/,1812845,/,1813526,/	t,t,t,t,t,t,t,t	<img class = center src='/static/experiments/beast_fmri_test/images/V.png'></img>	71,89	2750.0	test	<img class = center src='/static/experiments/beast_fmri_test/images/redV.png'></img>	go	1800.0	2.0	32.0	go	target	V	71,Index Finger	89,Middle Finger	950.0	1000.0	1800.0	1750.0	1.0	950.0	n/a	1.0	ITI
151664	500	n/a	-1	-1	500	0.0	fixation	poldrack-single-stim	651	1814169	0.0-25.33-0.33	beast_fmri_test	388	n/a	n/a	<div class = centerbox2><div class = fixation>+</div></div>	none	500.0	test	n/a	n/a	n/a	n/a	n/a	n/a	n/a	n/a	n/a	n/a	n/a	n/a	n/a	n/a	n/a	n/a	n/a	n/a	fixation
151518.71020082454	1000.0	n/a	-1	-1	2750	149.289799175	stim	stop-signal	652	1816923	0.0-25.33-1.33	beast_fmri_test	388	1814204,/,1814886,/,1815565,/,1816244,/,1816925,/	t,t,t,t,t	<img class = center src='/static/experiments/beast_fmri_test/images/T.png'></img>	71,89	2750.0	test	<img class = center src='/static/experiments/beast_fmri_test/images/redT.png'></img>	stop	1750.0	2.0	33.0	stop	non-target	T	71,Index Finger	89,Middle Finger	950.0	1000.0	1800.0	1750.0	0.0	1000.0	1.0	n/a	go_stim
153268.71020082454	1750.0	n/a	-1	-1	2750	149.289799175	stim	stop-signal	652	1816923	0.0-25.33-1.33	beast_fmri_test	388	1814204,/,1814886,/,1815565,/,1816244,/,1816925,/	t,t,t,t,t	<img class = center src='/static/experiments/beast_fmri_test/images/T.png'></img>	71,89	2750.0	test	<img class = center src='/static/experiments/beast_fmri_test/images/redT.png'></img>	stop	1750.0	2.0	33.0	stop	non-target	T	71,Index Finger	89,Middle Finger	950.0	1000.0	1800.0	1750.0	0.0	1000.0	1.0	n/a	stop_stim
154268.71020082454	149.28979917548892	n/a	-1	-1	2750	149.289799175	stim	stop-signal	652	1816923	0.0-25.33-1.33	beast_fmri_test	388	1814204,/,1814886,/,1815565,/,1816244,/,1816925,/	t,t,t,t,t	<img class = center src='/static/experiments/beast_fmri_test/images/T.png'></img>	71,89	2750.0	test	<img class = center src='/static/experiments/beast_fmri_test/images/redT.png'></img>	stop	1750.0	2.0	33.0	stop	non-target	T	71,Index Finger	89,Middle Finger	950.0	1000.0	1800.0	1750.0	0.0	1000.0	1.0	n/a	ITI
155144	500	n/a	-1	-1	500	0.0	fixation	poldrack-single-stim	653	1817649	0.0-25.34-0.34	beast_fmri_test	388	1817609,/	t	<div class = centerbox2><div class = fixation>+</div></div>	none	500.0	test	n/a	n/a	n/a	n/a	n/a	n/a	n/a	n/a	n/a	n/a	n/a	n/a	n/a	n/a	n/a	n/a	n/a	n/a	fixation
154855.87556470511	2750	n/a	1340	89	2750	293.124435295	stim	stop-signal	654	1820404	0.0-25.34-1.34	beast_fmri_test	388	1818289,/,1818970,/,1819650,/,1820329,/	t,t,t,t	<img class = center src='/static/experiments/beast_fmri_test/images/P.png'></img>	71,89	2750.0	test	<img class = center src='/static/experiments/beast_fmri_test/images/redP.png'></img>	go	1700.0	2.0	34.0	go	non-target	P	71,Index Finger	89,Middle Finger	950.0	1050.0	1800.0	1700.0	1.0	1050.0	n/a	1.0	go_stim
157605.87556470511	293.1244352947993	n/a	1340	89	2750	293.124435295	stim	stop-signal	654	1820404	0.0-25.34-1.34	beast_fmri_test	388	1818289,/,1818970,/,1819650,/,1820329,/	t,t,t,t	<img class = center src='/static/experiments/beast_fmri_test/images/P.png'></img>	71,89	2750.0	test	<img class = center src='/static/experiments/beast_fmri_test/images/redP.png'></img>	go	1700.0	2.0	34.0	go	non-target	P	71,Index Finger	89,Middle Finger	950.0	1050.0	1800.0	1700.0	1.0	1050.0	n/a	1.0	ITI
158758	500	n/a	-1	-1	500	0.0	fixation	poldrack-single-stim	655	1821263	0.0-25.35-0.35	beast_fmri_test	388	1821010,/	t	<div class = centerbox2><div class = fixation>+</div></div>	none	500.0	test	n/a	n/a	n/a	n/a	n/a	n/a	n/a	n/a	n/a	n/a	n/a	n/a	n/a	n/a	n/a	n/a	n/a	n/a	fixation
157262.85712881014	2750	n/a	1111	71	2750	1498.14287119	stim	stop-signal	656	1824016	0.0-25.35-1.35	beast_fmri_test	388	1821689,/,1822372,/,1823051,/,1823730,/,1824410,/,1825090,/	t,t,t,t,t,t	<img class = center src='/static/experiments/beast_fmri_test/images/T.png'></img>	71,89	2750.0	test	<img class = center src='/static/experiments/beast_fmri_test/images/redT.png'></img>	go	1800.0	2.0	35.0	go	target	T	71,Index Finger	89,Middle Finger	950.0	1050.0	1800.0	1700.0	1.0	950.0	n/a	1.0	go_stim
160012.85712881014	1498.1428711898154	n/a	1111	71	2750	1498.14287119	stim	stop-signal	656	1824016	0.0-25.35-1.35	beast_fmri_test	388	1821689,/,1822372,/,1823051,/,1823730,/,1824410,/,1825090,/	t,t,t,t,t,t	<img class = center src='/static/experiments/beast_fmri_test/images/T.png'></img>	71,89	2750.0	test	<img class = center src='/static/experiments/beast_fmri_test/images/redT.png'></img>	go	1800.0	2.0	35.0	go	target	T	71,Index Finger	89,Middle Finger	950.0	1050.0	1800.0	1700.0	1.0	950.0	n/a	1.0	ITI
163575	500	n/a	-1	-1	500	0.0	fixation	poldrack-single-stim	657	1826080	0.0-25.36-0.36	beast_fmri_test	388	1825771,/	t	<div class = centerbox2><div class = fixation>+</div></div>	none	500.0	test	n/a	n/a	n/a	n/a	n/a	n/a	n/a	n/a	n/a	n/a	n/a	n/a	n/a	n/a	n/a	n/a	n/a	n/a	fixation
158733.85699695651	2750	n/a	1836	89	2750	4844.14300304	stim	stop-signal	658	1828833	0.0-25.36-1.36	beast_fmri_test	388	1826450,/,1827131,/,1827811,/,1828491,/,1829171,/,1829853,/,1830534,/,1831214,/,1831895,/,1832575,/,1833255,/	t,t,t,t,t,t,t,t,t,t,t	<img class = center src='/static/experiments/beast_fmri_test/images/T.png'></img>	71,89	2750.0	test	<img class = center src='/static/experiments/beast_fmri_test/images/redT.png'></img>	go	1700.0	2.0	36.0	go	non-target	T	71,Index Finger	89,Middle Finger	950.0	1050.0	1800.0	1700.0	1.0	1050.0	n/a	1.0	go_stim
161483.85699695651	4844.1430030433785	n/a	1836	89	2750	4844.14300304	stim	stop-signal	658	1828833	0.0-25.36-1.36	beast_fmri_test	388	1826450,/,1827131,/,1827811,/,1828491,/,1829171,/,1829853,/,1830534,/,1831214,/,1831895,/,1832575,/,1833255,/	t,t,t,t,t,t,t,t,t,t,t	<img class = center src='/static/experiments/beast_fmri_test/images/T.png'></img>	71,89	2750.0	test	<img class = center src='/static/experiments/beast_fmri_test/images/redT.png'></img>	go	1700.0	2.0	36.0	go	non-target	T	71,Index Finger	89,Middle Finger	950.0	1050.0	1800.0	1700.0	1.0	1050.0	n/a	1.0	ITI
171742	500	n/a	-1	-1	500	0.0	fixation	poldrack-single-stim	659	1834247	0.0-25.37-0.37	beast_fmri_test	388	1833934,/	t	<div class = centerbox2><div class = fixation>+</div></div>	none	500.0	test	n/a	n/a	n/a	n/a	n/a	n/a	n/a	n/a	n/a	n/a	n/a	n/a	n/a	n/a	n/a	n/a	n/a	n/a	fixation
169778.51725563779	2750	n/a	334	71	2750	1967.48274436	stim	stop-signal	660	1837001	0.0-25.37-1.37	beast_fmri_test	388	1834614,/,1835294,/,1835975,/,1836655,/,1837335,/,1838015,/,1838695,/	t,t,t,t,t,t,t	<img class = center src='/static/experiments/beast_fmri_test/images/T.png'></img>	71,89	2750.0	test	<img class = center src='/static/experiments/beast_fmri_test/images/redT.png'></img>	go	1800.0	2.0	37.0	go	target	T	71,Index Finger	89,Middle Finger	950.0	1050.0	1800.0	1700.0	1.0	950.0	n/a	1.0	go_stim
172528.51725563779	1967.4827443621821	n/a	334	71	2750	1967.48274436	stim	stop-signal	660	1837001	0.0-25.37-1.37	beast_fmri_test	388	1834614,/,1835294,/,1835975,/,1836655,/,1837335,/,1838015,/,1838695,/	t,t,t,t,t,t,t	<img class = center src='/static/experiments/beast_fmri_test/images/T.png'></img>	71,89	2750.0	test	<img class = center src='/static/experiments/beast_fmri_test/images/redT.png'></img>	go	1800.0	2.0	37.0	go	target	T	71,Index Finger	89,Middle Finger	950.0	1050.0	1800.0	1700.0	1.0	950.0	n/a	1.0	ITI
177030	500	n/a	-1	-1	500	0.0	fixation	poldrack-single-stim	661	1839535	0.0-25.38-0.38	beast_fmri_test	388	1839375,/	t	<div class = centerbox2><div class = fixation>+</div></div>	none	500.0	test	n/a	n/a	n/a	n/a	n/a	n/a	n/a	n/a	n/a	n/a	n/a	n/a	n/a	n/a	n/a	n/a	n/a	n/a	fixation
176545.3246590877	2750	n/a	1065	71	2750	486.675340912	stim	stop-signal	662	1842287	0.0-25.38-1.38	beast_fmri_test	388	1840054,/,1840735,/,1841414,/,1842095,/,1842775,/	t,t,t,t,t	<img class = center src='/static/experiments/beast_fmri_test/images/T.png'></img>	71,89	2750.0	test	<img class = center src='/static/experiments/beast_fmri_test/images/redT.png'></img>	go	1800.0	2.0	38.0	go	target	T	71,Index Finger	89,Middle Finger	950.0	1050.0	1800.0	1700.0	1.0	950.0	n/a	1.0	go_stim
179295.3246590877	486.67534091228964	n/a	1065	71	2750	486.675340912	stim	stop-signal	662	1842287	0.0-25.38-1.38	beast_fmri_test	388	1840054,/,1840735,/,1841414,/,1842095,/,1842775,/	t,t,t,t,t	<img class = center src='/static/experiments/beast_fmri_test/images/T.png'></img>	71,89	2750.0	test	<img class = center src='/static/experiments/beast_fmri_test/images/redT.png'></img>	go	1800.0	2.0	38.0	go	target	T	71,Index Finger	89,Middle Finger	950.0	1050.0	1800.0	1700.0	1.0	950.0	n/a	1.0	ITI
180835	500	n/a	-1	-1	500	0.0	fixation	poldrack-single-stim	663	1843340	0.0-25.39-0.39	beast_fmri_test	388	n/a	n/a	<div class = centerbox2><div class = fixation>+</div></div>	none	500.0	test	n/a	n/a	n/a	n/a	n/a	n/a	n/a	n/a	n/a	n/a	n/a	n/a	n/a	n/a	n/a	n/a	n/a	n/a	fixation
180669.14231445175	2750	n/a	809	89	2750	169.857685548	stim	stop-signal	664	1846094	0.0-25.39-1.39	beast_fmri_test	388	1843455,/,1844135,/,1844814,/,1845494,/,1846175,/	t,t,t,t,t	<img class = center src='/static/experiments/beast_fmri_test/images/B.png'></img>	71,89	2750.0	test	<img class = center src='/static/experiments/beast_fmri_test/images/redB.png'></img>	go	1700.0	2.0	39.0	go	non-target	B	71,Index Finger	89,Middle Finger	950.0	1050.0	1800.0	1700.0	1.0	1050.0	n/a	1.0	go_stim
183419.14231445175	169.857685548322	n/a	809	89	2750	169.857685548	stim	stop-signal	664	1846094	0.0-25.39-1.39	beast_fmri_test	388	1843455,/,1844135,/,1844814,/,1845494,/,1846175,/	t,t,t,t,t	<img class = center src='/static/experiments/beast_fmri_test/images/B.png'></img>	71,89	2750.0	test	<img class = center src='/static/experiments/beast_fmri_test/images/redB.png'></img>	go	1700.0	2.0	39.0	go	non-target	B	71,Index Finger	89,Middle Finger	950.0	1050.0	1800.0	1700.0	1.0	1050.0	n/a	1.0	ITI
184325	500	n/a	-1	-1	500	0.0	fixation	poldrack-single-stim	665	1846830	0.0-25.40-0.40	beast_fmri_test	388	n/a	n/a	<div class = centerbox2><div class = fixation>+</div></div>	none	500.0	test	n/a	n/a	n/a	n/a	n/a	n/a	n/a	n/a	n/a	n/a	n/a	n/a	n/a	n/a	n/a	n/a	n/a	n/a	fixation
183494.781020856	2750	n/a	767	71	2750	834.218979144	stim	stop-signal	666	1849584	0.0-25.40-1.40	beast_fmri_test	388	1846853,/,1847535,/,1848215,/,1848895,/,1849575,/,1850260,/	t,t,t,t,t,t	<img class = center src='/static/experiments/beast_fmri_test/images/T.png'></img>	71,89	2750.0	test	<img class = center src='/static/experiments/beast_fmri_test/images/redT.png'></img>	go	1800.0	2.0	40.0	go	target	T	71,Index Finger	89,Middle Finger	950.0	1050.0	1800.0	1700.0	1.0	950.0	n/a	1.0	go_stim
186244.781020856	834.21897914396379	n/a	767	71	2750	834.218979144	stim	stop-signal	666	1849584	0.0-25.40-1.40	beast_fmri_test	388	1846853,/,1847535,/,1848215,/,1848895,/,1849575,/,1850260,/	t,t,t,t,t,t	<img class = center src='/static/experiments/beast_fmri_test/images/T.png'></img>	71,89	2750.0	test	<img class = center src='/static/experiments/beast_fmri_test/images/redT.png'></img>	go	1800.0	2.0	40.0	go	target	T	71,Index Finger	89,Middle Finger	950.0	1050.0	1800.0	1700.0	1.0	950.0	n/a	1.0	ITI
188480	500	n/a	-1	-1	500	0.0	fixation	poldrack-single-stim	667	1850985	0.0-25.41-0.41	beast_fmri_test	388	1850940,/	t	<div class = centerbox2><div class = fixation>+</div></div>	none	500.0	test	n/a	n/a	n/a	n/a	n/a	n/a	n/a	n/a	n/a	n/a	n/a	n/a	n/a	n/a	n/a	n/a	n/a	n/a	fixation
188413.67289332417	2750	n/a	1431	71	2750	70.3271066758	stim	stop-signal	668	1853739	0.0-25.41-1.41	beast_fmri_test	388	1851619,/,1852300,/,1852980,/,1853660,/	t,t,t,t	<img class = center src='/static/experiments/beast_fmri_test/images/B.png'></img>	71,89	2750.0	test	<img class = center src='/static/experiments/beast_fmri_test/images/redB.png'></img>	go	1800.0	2.0	41.0	go	target	B	71,Index Finger	89,Middle Finger	950.0	1050.0	1800.0	1700.0	1.0	950.0	n/a	1.0	go_stim
191163.67289332417	70.327106675758628	n/a	1431	71	2750	70.3271066758	stim	stop-signal	668	1853739	0.0-25.41-1.41	beast_fmri_test	388	1851619,/,1852300,/,1852980,/,1853660,/	t,t,t,t	<img class = center src='/static/experiments/beast_fmri_test/images/B.png'></img>	71,89	2750.0	test	<img class = center src='/static/experiments/beast_fmri_test/images/redB.png'></img>	go	1800.0	2.0	41.0	go	target	B	71,Index Finger	89,Middle Finger	950.0	1050.0	1800.0	1700.0	1.0	950.0	n/a	1.0	ITI
191872	500	n/a	-1	-1	500	0.0	fixation	poldrack-single-stim	669	1854377	0.0-25.42-0.42	beast_fmri_test	388	1854340,/	t	<div class = centerbox2><div class = fixation>+</div></div>	none	500.0	test	n/a	n/a	n/a	n/a	n/a	n/a	n/a	n/a	n/a	n/a	n/a	n/a	n/a	n/a	n/a	n/a	n/a	n/a	fixation
191366.41185737262	2750	n/a	1281	89	2750	508.588142627	stim	stop-signal	670	1857130	0.0-25.42-1.42	beast_fmri_test	388	1855020,/,1855700,/,1856380,/,1857060,/	t,t,t,t	<img class = center src='/static/experiments/beast_fmri_test/images/P.png'></img>	71,89	2750.0	test	<img class = center src='/static/experiments/beast_fmri_test/images/redP.png'></img>	go	1700.0	2.0	42.0	go	non-target	P	71,Index Finger	89,Middle Finger	950.0	1050.0	1800.0	1700.0	1.0	1050.0	n/a	1.0	go_stim
194116.41185737262	508.58814262728379	n/a	1281	89	2750	508.588142627	stim	stop-signal	670	1857130	0.0-25.42-1.42	beast_fmri_test	388	1855020,/,1855700,/,1856380,/,1857060,/	t,t,t,t	<img class = center src='/static/experiments/beast_fmri_test/images/P.png'></img>	71,89	2750.0	test	<img class = center src='/static/experiments/beast_fmri_test/images/redP.png'></img>	go	1700.0	2.0	42.0	go	non-target	P	71,Index Finger	89,Middle Finger	950.0	1050.0	1800.0	1700.0	1.0	1050.0	n/a	1.0	ITI
195701	500	n/a	-1	-1	500	0.0	fixation	poldrack-single-stim	671	1858206	0.0-25.43-0.43	beast_fmri_test	388	1857738,/	t	<div class = centerbox2><div class = fixation>+</div></div>	none	500.0	test	n/a	n/a	n/a	n/a	n/a	n/a	n/a	n/a	n/a	n/a	n/a	n/a	n/a	n/a	n/a	n/a	n/a	n/a	fixation
194562.88025007281	2750	n/a	1576	89	2750	1147.11974993	stim	stop-signal	672	1860965	0.0-25.43-1.43	beast_fmri_test	388	1858420,/,1859100,/,1859780,/,1860464,/,1861144,/,1861824,/	t,t,t,t,t,t	<img class = center src='/static/experiments/beast_fmri_test/images/D.png'></img>	71,89	2750.0	test	<img class = center src='/static/experiments/beast_fmri_test/images/redD.png'></img>	go	1700.0	2.0	43.0	go	non-target	D	71,Index Finger	89,Middle Finger	950.0	1050.0	1800.0	1700.0	1.0	1050.0	n/a	1.0	go_stim
197312.88025007281	1147.1197499270786	n/a	1576	89	2750	1147.11974993	stim	stop-signal	672	1860965	0.0-25.43-1.43	beast_fmri_test	388	1858420,/,1859100,/,1859780,/,1860464,/,1861144,/,1861824,/	t,t,t,t,t,t	<img class = center src='/static/experiments/beast_fmri_test/images/D.png'></img>	71,89	2750.0	test	<img class = center src='/static/experiments/beast_fmri_test/images/redD.png'></img>	go	1700.0	2.0	43.0	go	non-target	D	71,Index Finger	89,Middle Finger	950.0	1050.0	1800.0	1700.0	1.0	1050.0	n/a	1.0	ITI
200186	500	n/a	-1	-1	500	0.0	fixation	poldrack-single-stim	673	1862691	0.0-25.44-0.44	beast_fmri_test	388	1862504,/	t	<div class = centerbox2><div class = fixation>+</div></div>	none	500.0	test	n/a	n/a	n/a	n/a	n/a	n/a	n/a	n/a	n/a	n/a	n/a	n/a	n/a	n/a	n/a	n/a	n/a	n/a	fixation
199973.33554324531	1050.0	n/a	-1	-1	2750	216.664456755	stim	stop-signal	674	1865445	0.0-25.44-1.44	beast_fmri_test	388	1863184,/,1863864,/,1864544,/,1865224,/	t,t,t,t	<img class = center src='/static/experiments/beast_fmri_test/images/D.png'></img>	71,89	2750.0	test	<img class = center src='/static/experiments/beast_fmri_test/images/redD.png'></img>	stop	1700.0	2.0	44.0	stop	non-target	D	71,Index Finger	89,Middle Finger	950.0	1050.0	1800.0	1700.0	0.0	1050.0	1.0	n/a	go_stim
201673.33554324531	1700.0	n/a	-1	-1	2750	216.664456755	stim	stop-signal	674	1865445	0.0-25.44-1.44	beast_fmri_test	388	1863184,/,1863864,/,1864544,/,1865224,/	t,t,t,t	<img class = center src='/static/experiments/beast_fmri_test/images/D.png'></img>	71,89	2750.0	test	<img class = center src='/static/experiments/beast_fmri_test/images/redD.png'></img>	stop	1700.0	2.0	44.0	stop	non-target	D	71,Index Finger	89,Middle Finger	950.0	1050.0	1800.0	1700.0	0.0	1050.0	1.0	n/a	stop_stim
202723.33554324531	216.66445675460128	n/a	-1	-1	2750	216.664456755	stim	stop-signal	674	1865445	0.0-25.44-1.44	beast_fmri_test	388	1863184,/,1863864,/,1864544,/,1865224,/	t,t,t,t	<img class = center src='/static/experiments/beast_fmri_test/images/D.png'></img>	71,89	2750.0	test	<img class = center src='/static/experiments/beast_fmri_test/images/redD.png'></img>	stop	1700.0	2.0	44.0	stop	non-target	D	71,Index Finger	89,Middle Finger	950.0	1050.0	1800.0	1700.0	0.0	1050.0	1.0	n/a	ITI
203729	500	n/a	-1	-1	500	0.0	fixation	poldrack-single-stim	675	1866234	0.0-25.45-0.45	beast_fmri_test	388	1865904,/	t	<div class = centerbox2><div class = fixation>+</div></div>	none	500.0	test	n/a	n/a	n/a	n/a	n/a	n/a	n/a	n/a	n/a	n/a	n/a	n/a	n/a	n/a	n/a	n/a	n/a	n/a	fixation
203130.73867694777	2750	n/a	1083	89	2750	601.261323052	stim	stop-signal	676	1868987	0.0-25.45-1.45	beast_fmri_test	388	1866584,/,1867264,/,1867944,/,1868623,/,1869304,/	t,t,t,t,t	<img class = center src='/static/experiments/beast_fmri_test/images/T.png'></img>	71,89	2750.0	test	<img class = center src='/static/experiments/beast_fmri_test/images/redT.png'></img>	go	1650.0	2.0	45.0	go	non-target	T	71,Index Finger	89,Middle Finger	950.0	1100.0	1800.0	1650.0	1.0	1100.0	n/a	1.0	go_stim
205880.73867694777	601.2613230522727	n/a	1083	89	2750	601.261323052	stim	stop-signal	676	1868987	0.0-25.45-1.45	beast_fmri_test	388	1866584,/,1867264,/,1867944,/,1868623,/,1869304,/	t,t,t,t,t	<img class = center src='/static/experiments/beast_fmri_test/images/T.png'></img>	71,89	2750.0	test	<img class = center src='/static/experiments/beast_fmri_test/images/redT.png'></img>	go	1650.0	2.0	45.0	go	non-target	T	71,Index Finger	89,Middle Finger	950.0	1100.0	1800.0	1650.0	1.0	1100.0	n/a	1.0	ITI
207654	500	n/a	-1	-1	500	0.0	fixation	poldrack-single-stim	677	1870159	0.0-25.46-0.46	beast_fmri_test	388	1869987,/	t	<div class = centerbox2><div class = fixation>+</div></div>	none	500.0	test	n/a	n/a	n/a	n/a	n/a	n/a	n/a	n/a	n/a	n/a	n/a	n/a	n/a	n/a	n/a	n/a	n/a	n/a	fixation
207182.23558970704	2750	n/a	1986	71	2750	476.764410293	stim	stop-signal	678	1872914	0.0-25.46-1.46	beast_fmri_test	388	1870668,/,1871353,/,1872028,/,1872707,/,1873388,/	t,t,t,t,t	<img class = center src='/static/experiments/beast_fmri_test/images/D.png'></img>	71,89	2750.0	test	<img class = center src='/static/experiments/beast_fmri_test/images/redD.png'></img>	go	1800.0	2.0	46.0	go	target	D	71,Index Finger	89,Middle Finger	950.0	1100.0	1800.0	1650.0	1.0	950.0	n/a	1.0	go_stim
209932.23558970704	476.76441029294165	n/a	1986	71	2750	476.764410293	stim	stop-signal	678	1872914	0.0-25.46-1.46	beast_fmri_test	388	1870668,/,1871353,/,1872028,/,1872707,/,1873388,/	t,t,t,t,t	<img class = center src='/static/experiments/beast_fmri_test/images/D.png'></img>	71,89	2750.0	test	<img class = center src='/static/experiments/beast_fmri_test/images/redD.png'></img>	go	1800.0	2.0	46.0	go	target	D	71,Index Finger	89,Middle Finger	950.0	1100.0	1800.0	1650.0	1.0	950.0	n/a	1.0	ITI
225957	15000	n/a	-1	-1	15000	0.0	practice-no-stop-feedback	poldrack-single-stim	679	1888462	0.0-26.0	beast_fmri_test	388	1874068,/,1874748,/,1875429,/,1876108,/,1876788,/,1877468,/,1878148,/,1878829,/,1879510,/,1880193,/,1880873,/,1881553,/,1882233,/,1882913,/,1883593,/,1884272,/,1884953,/,1885633,/,1886313,/,1886993,/,1887673,/,1888353,/	t,t,t,t,t,t,t,t,t,t,t,t,t,t,t,t,t,t,t,t,t,t	"<div class = ""centerbox2_2""><p class = ""block-text2"">Your delay is 3 trials.</p><p class = block-text2>Please wait for the scanner to start the block</p></div>"	77	15000.0	n/a	n/a	n/a	n/a	n/a	n/a	n/a	n/a	n/a	n/a	n/a	n/a	n/a	n/a	n/a	n/a	n/a	n/a	n/a	practice-no-stop-feedback
226459	500	n/a	-1	-1	500	0.0	fixation	poldrack-single-stim	680	1888964	0.0-27.0-0.0	beast_fmri_test	388	n/a	n/a	<div class = centerbox2><div class = fixation>+</div></div>	none	500.0	test	n/a	n/a	n/a	n/a	n/a	n/a	n/a	n/a	n/a	n/a	n/a	n/a	n/a	n/a	n/a	n/a	n/a	n/a	fixation
225944.98410963407	temp_go_duration	n/a	1394	89	2750	521.015890366	stim	stop-signal	681	1891721	0.0-27.0-1.0	beast_fmri_test	388	1889032,/,1889715,/,1890397,/,1891077,/,1891756,/	t,t,t,t,t	<img class = center src='/static/experiments/beast_fmri_test/images/D.png'></img>	71,89	2750.0	test	<img class = center src='/static/experiments/beast_fmri_test/images/redD.png'></img>	stop	-1.0	3.0	0.0	stop	temp-non-target	D	71,Index Finger	89,Middle Finger	950.0	1100.0	1800.0	1650.0	0.0	n/a	0.0	n/a	go_stim
temp-non-target	temp_stop_duration	n/a	1394	89	2750	521.015890366	stim	stop-signal	681	1891721	0.0-27.0-1.0	beast_fmri_test	388	1889032,/,1889715,/,1890397,/,1891077,/,1891756,/	t,t,t,t,t	<img class = center src='/static/experiments/beast_fmri_test/images/D.png'></img>	71,89	2750.0	test	<img class = center src='/static/experiments/beast_fmri_test/images/redD.png'></img>	stop	-1.0	3.0	0.0	stop	temp-non-target	D	71,Index Finger	89,Middle Finger	950.0	1100.0	1800.0	1650.0	0.0	n/a	0.0	n/a	stop_stim
228694.98410963407	521.01589036595112	n/a	1394	89	2750	521.015890366	stim	stop-signal	681	1891721	0.0-27.0-1.0	beast_fmri_test	388	1889032,/,1889715,/,1890397,/,1891077,/,1891756,/	t,t,t,t,t	<img class = center src='/static/experiments/beast_fmri_test/images/D.png'></img>	71,89	2750.0	test	<img class = center src='/static/experiments/beast_fmri_test/images/redD.png'></img>	stop	-1.0	3.0	0.0	stop	temp-non-target	D	71,Index Finger	89,Middle Finger	950.0	1100.0	1800.0	1650.0	0.0	n/a	0.0	n/a	ITI
230299	500	n/a	-1	-1	500	0.0	fixation	poldrack-single-stim	682	1892804	0.0-27.1-0.1	beast_fmri_test	388	1892437,/	t	<div class = centerbox2><div class = fixation>+</div></div>	none	500.0	test	n/a	n/a	n/a	n/a	n/a	n/a	n/a	n/a	n/a	n/a	n/a	n/a	n/a	n/a	n/a	n/a	n/a	n/a	fixation
227383.73595542368	temp_go_duration	n/a	798	89	2750	2918.26404458	stim	stop-signal	683	1895557	0.0-27.1-1.1	beast_fmri_test	388	1893118,/,1893796,/,1894477,/,1895157,/,1895837,/,1896517,/,1897197,/,1897877,/	t,t,t,t,t,t,t,t	<img class = center src='/static/experiments/beast_fmri_test/images/D.png'></img>	71,89	2750.0	test	<img class = center src='/static/experiments/beast_fmri_test/images/redD.png'></img>	stop	-1.0	3.0	1.0	stop	temp-non-target	D	71,Index Finger	89,Middle Finger	950.0	1100.0	1800.0	1650.0	0.0	n/a	0.0	n/a	go_stim
temp-non-target	temp_stop_duration	n/a	798	89	2750	2918.26404458	stim	stop-signal	683	1895557	0.0-27.1-1.1	beast_fmri_test	388	1893118,/,1893796,/,1894477,/,1895157,/,1895837,/,1896517,/,1897197,/,1897877,/	t,t,t,t,t,t,t,t	<img class = center src='/static/experiments/beast_fmri_test/images/D.png'></img>	71,89	2750.0	test	<img class = center src='/static/experiments/beast_fmri_test/images/redD.png'></img>	stop	-1.0	3.0	1.0	stop	temp-non-target	D	71,Index Finger	89,Middle Finger	950.0	1100.0	1800.0	1650.0	0.0	n/a	0.0	n/a	stop_stim
230133.73595542368	2918.2640445762481	n/a	798	89	2750	2918.26404458	stim	stop-signal	683	1895557	0.0-27.1-1.1	beast_fmri_test	388	1893118,/,1893796,/,1894477,/,1895157,/,1895837,/,1896517,/,1897197,/,1897877,/	t,t,t,t,t,t,t,t	<img class = center src='/static/experiments/beast_fmri_test/images/D.png'></img>	71,89	2750.0	test	<img class = center src='/static/experiments/beast_fmri_test/images/redD.png'></img>	stop	-1.0	3.0	1.0	stop	temp-non-target	D	71,Index Finger	89,Middle Finger	950.0	1100.0	1800.0	1650.0	0.0	n/a	0.0	n/a	ITI
236541	500	n/a	-1	-1	500	0.0	fixation	poldrack-single-stim	684	1899046	0.0-27.2-0.2	beast_fmri_test	388	1898559,/	t	<div class = centerbox2><div class = fixation>+</div></div>	none	500.0	test	n/a	n/a	n/a	n/a	n/a	n/a	n/a	n/a	n/a	n/a	n/a	n/a	n/a	n/a	n/a	n/a	n/a	n/a	fixation
233640.96759805479	2750	n/a	935	89	2750	2903.03240195	stim	stop-signal	685	1901799	0.0-27.2-1.2	beast_fmri_test	388	1899238,/,1899916,/,1900597,/,1901277,/,1901957,/,1902636,/,1903316,/,1903998,/,1904678,/	t,t,t,t,t,t,t,t,t	<img class = center src='/static/experiments/beast_fmri_test/images/V.png'></img>	71,89	2750.0	test	<img class = center src='/static/experiments/beast_fmri_test/images/redV.png'></img>	go	-1.0	3.0	2.0	go	temp-non-target	V	71,Index Finger	89,Middle Finger	950.0	1100.0	1800.0	1650.0	0.0	n/a	n/a	n/a	go_stim
236390.96759805479	2903.0324019452091	n/a	935	89	2750	2903.03240195	stim	stop-signal	685	1901799	0.0-27.2-1.2	beast_fmri_test	388	1899238,/,1899916,/,1900597,/,1901277,/,1901957,/,1902636,/,1903316,/,1903998,/,1904678,/	t,t,t,t,t,t,t,t,t	<img class = center src='/static/experiments/beast_fmri_test/images/V.png'></img>	71,89	2750.0	test	<img class = center src='/static/experiments/beast_fmri_test/images/redV.png'></img>	go	-1.0	3.0	2.0	go	temp-non-target	V	71,Index Finger	89,Middle Finger	950.0	1100.0	1800.0	1650.0	0.0	n/a	n/a	n/a	ITI
242767	500	n/a	-1	-1	500	0.0	fixation	poldrack-single-stim	686	1905272	0.0-27.3-0.3	beast_fmri_test	388	n/a	n/a	<div class = centerbox2><div class = fixation>+</div></div>	none	500.0	test	n/a	n/a	n/a	n/a	n/a	n/a	n/a	n/a	n/a	n/a	n/a	n/a	n/a	n/a	n/a	n/a	n/a	n/a	fixation
242669.90599830123	1100.0	n/a	881	89	2750	100.094001699	stim	stop-signal	687	1908025	0.0-27.3-1.3	beast_fmri_test	388	1905357,/,1906038,/,1906717,/,1907398,/,1908077,/	t,t,t,t,t	<img class = center src='/static/experiments/beast_fmri_test/images/P.png'></img>	71,89	2750.0	test	<img class = center src='/static/experiments/beast_fmri_test/images/redP.png'></img>	stop	1650.0	3.0	3.0	stop	non-target	P	71,Index Finger	89,Middle Finger	950.0	1100.0	1800.0	1650.0	0.0	1100.0	0.0	n/a	go_stim
244319.90599830123	1650.0	n/a	881	89	2750	100.094001699	stim	stop-signal	687	1908025	0.0-27.3-1.3	beast_fmri_test	388	1905357,/,1906038,/,1906717,/,1907398,/,1908077,/	t,t,t,t,t	<img class = center src='/static/experiments/beast_fmri_test/images/P.png'></img>	71,89	2750.0	test	<img class = center src='/static/experiments/beast_fmri_test/images/redP.png'></img>	stop	1650.0	3.0	3.0	stop	non-target	P	71,Index Finger	89,Middle Finger	950.0	1100.0	1800.0	1650.0	0.0	1100.0	0.0	n/a	stop_stim
245419.90599830123	100.09400169878415	n/a	881	89	2750	100.094001699	stim	stop-signal	687	1908025	0.0-27.3-1.3	beast_fmri_test	388	1905357,/,1906038,/,1906717,/,1907398,/,1908077,/	t,t,t,t,t	<img class = center src='/static/experiments/beast_fmri_test/images/P.png'></img>	71,89	2750.0	test	<img class = center src='/static/experiments/beast_fmri_test/images/redP.png'></img>	stop	1650.0	3.0	3.0	stop	non-target	P	71,Index Finger	89,Middle Finger	950.0	1100.0	1800.0	1650.0	0.0	1100.0	0.0	n/a	ITI
246189	500	n/a	-1	-1	500	0.0	fixation	poldrack-single-stim	688	1908694	0.0-27.4-0.4	beast_fmri_test	388	n/a	n/a	<div class = centerbox2><div class = fixation>+</div></div>	none	500.0	test	n/a	n/a	n/a	n/a	n/a	n/a	n/a	n/a	n/a	n/a	n/a	n/a	n/a	n/a	n/a	n/a	n/a	n/a	fixation
244927.2925885045	2750	n/a	1752	89	2750	1267.7074115	stim	stop-signal	689	1911450	0.0-27.4-1.4	beast_fmri_test	388	1908757,/,1909439,/,1910121,/,1910802,/,1911481,/,1912161,/	t,t,t,t,t,t	<img class = center src='/static/experiments/beast_fmri_test/images/T.png'></img>	71,89	2750.0	test	<img class = center src='/static/experiments/beast_fmri_test/images/redT.png'></img>	go	1700.0	3.0	4.0	go	non-target	T	71,Index Finger	89,Middle Finger	950.0	1050.0	1800.0	1700.0	1.0	1050.0	n/a	1.0	go_stim
247677.2925885045	1267.7074114954189	n/a	1752	89	2750	1267.7074115	stim	stop-signal	689	1911450	0.0-27.4-1.4	beast_fmri_test	388	1908757,/,1909439,/,1910121,/,1910802,/,1911481,/,1912161,/	t,t,t,t,t,t	<img class = center src='/static/experiments/beast_fmri_test/images/T.png'></img>	71,89	2750.0	test	<img class = center src='/static/experiments/beast_fmri_test/images/redT.png'></img>	go	1700.0	3.0	4.0	go	non-target	T	71,Index Finger	89,Middle Finger	950.0	1050.0	1800.0	1700.0	1.0	1050.0	n/a	1.0	ITI
250783	500	n/a	-1	-1	500	0.0	fixation	poldrack-single-stim	690	1913288	0.0-27.5-0.5	beast_fmri_test	388	1912841,/	t	<div class = centerbox2><div class = fixation>+</div></div>	none	500.0	test	n/a	n/a	n/a	n/a	n/a	n/a	n/a	n/a	n/a	n/a	n/a	n/a	n/a	n/a	n/a	n/a	n/a	n/a	fixation
250719.8765828039	2750	n/a	1161	71	2750	66.1234171962	stim	stop-signal	691	1916041	0.0-27.5-1.5	beast_fmri_test	388	1913523,/,1914202,/,1914881,/,1915562,/	t,t,t,t	<img class = center src='/static/experiments/beast_fmri_test/images/V.png'></img>	71,89	2750.0	test	<img class = center src='/static/experiments/beast_fmri_test/images/redV.png'></img>	go	1800.0	3.0	5.0	go	target	V	71,Index Finger	89,Middle Finger	950.0	1050.0	1800.0	1700.0	1.0	950.0	n/a	1.0	go_stim
253469.8765828039	66.123417196167793	n/a	1161	71	2750	66.1234171962	stim	stop-signal	691	1916041	0.0-27.5-1.5	beast_fmri_test	388	1913523,/,1914202,/,1914881,/,1915562,/	t,t,t,t	<img class = center src='/static/experiments/beast_fmri_test/images/V.png'></img>	71,89	2750.0	test	<img class = center src='/static/experiments/beast_fmri_test/images/redV.png'></img>	go	1800.0	3.0	5.0	go	target	V	71,Index Finger	89,Middle Finger	950.0	1050.0	1800.0	1700.0	1.0	950.0	n/a	1.0	ITI
254171	500	n/a	-1	-1	500	0.0	fixation	poldrack-single-stim	692	1916676	0.0-27.6-0.6	beast_fmri_test	388	1916242,/	t	<div class = centerbox2><div class = fixation>+</div></div>	none	500.0	test	n/a	n/a	n/a	n/a	n/a	n/a	n/a	n/a	n/a	n/a	n/a	n/a	n/a	n/a	n/a	n/a	n/a	n/a	fixation
252752.33635792579	2750	n/a	-1	-1	2750	1422.66364207	stim	stop-signal	693	1919430	0.0-27.6-1.6	beast_fmri_test	388	1916923,/,1917603,/,1918282,/,1918962,/,1919643,/,1920326,/	t,t,t,t,t,t	<img class = center src='/static/experiments/beast_fmri_test/images/P.png'></img>	71,89	2750.0	test	<img class = center src='/static/experiments/beast_fmri_test/images/redP.png'></img>	go	1800.0	3.0	6.0	go	target	P	71,Index Finger	89,Middle Finger	950.0	1050.0	1800.0	1700.0	0.0	950.0	n/a	0.0	go_stim
255502.33635792579	1422.6636420742832	n/a	-1	-1	2750	1422.66364207	stim	stop-signal	693	1919430	0.0-27.6-1.6	beast_fmri_test	388	1916923,/,1917603,/,1918282,/,1918962,/,1919643,/,1920326,/	t,t,t,t,t,t	<img class = center src='/static/experiments/beast_fmri_test/images/P.png'></img>	71,89	2750.0	test	<img class = center src='/static/experiments/beast_fmri_test/images/redP.png'></img>	go	1800.0	3.0	6.0	go	target	P	71,Index Finger	89,Middle Finger	950.0	1050.0	1800.0	1700.0	0.0	950.0	n/a	0.0	ITI
258931	500	n/a	-1	-1	500	0.0	fixation	poldrack-single-stim	694	1921436	0.0-27.7-0.7	beast_fmri_test	388	1921005,/	t	<div class = centerbox2><div class = fixation>+</div></div>	none	500.0	test	n/a	n/a	n/a	n/a	n/a	n/a	n/a	n/a	n/a	n/a	n/a	n/a	n/a	n/a	n/a	n/a	n/a	n/a	fixation
258317.98495831108	2750	n/a	964	89	2750	617.015041689	stim	stop-signal	695	1924190	0.0-27.7-1.7	beast_fmri_test	388	1921686,/,1922366,/,1923046,/,1923726,/,1924406,/	t,t,t,t,t	<img class = center src='/static/experiments/beast_fmri_test/images/T.png'></img>	71,89	2750.0	test	<img class = center src='/static/experiments/beast_fmri_test/images/redT.png'></img>	go	1800.0	3.0	7.0	go	target	T	71,Index Finger	89,Middle Finger	950.0	1050.0	1800.0	1700.0	0.0	950.0	n/a	0.0	go_stim
261067.98495831108	617.0150416889403	n/a	964	89	2750	617.015041689	stim	stop-signal	695	1924190	0.0-27.7-1.7	beast_fmri_test	388	1921686,/,1922366,/,1923046,/,1923726,/,1924406,/	t,t,t,t,t	<img class = center src='/static/experiments/beast_fmri_test/images/T.png'></img>	71,89	2750.0	test	<img class = center src='/static/experiments/beast_fmri_test/images/redT.png'></img>	go	1800.0	3.0	7.0	go	target	T	71,Index Finger	89,Middle Finger	950.0	1050.0	1800.0	1700.0	0.0	950.0	n/a	0.0	ITI
262869	500	n/a	-1	-1	500	0.0	fixation	poldrack-single-stim	696	1925374	0.0-27.8-0.8	beast_fmri_test	388	1925086,/	t	<div class = centerbox2><div class = fixation>+</div></div>	none	500.0	test	n/a	n/a	n/a	n/a	n/a	n/a	n/a	n/a	n/a	n/a	n/a	n/a	n/a	n/a	n/a	n/a	n/a	n/a	fixation
261082.66250846442	950.0	n/a	470	71	2750	1790.33749154	stim	stop-signal	697	1928128	0.0-27.8-1.8	beast_fmri_test	388	1925766,/,1926446,/,1927127,/,1927806,/,1928486,/,1929166,/,1929848,/	t,t,t,t,t,t,t	<img class = center src='/static/experiments/beast_fmri_test/images/V.png'></img>	71,89	2750.0	test	<img class = center src='/static/experiments/beast_fmri_test/images/redV.png'></img>	stop	1800.0	3.0	8.0	stop	target	V	71,Index Finger	89,Middle Finger	950.0	1050.0	1800.0	1700.0	0.0	950.0	0.0	n/a	go_stim
262882.66250846442	1800.0	n/a	470	71	2750	1790.33749154	stim	stop-signal	697	1928128	0.0-27.8-1.8	beast_fmri_test	388	1925766,/,1926446,/,1927127,/,1927806,/,1928486,/,1929166,/,1929848,/	t,t,t,t,t,t,t	<img class = center src='/static/experiments/beast_fmri_test/images/V.png'></img>	71,89	2750.0	test	<img class = center src='/static/experiments/beast_fmri_test/images/redV.png'></img>	stop	1800.0	3.0	8.0	stop	target	V	71,Index Finger	89,Middle Finger	950.0	1050.0	1800.0	1700.0	0.0	950.0	0.0	n/a	stop_stim
263832.66250846442	1790.3374915355414	n/a	470	71	2750	1790.33749154	stim	stop-signal	697	1928128	0.0-27.8-1.8	beast_fmri_test	388	1925766,/,1926446,/,1927127,/,1927806,/,1928486,/,1929166,/,1929848,/	t,t,t,t,t,t,t	<img class = center src='/static/experiments/beast_fmri_test/images/V.png'></img>	71,89	2750.0	test	<img class = center src='/static/experiments/beast_fmri_test/images/redV.png'></img>	stop	1800.0	3.0	8.0	stop	target	V	71,Index Finger	89,Middle Finger	950.0	1050.0	1800.0	1700.0	0.0	950.0	0.0	n/a	ITI
267999	500	n/a	-1	-1	500	0.0	fixation	poldrack-single-stim	698	1930504	0.0-27.9-0.9	beast_fmri_test	388	n/a	n/a	<div class = centerbox2><div class = fixation>+</div></div>	none	500.0	test	n/a	n/a	n/a	n/a	n/a	n/a	n/a	n/a	n/a	n/a	n/a	n/a	n/a	n/a	n/a	n/a	n/a	n/a	fixation
267932.95993783302	2750	n/a	836	89	2750	68.040062167	stim	stop-signal	699	1933256	0.0-27.9-1.9	beast_fmri_test	388	1930534,/,1931211,/,1931890,/,1932569,/,1933250,/	t,t,t,t,t	<img class = center src='/static/experiments/beast_fmri_test/images/B.png'></img>	71,89	2750.0	test	<img class = center src='/static/experiments/beast_fmri_test/images/redB.png'></img>	go	1700.0	3.0	9.0	go	non-target	B	71,Index Finger	89,Middle Finger	900.0	1050.0	1800.0	1700.0	1.0	1050.0	n/a	1.0	go_stim
270682.95993783302	68.040062167002219	n/a	836	89	2750	68.040062167	stim	stop-signal	699	1933256	0.0-27.9-1.9	beast_fmri_test	388	1930534,/,1931211,/,1931890,/,1932569,/,1933250,/	t,t,t,t,t	<img class = center src='/static/experiments/beast_fmri_test/images/B.png'></img>	71,89	2750.0	test	<img class = center src='/static/experiments/beast_fmri_test/images/redB.png'></img>	go	1700.0	3.0	9.0	go	non-target	B	71,Index Finger	89,Middle Finger	900.0	1050.0	1800.0	1700.0	1.0	1050.0	n/a	1.0	ITI
271400	500	n/a	-1	-1	500	0.0	fixation	poldrack-single-stim	700	1933905	0.0-27.10-0.10	beast_fmri_test	388	n/a	n/a	<div class = centerbox2><div class = fixation>+</div></div>	none	500.0	test	n/a	n/a	n/a	n/a	n/a	n/a	n/a	n/a	n/a	n/a	n/a	n/a	n/a	n/a	n/a	n/a	n/a	n/a	fixation
270307.01276402688	2750	n/a	1361	89	2750	1094.98723597	stim	stop-signal	701	1936657	0.0-27.10-1.10	beast_fmri_test	388	1933930,/,1934611,/,1935291,/,1935970,/,1936651,/,1937331,/	t,t,t,t,t,t	<img class = center src='/static/experiments/beast_fmri_test/images/D.png'></img>	71,89	2750.0	test	<img class = center src='/static/experiments/beast_fmri_test/images/redD.png'></img>	go	1700.0	3.0	10.0	go	non-target	D	71,Index Finger	89,Middle Finger	900.0	1050.0	1800.0	1700.0	1.0	1050.0	n/a	1.0	go_stim
273057.01276402688	1094.9872359730514	n/a	1361	89	2750	1094.98723597	stim	stop-signal	701	1936657	0.0-27.10-1.10	beast_fmri_test	388	1933930,/,1934611,/,1935291,/,1935970,/,1936651,/,1937331,/	t,t,t,t,t,t	<img class = center src='/static/experiments/beast_fmri_test/images/D.png'></img>	71,89	2750.0	test	<img class = center src='/static/experiments/beast_fmri_test/images/redD.png'></img>	go	1700.0	3.0	10.0	go	non-target	D	71,Index Finger	89,Middle Finger	900.0	1050.0	1800.0	1700.0	1.0	1050.0	n/a	1.0	ITI
275830	500	n/a	-1	-1	500	0.0	fixation	poldrack-single-stim	702	1938335	0.0-27.11-0.11	beast_fmri_test	388	1938012,/	t	<div class = centerbox2><div class = fixation>+</div></div>	none	500.0	test	n/a	n/a	n/a	n/a	n/a	n/a	n/a	n/a	n/a	n/a	n/a	n/a	n/a	n/a	n/a	n/a	n/a	n/a	fixation
275110.44505249569	2750	n/a	1658	89	2750	726.554947504	stim	stop-signal	703	1941092	0.0-27.11-1.11	beast_fmri_test	388	1938691,/,1939371,/,1940053,/,1940736,/,1941416,/	t,t,t,t,t	<img class = center src='/static/experiments/beast_fmri_test/images/P.png'></img>	71,89	2750.0	test	<img class = center src='/static/experiments/beast_fmri_test/images/redP.png'></img>	go	1700.0	3.0	11.0	go	non-target	P	71,Index Finger	89,Middle Finger	900.0	1050.0	1800.0	1700.0	1.0	1050.0	n/a	1.0	go_stim
277860.44505249569	726.55494750422304	n/a	1658	89	2750	726.554947504	stim	stop-signal	703	1941092	0.0-27.11-1.11	beast_fmri_test	388	1938691,/,1939371,/,1940053,/,1940736,/,1941416,/	t,t,t,t,t	<img class = center src='/static/experiments/beast_fmri_test/images/P.png'></img>	71,89	2750.0	test	<img class = center src='/static/experiments/beast_fmri_test/images/redP.png'></img>	go	1700.0	3.0	11.0	go	non-target	P	71,Index Finger	89,Middle Finger	900.0	1050.0	1800.0	1700.0	1.0	1050.0	n/a	1.0	ITI
279892	500	n/a	-1	-1	500	0.0	fixation	poldrack-single-stim	704	1942397	0.0-27.12-0.12	beast_fmri_test	388	1942096,/	t	<div class = centerbox2><div class = fixation>+</div></div>	none	500.0	test	n/a	n/a	n/a	n/a	n/a	n/a	n/a	n/a	n/a	n/a	n/a	n/a	n/a	n/a	n/a	n/a	n/a	n/a	fixation
278955.41685007	2750	n/a	1587	71	2750	939.58314993	stim	stop-signal	705	1945150	0.0-27.12-1.12	beast_fmri_test	388	1942776,/,1943455,/,1944135,/,1944816,/,1945494,/	t,t,t,t,t	<img class = center src='/static/experiments/beast_fmri_test/images/V.png'></img>	71,89	2750.0	test	<img class = center src='/static/experiments/beast_fmri_test/images/redV.png'></img>	go	1700.0	3.0	12.0	go	non-target	V	71,Index Finger	89,Middle Finger	900.0	1050.0	1800.0	1700.0	0.0	1050.0	n/a	0.0	go_stim
281705.41685007	939.58314992995952	n/a	1587	71	2750	939.58314993	stim	stop-signal	705	1945150	0.0-27.12-1.12	beast_fmri_test	388	1942776,/,1943455,/,1944135,/,1944816,/,1945494,/	t,t,t,t,t	<img class = center src='/static/experiments/beast_fmri_test/images/V.png'></img>	71,89	2750.0	test	<img class = center src='/static/experiments/beast_fmri_test/images/redV.png'></img>	go	1700.0	3.0	12.0	go	non-target	V	71,Index Finger	89,Middle Finger	900.0	1050.0	1800.0	1700.0	0.0	1050.0	n/a	0.0	ITI
284164	500	n/a	-1	-1	500	0.0	fixation	poldrack-single-stim	706	1946669	0.0-27.13-0.13	beast_fmri_test	388	1946174,/	t	<div class = centerbox2><div class = fixation>+</div></div>	none	500.0	test	n/a	n/a	n/a	n/a	n/a	n/a	n/a	n/a	n/a	n/a	n/a	n/a	n/a	n/a	n/a	n/a	n/a	n/a	fixation
284165.19732934539	2750	n/a	1614	89	2750	0.802670654617	stim	stop-signal	707	1949421	0.0-27.13-1.13	beast_fmri_test	388	1946855,/,1947536,/,1948215,/,1948895,/	t,t,t,t	<img class = center src='/static/experiments/beast_fmri_test/images/V.png'></img>	71,89	2750.0	test	<img class = center src='/static/experiments/beast_fmri_test/images/redV.png'></img>	go	1700.0	3.0	13.0	go	non-target	V	71,Index Finger	89,Middle Finger	900.0	1050.0	1800.0	1700.0	1.0	1050.0	n/a	1.0	go_stim
286915.19732934539	0.80267065461688314	n/a	1614	89	2750	0.802670654617	stim	stop-signal	707	1949421	0.0-27.13-1.13	beast_fmri_test	388	1946855,/,1947536,/,1948215,/,1948895,/	t,t,t,t	<img class = center src='/static/experiments/beast_fmri_test/images/V.png'></img>	71,89	2750.0	test	<img class = center src='/static/experiments/beast_fmri_test/images/redV.png'></img>	go	1700.0	3.0	13.0	go	non-target	V	71,Index Finger	89,Middle Finger	900.0	1050.0	1800.0	1700.0	1.0	1050.0	n/a	1.0	ITI
287504	500	n/a	-1	-1	500	0.0	fixation	poldrack-single-stim	708	1950009	0.0-27.14-0.14	beast_fmri_test	388	1949577,/	t	<div class = centerbox2><div class = fixation>+</div></div>	none	500.0	test	n/a	n/a	n/a	n/a	n/a	n/a	n/a	n/a	n/a	n/a	n/a	n/a	n/a	n/a	n/a	n/a	n/a	n/a	fixation
286582.71557894209	1050.0	n/a	-1	-1	2750	926.284421058	stim	stop-signal	709	1952764	0.0-27.14-1.14	beast_fmri_test	388	1950259,/,1950940,/,1951620,/,1952299,/,1952979,/,1953659,/	t,t,t,t,t,t	<img class = center src='/static/experiments/beast_fmri_test/images/T.png'></img>	71,89	2750.0	test	<img class = center src='/static/experiments/beast_fmri_test/images/redT.png'></img>	stop	1700.0	3.0	14.0	stop	non-target	T	71,Index Finger	89,Middle Finger	900.0	1050.0	1800.0	1700.0	0.0	1050.0	1.0	n/a	go_stim
288282.71557894209	1700.0	n/a	-1	-1	2750	926.284421058	stim	stop-signal	709	1952764	0.0-27.14-1.14	beast_fmri_test	388	1950259,/,1950940,/,1951620,/,1952299,/,1952979,/,1953659,/	t,t,t,t,t,t	<img class = center src='/static/experiments/beast_fmri_test/images/T.png'></img>	71,89	2750.0	test	<img class = center src='/static/experiments/beast_fmri_test/images/redT.png'></img>	stop	1700.0	3.0	14.0	stop	non-target	T	71,Index Finger	89,Middle Finger	900.0	1050.0	1800.0	1700.0	0.0	1050.0	1.0	n/a	stop_stim
289332.71557894209	926.28442105795955	n/a	-1	-1	2750	926.284421058	stim	stop-signal	709	1952764	0.0-27.14-1.14	beast_fmri_test	388	1950259,/,1950940,/,1951620,/,1952299,/,1952979,/,1953659,/	t,t,t,t,t,t	<img class = center src='/static/experiments/beast_fmri_test/images/T.png'></img>	71,89	2750.0	test	<img class = center src='/static/experiments/beast_fmri_test/images/redT.png'></img>	stop	1700.0	3.0	14.0	stop	non-target	T	71,Index Finger	89,Middle Finger	900.0	1050.0	1800.0	1700.0	0.0	1050.0	1.0	n/a	ITI
291772	500	n/a	-1	-1	500	0.0	fixation	poldrack-single-stim	710	1954277	0.0-27.15-0.15	beast_fmri_test	388	n/a	n/a	<div class = centerbox2><div class = fixation>+</div></div>	none	500.0	test	n/a	n/a	n/a	n/a	n/a	n/a	n/a	n/a	n/a	n/a	n/a	n/a	n/a	n/a	n/a	n/a	n/a	n/a	fixation
290476.94575892948	900.0	n/a	776	71	2750	1299.05424107	stim	stop-signal	711	1957031	0.0-27.15-1.15	beast_fmri_test	388	1954339,/,1955020,/,1955700,/,1956380,/,1957058,/,1957739,/	t,t,t,t,t,t	<img class = center src='/static/experiments/beast_fmri_test/images/V.png'></img>	71,89	2750.0	test	<img class = center src='/static/experiments/beast_fmri_test/images/redV.png'></img>	stop	1850.0	3.0	15.0	stop	target	V	71,Index Finger	89,Middle Finger	900.0	1100.0	1850.0	1700.0	0.0	900.0	0.0	n/a	go_stim
292326.94575892948	1850.0	n/a	776	71	2750	1299.05424107	stim	stop-signal	711	1957031	0.0-27.15-1.15	beast_fmri_test	388	1954339,/,1955020,/,1955700,/,1956380,/,1957058,/,1957739,/	t,t,t,t,t,t	<img class = center src='/static/experiments/beast_fmri_test/images/V.png'></img>	71,89	2750.0	test	<img class = center src='/static/experiments/beast_fmri_test/images/redV.png'></img>	stop	1850.0	3.0	15.0	stop	target	V	71,Index Finger	89,Middle Finger	900.0	1100.0	1850.0	1700.0	0.0	900.0	0.0	n/a	stop_stim
293226.94575892948	1299.0542410704336	n/a	776	71	2750	1299.05424107	stim	stop-signal	711	1957031	0.0-27.15-1.15	beast_fmri_test	388	1954339,/,1955020,/,1955700,/,1956380,/,1957058,/,1957739,/	t,t,t,t,t,t	<img class = center src='/static/experiments/beast_fmri_test/images/V.png'></img>	71,89	2750.0	test	<img class = center src='/static/experiments/beast_fmri_test/images/redV.png'></img>	stop	1850.0	3.0	15.0	stop	target	V	71,Index Finger	89,Middle Finger	900.0	1100.0	1850.0	1700.0	0.0	900.0	0.0	n/a	ITI
296412	500	n/a	-1	-1	500	0.0	fixation	poldrack-single-stim	712	1958917	0.0-27.16-0.16	beast_fmri_test	388	1958419,/	t	<div class = centerbox2><div class = fixation>+</div></div>	none	500.0	test	n/a	n/a	n/a	n/a	n/a	n/a	n/a	n/a	n/a	n/a	n/a	n/a	n/a	n/a	n/a	n/a	n/a	n/a	fixation
295334.98579696775	1100.0	n/a	1008	89	2750	1082.01420303	stim	stop-signal	713	1961672	0.0-27.16-1.16	beast_fmri_test	388	1959100,/,1959779,/,1960459,/,1961141,/,1961820,/,1962500,/	t,t,t,t,t,t	<img class = center src='/static/experiments/beast_fmri_test/images/B.png'></img>	71,89	2750.0	test	<img class = center src='/static/experiments/beast_fmri_test/images/redB.png'></img>	stop	1650.0	3.0	16.0	stop	non-target	B	71,Index Finger	89,Middle Finger	850.0	1100.0	1850.0	1650.0	0.0	1100.0	0.0	n/a	go_stim
296984.98579696775	1650.0	n/a	1008	89	2750	1082.01420303	stim	stop-signal	713	1961672	0.0-27.16-1.16	beast_fmri_test	388	1959100,/,1959779,/,1960459,/,1961141,/,1961820,/,1962500,/	t,t,t,t,t,t	<img class = center src='/static/experiments/beast_fmri_test/images/B.png'></img>	71,89	2750.0	test	<img class = center src='/static/experiments/beast_fmri_test/images/redB.png'></img>	stop	1650.0	3.0	16.0	stop	non-target	B	71,Index Finger	89,Middle Finger	850.0	1100.0	1850.0	1650.0	0.0	1100.0	0.0	n/a	stop_stim
298084.98579696775	1082.0142030323427	n/a	1008	89	2750	1082.01420303	stim	stop-signal	713	1961672	0.0-27.16-1.16	beast_fmri_test	388	1959100,/,1959779,/,1960459,/,1961141,/,1961820,/,1962500,/	t,t,t,t,t,t	<img class = center src='/static/experiments/beast_fmri_test/images/B.png'></img>	71,89	2750.0	test	<img class = center src='/static/experiments/beast_fmri_test/images/redB.png'></img>	stop	1650.0	3.0	16.0	stop	non-target	B	71,Index Finger	89,Middle Finger	850.0	1100.0	1850.0	1650.0	0.0	1100.0	0.0	n/a	ITI
300828	500	n/a	-1	-1	500	0.0	fixation	poldrack-single-stim	714	1963333	0.0-27.17-0.17	beast_fmri_test	388	1963179,/	t	<div class = centerbox2><div class = fixation>+</div></div>	none	500.0	test	n/a	n/a	n/a	n/a	n/a	n/a	n/a	n/a	n/a	n/a	n/a	n/a	n/a	n/a	n/a	n/a	n/a	n/a	fixation
299972.64937988319	2750	n/a	1136	71	2750	858.350620117	stim	stop-signal	715	1966086	0.0-27.17-1.17	beast_fmri_test	388	1963861,/,1964541,/,1965221,/,1965899,/,1966582,/	t,t,t,t,t	<img class = center src='/static/experiments/beast_fmri_test/images/T.png'></img>	71,89	2750.0	test	<img class = center src='/static/experiments/beast_fmri_test/images/redT.png'></img>	go	1900.0	3.0	17.0	go	target	T	71,Index Finger	89,Middle Finger	850.0	1050.0	1900.0	1650.0	1.0	850.0	n/a	1.0	go_stim
302722.64937988319	858.3506201169015	n/a	1136	71	2750	858.350620117	stim	stop-signal	715	1966086	0.0-27.17-1.17	beast_fmri_test	388	1963861,/,1964541,/,1965221,/,1965899,/,1966582,/	t,t,t,t,t	<img class = center src='/static/experiments/beast_fmri_test/images/T.png'></img>	71,89	2750.0	test	<img class = center src='/static/experiments/beast_fmri_test/images/redT.png'></img>	go	1900.0	3.0	17.0	go	target	T	71,Index Finger	89,Middle Finger	850.0	1050.0	1900.0	1650.0	1.0	850.0	n/a	1.0	ITI
305021	500	n/a	-1	-1	500	0.0	fixation	poldrack-single-stim	716	1967526	0.0-27.18-0.18	beast_fmri_test	388	1967265,/	t	<div class = centerbox2><div class = fixation>+</div></div>	none	500.0	test	n/a	n/a	n/a	n/a	n/a	n/a	n/a	n/a	n/a	n/a	n/a	n/a	n/a	n/a	n/a	n/a	n/a	n/a	fixation
302463.18102145637	2750	n/a	1633	89	2750	2560.81897854	stim	stop-signal	717	1970279	0.0-27.18-1.18	beast_fmri_test	388	1967945,/,1968625,/,1969305,/,1969985,/,1970664,/,1971345,/,1972025,/,1972705,/	t,t,t,t,t,t,t,t	<img class = center src='/static/experiments/beast_fmri_test/images/B.png'></img>	71,89	2750.0	test	<img class = center src='/static/experiments/beast_fmri_test/images/redB.png'></img>	go	1700.0	3.0	18.0	go	non-target	B	71,Index Finger	89,Middle Finger	850.0	1050.0	1900.0	1700.0	1.0	1050.0	n/a	1.0	go_stim
305213.18102145637	2560.8189785437389	n/a	1633	89	2750	2560.81897854	stim	stop-signal	717	1970279	0.0-27.18-1.18	beast_fmri_test	388	1967945,/,1968625,/,1969305,/,1969985,/,1970664,/,1971345,/,1972025,/,1972705,/	t,t,t,t,t,t,t,t	<img class = center src='/static/experiments/beast_fmri_test/images/B.png'></img>	71,89	2750.0	test	<img class = center src='/static/experiments/beast_fmri_test/images/redB.png'></img>	go	1700.0	3.0	18.0	go	non-target	B	71,Index Finger	89,Middle Finger	850.0	1050.0	1900.0	1700.0	1.0	1050.0	n/a	1.0	ITI
310910	500	n/a	-1	-1	500	0.0	fixation	poldrack-single-stim	718	1973415	0.0-27.19-0.19	beast_fmri_test	388	1973385,/	t	<div class = centerbox2><div class = fixation>+</div></div>	none	500.0	test	n/a	n/a	n/a	n/a	n/a	n/a	n/a	n/a	n/a	n/a	n/a	n/a	n/a	n/a	n/a	n/a	n/a	n/a	fixation
310768.89525744645	2750	n/a	1431	89	2750	144.104742554	stim	stop-signal	719	1976168	0.0-27.19-1.19	beast_fmri_test	388	1974065,/,1974744,/,1975425,/,1976105,/	t,t,t,t	<img class = center src='/static/experiments/beast_fmri_test/images/T.png'></img>	71,89	2750.0	test	<img class = center src='/static/experiments/beast_fmri_test/images/redT.png'></img>	go	1700.0	3.0	19.0	go	non-target	T	71,Index Finger	89,Middle Finger	850.0	1050.0	1900.0	1700.0	1.0	1050.0	n/a	1.0	go_stim
313518.89525744645	144.10474255359378	n/a	1431	89	2750	144.104742554	stim	stop-signal	719	1976168	0.0-27.19-1.19	beast_fmri_test	388	1974065,/,1974744,/,1975425,/,1976105,/	t,t,t,t	<img class = center src='/static/experiments/beast_fmri_test/images/T.png'></img>	71,89	2750.0	test	<img class = center src='/static/experiments/beast_fmri_test/images/redT.png'></img>	go	1700.0	3.0	19.0	go	non-target	T	71,Index Finger	89,Middle Finger	850.0	1050.0	1900.0	1700.0	1.0	1050.0	n/a	1.0	ITI
314387	500	n/a	-1	-1	500	0.0	fixation	poldrack-single-stim	720	1976892	0.0-27.20-0.20	beast_fmri_test	388	1976785,/	t	<div class = centerbox2><div class = fixation>+</div></div>	none	500.0	test	n/a	n/a	n/a	n/a	n/a	n/a	n/a	n/a	n/a	n/a	n/a	n/a	n/a	n/a	n/a	n/a	n/a	n/a	fixation
313708.58294226811	1050.0	n/a	-1	-1	2750	683.417057732	stim	stop-signal	721	1979647	0.0-27.20-1.20	beast_fmri_test	388	1977465,/,1978144,/,1978826,/,1979507,/,1980186,/	t,t,t,t,t	<img class = center src='/static/experiments/beast_fmri_test/images/B.png'></img>	71,89	2750.0	test	<img class = center src='/static/experiments/beast_fmri_test/images/redB.png'></img>	stop	1700.0	3.0	20.0	stop	non-target	B	71,Index Finger	89,Middle Finger	850.0	1050.0	1900.0	1700.0	0.0	1050.0	1.0	n/a	go_stim
315408.58294226811	1700.0	n/a	-1	-1	2750	683.417057732	stim	stop-signal	721	1979647	0.0-27.20-1.20	beast_fmri_test	388	1977465,/,1978144,/,1978826,/,1979507,/,1980186,/	t,t,t,t,t	<img class = center src='/static/experiments/beast_fmri_test/images/B.png'></img>	71,89	2750.0	test	<img class = center src='/static/experiments/beast_fmri_test/images/redB.png'></img>	stop	1700.0	3.0	20.0	stop	non-target	B	71,Index Finger	89,Middle Finger	850.0	1050.0	1900.0	1700.0	0.0	1050.0	1.0	n/a	stop_stim
316458.58294226811	683.41705773181013	n/a	-1	-1	2750	683.417057732	stim	stop-signal	721	1979647	0.0-27.20-1.20	beast_fmri_test	388	1977465,/,1978144,/,1978826,/,1979507,/,1980186,/	t,t,t,t,t	<img class = center src='/static/experiments/beast_fmri_test/images/B.png'></img>	71,89	2750.0	test	<img class = center src='/static/experiments/beast_fmri_test/images/redB.png'></img>	stop	1700.0	3.0	20.0	stop	non-target	B	71,Index Finger	89,Middle Finger	850.0	1050.0	1900.0	1700.0	0.0	1050.0	1.0	n/a	ITI
318403	500	n/a	-1	-1	500	0.0	fixation	poldrack-single-stim	722	1980908	0.0-27.21-0.21	beast_fmri_test	388	1980868,/	t	<div class = centerbox2><div class = fixation>+</div></div>	none	500.0	test	n/a	n/a	n/a	n/a	n/a	n/a	n/a	n/a	n/a	n/a	n/a	n/a	n/a	n/a	n/a	n/a	n/a	n/a	fixation
317345.7429140883	2750	n/a	1424	89	2750	1060.25708591	stim	stop-signal	723	1983661	0.0-27.21-1.21	beast_fmri_test	388	1981549,/,1982228,/,1982907,/,1983589,/,1984269,/	t,t,t,t,t	<img class = center src='/static/experiments/beast_fmri_test/images/D.png'></img>	71,89	2750.0	test	<img class = center src='/static/experiments/beast_fmri_test/images/redD.png'></img>	go	1650.0	3.0	21.0	go	non-target	D	71,Index Finger	89,Middle Finger	850.0	1100.0	1900.0	1650.0	1.0	1100.0	n/a	1.0	go_stim
