onset	duration	text	rt	key_press	block_duration	timing_post_trial	trial_id	trial_type	trial_index	time_elapsed	internal_node_id	exp_id	subject_id	trigger_times	triggers	stimulus	possible_responses	stim_duration	exp_stage	SS_stimulus	SS_trial_type	SS_duration	load	trial_num	stop_trial_type	adaptive_trial_type	stim	yes_response_key	no_response_key	SSD_target	SSD_non_target	SSTarget	SSNonTarget	go_acc	SS_delay	stop_acc	adaptive_acc	new_trial_type
test	10880	n/a	-1	-1	10880	0.0	practice-no-stop-feedback	poldrack-single-stim	198	623104	0.0-12.0	beast_fmri_test	388	612218,/,612897,/,613577,/,614257,/,614938,/,615617,/,616297,/,616978,/,617658,/,618337,/,619018,/,619701,/,620382,/,621061,/,621742,/,622422,/,623102,/	t,t,t,t,t,t,t,t,t,t,t,t,t,t,t,t,t	"<div class = ""centerbox2_2""><p class = ""block-text2"">Your delay is 2 trials.</p><p class = block-text2>Please wait for the scanner to start the block</p></div>"	77	10880.0	n/a	n/a	n/a	n/a	n/a	n/a	n/a	n/a	n/a	n/a	n/a	n/a	n/a	n/a	n/a	n/a	n/a	n/a	n/a	start_functional_block
11388	500	n/a	-1	-1	500	0.0	fixation	poldrack-single-stim	199	623606	0.0-13.0-0.0	beast_fmri_test	388	n/a	n/a	<div class = centerbox2><div class = fixation>+</div></div>	none	500.0	test	n/a	n/a	n/a	n/a	n/a	n/a	n/a	n/a	n/a	n/a	n/a	n/a	n/a	n/a	n/a	n/a	n/a	n/a	fixation
9915.7861706176773	2750	n/a	1117	89	2750	1475.21382938	stim	stop-signal	200	626359	0.0-13.0-1.0	beast_fmri_test	388	623787,/,624462,/,625142,/,625822,/,626502,/,627181,/	t,t,t,t,t,t	<img class = center src='/static/experiments/beast_fmri_test/images/T.png'></img>	71,89	2750.0	test	<img class = center src='/static/experiments/beast_fmri_test/images/redT.png'></img>	go	-1.0	2.0	0.0	go	temp-non-target	T	71,Index Finger	89,Middle Finger	800.0	1000.0	1900.0	1800.0	0.0	n/a	n/a	n/a	go_stim
12665.786170617677	1475.2138293823075	n/a	1117	89	2750	1475.21382938	stim	stop-signal	200	626359	0.0-13.0-1.0	beast_fmri_test	388	623787,/,624462,/,625142,/,625822,/,626502,/,627181,/	t,t,t,t,t,t	<img class = center src='/static/experiments/beast_fmri_test/images/T.png'></img>	71,89	2750.0	test	<img class = center src='/static/experiments/beast_fmri_test/images/redT.png'></img>	go	-1.0	2.0	0.0	go	temp-non-target	T	71,Index Finger	89,Middle Finger	800.0	1000.0	1900.0	1800.0	0.0	n/a	n/a	n/a	ITI
16140	500	n/a	-1	-1	500	0.0	fixation	poldrack-single-stim	201	628358	0.0-13.1-0.1	beast_fmri_test	388	627861,/	t	<div class = centerbox2><div class = fixation>+</div></div>	none	500.0	test	n/a	n/a	n/a	n/a	n/a	n/a	n/a	n/a	n/a	n/a	n/a	n/a	n/a	n/a	n/a	n/a	n/a	n/a	fixation
15941.040978585836	2750	n/a	864	89	2750	204.959021414	stim	stop-signal	202	631114	0.0-13.1-1.1	beast_fmri_test	388	628542,/,629224,/,629906,/,630586,/,631265,/	t,t,t,t,t	<img class = center src='/static/experiments/beast_fmri_test/images/D.png'></img>	71,89	2750.0	test	<img class = center src='/static/experiments/beast_fmri_test/images/redD.png'></img>	go	-1.0	2.0	1.0	go	temp-non-target	D	71,Index Finger	89,Middle Finger	800.0	1000.0	1900.0	1800.0	0.0	n/a	n/a	n/a	go_stim
18691.040978585836	204.95902141420845	n/a	864	89	2750	204.959021414	stim	stop-signal	202	631114	0.0-13.1-1.1	beast_fmri_test	388	628542,/,629224,/,629906,/,630586,/,631265,/	t,t,t,t,t	<img class = center src='/static/experiments/beast_fmri_test/images/D.png'></img>	71,89	2750.0	test	<img class = center src='/static/experiments/beast_fmri_test/images/redD.png'></img>	go	-1.0	2.0	1.0	go	temp-non-target	D	71,Index Finger	89,Middle Finger	800.0	1000.0	1900.0	1800.0	0.0	n/a	n/a	n/a	ITI
19627	500	n/a	-1	-1	500	0.0	fixation	poldrack-single-stim	203	631845	0.0-13.2-0.2	beast_fmri_test	388	n/a	n/a	<div class = centerbox2><div class = fixation>+</div></div>	none	500.0	test	n/a	n/a	n/a	n/a	n/a	n/a	n/a	n/a	n/a	n/a	n/a	n/a	n/a	n/a	n/a	n/a	n/a	n/a	fixation
18921.973539363011	2750	n/a	817	71	2750	707.026460637	stim	stop-signal	204	634597	0.0-13.2-1.2	beast_fmri_test	388	631946,/,632625,/,633306,/,633986,/,634665,/	t,t,t,t,t	<img class = center src='/static/experiments/beast_fmri_test/images/T.png'></img>	71,89	2750.0	test	<img class = center src='/static/experiments/beast_fmri_test/images/redT.png'></img>	go	1950.0	2.0	2.0	go	target	T	71,Index Finger	89,Middle Finger	800.0	1000.0	1950.0	1800.0	1.0	800.0	n/a	1.0	go_stim
21671.973539363011	707.02646063696523	n/a	817	71	2750	707.026460637	stim	stop-signal	204	634597	0.0-13.2-1.2	beast_fmri_test	388	631946,/,632625,/,633306,/,633986,/,634665,/	t,t,t,t,t	<img class = center src='/static/experiments/beast_fmri_test/images/T.png'></img>	71,89	2750.0	test	<img class = center src='/static/experiments/beast_fmri_test/images/redT.png'></img>	go	1950.0	2.0	2.0	go	target	T	71,Index Finger	89,Middle Finger	800.0	1000.0	1950.0	1800.0	1.0	800.0	n/a	1.0	ITI
23610	500	n/a	-1	-1	500	0.0	fixation	poldrack-single-stim	205	635828	0.0-13.3-0.3	beast_fmri_test	388	635345,/	t	<div class = centerbox2><div class = fixation>+</div></div>	none	500.0	test	n/a	n/a	n/a	n/a	n/a	n/a	n/a	n/a	n/a	n/a	n/a	n/a	n/a	n/a	n/a	n/a	n/a	n/a	fixation
23475.707218599273	2750	n/a	479	71	2750	137.292781401	stim	stop-signal	206	638581	0.0-13.3-1.3	beast_fmri_test	388	636026,/,636706,/,637386,/,638065,/	t,t,t,t	<img class = center src='/static/experiments/beast_fmri_test/images/D.png'></img>	71,89	2750.0	test	<img class = center src='/static/experiments/beast_fmri_test/images/redD.png'></img>	go	1950.0	2.0	3.0	go	target	D	71,Index Finger	89,Middle Finger	800.0	1000.0	1950.0	1800.0	1.0	800.0	n/a	1.0	go_stim
26225.707218599273	137.29278140073143	n/a	479	71	2750	137.292781401	stim	stop-signal	206	638581	0.0-13.3-1.3	beast_fmri_test	388	636026,/,636706,/,637386,/,638065,/	t,t,t,t	<img class = center src='/static/experiments/beast_fmri_test/images/D.png'></img>	71,89	2750.0	test	<img class = center src='/static/experiments/beast_fmri_test/images/redD.png'></img>	go	1950.0	2.0	3.0	go	target	D	71,Index Finger	89,Middle Finger	800.0	1000.0	1950.0	1800.0	1.0	800.0	n/a	1.0	ITI
27028	500	n/a	-1	-1	500	0.0	fixation	poldrack-single-stim	207	639246	0.0-13.4-0.4	beast_fmri_test	388	638744,/	t	<div class = centerbox2><div class = fixation>+</div></div>	none	500.0	test	n/a	n/a	n/a	n/a	n/a	n/a	n/a	n/a	n/a	n/a	n/a	n/a	n/a	n/a	n/a	n/a	n/a	n/a	fixation
26913.902846910642	2750	n/a	802	89	2750	116.097153089	stim	stop-signal	208	641998	0.0-13.4-1.4	beast_fmri_test	388	639426,/,640106,/,640786,/,641465,/	t,t,t,t	<img class = center src='/static/experiments/beast_fmri_test/images/V.png'></img>	71,89	2750.0	test	<img class = center src='/static/experiments/beast_fmri_test/images/redV.png'></img>	go	1750.0	2.0	4.0	go	non-target	V	71,Index Finger	89,Middle Finger	800.0	1000.0	1950.0	1750.0	1.0	1000.0	n/a	1.0	go_stim
29663.902846910642	116.09715308930625	n/a	802	89	2750	116.097153089	stim	stop-signal	208	641998	0.0-13.4-1.4	beast_fmri_test	388	639426,/,640106,/,640786,/,641465,/	t,t,t,t	<img class = center src='/static/experiments/beast_fmri_test/images/V.png'></img>	71,89	2750.0	test	<img class = center src='/static/experiments/beast_fmri_test/images/redV.png'></img>	go	1750.0	2.0	4.0	go	non-target	V	71,Index Finger	89,Middle Finger	800.0	1000.0	1950.0	1750.0	1.0	1000.0	n/a	1.0	ITI
30419	500	n/a	-1	-1	500	0.0	fixation	poldrack-single-stim	209	642637	0.0-13.5-0.5	beast_fmri_test	388	642144,/	t	<div class = centerbox2><div class = fixation>+</div></div>	none	500.0	test	n/a	n/a	n/a	n/a	n/a	n/a	n/a	n/a	n/a	n/a	n/a	n/a	n/a	n/a	n/a	n/a	n/a	n/a	fixation
27976.737390557304	2750	n/a	1004	89	2750	2444.26260944	stim	stop-signal	210	645389	0.0-13.5-1.5	beast_fmri_test	388	642826,/,643507,/,644187,/,644867,/,645546,/,646227,/,646907,/,647585,/	t,t,t,t,t,t,t,t	<img class = center src='/static/experiments/beast_fmri_test/images/V.png'></img>	71,89	2750.0	test	<img class = center src='/static/experiments/beast_fmri_test/images/redV.png'></img>	go	1750.0	2.0	5.0	go	non-target	V	71,Index Finger	89,Middle Finger	800.0	1000.0	1950.0	1750.0	1.0	1000.0	n/a	1.0	go_stim
30726.737390557304	2444.2626094427451	n/a	1004	89	2750	2444.26260944	stim	stop-signal	210	645389	0.0-13.5-1.5	beast_fmri_test	388	642826,/,643507,/,644187,/,644867,/,645546,/,646227,/,646907,/,647585,/	t,t,t,t,t,t,t,t	<img class = center src='/static/experiments/beast_fmri_test/images/V.png'></img>	71,89	2750.0	test	<img class = center src='/static/experiments/beast_fmri_test/images/redV.png'></img>	go	1750.0	2.0	5.0	go	non-target	V	71,Index Finger	89,Middle Finger	800.0	1000.0	1950.0	1750.0	1.0	1000.0	n/a	1.0	ITI
36142	500	n/a	-1	-1	500	0.0	fixation	poldrack-single-stim	211	648360	0.0-13.6-0.6	beast_fmri_test	388	648266,/	t	<div class = centerbox2><div class = fixation>+</div></div>	none	500.0	test	n/a	n/a	n/a	n/a	n/a	n/a	n/a	n/a	n/a	n/a	n/a	n/a	n/a	n/a	n/a	n/a	n/a	n/a	fixation
35942.200649057748	2750	n/a	356	71	2750	206.799350942	stim	stop-signal	212	651117	0.0-13.6-1.6	beast_fmri_test	388	648947,/,649629,/,650311,/,650991,/	t,t,t,t	<img class = center src='/static/experiments/beast_fmri_test/images/V.png'></img>	71,89	2750.0	test	<img class = center src='/static/experiments/beast_fmri_test/images/redV.png'></img>	go	1950.0	2.0	6.0	go	target	V	71,Index Finger	89,Middle Finger	800.0	1000.0	1950.0	1750.0	1.0	800.0	n/a	1.0	go_stim
38692.200649057748	206.79935094230581	n/a	356	71	2750	206.799350942	stim	stop-signal	212	651117	0.0-13.6-1.6	beast_fmri_test	388	648947,/,649629,/,650311,/,650991,/	t,t,t,t	<img class = center src='/static/experiments/beast_fmri_test/images/V.png'></img>	71,89	2750.0	test	<img class = center src='/static/experiments/beast_fmri_test/images/redV.png'></img>	go	1950.0	2.0	6.0	go	target	V	71,Index Finger	89,Middle Finger	800.0	1000.0	1950.0	1750.0	1.0	800.0	n/a	1.0	ITI
39629	500	n/a	-1	-1	500	0.0	fixation	poldrack-single-stim	213	651847	0.0-13.7-0.7	beast_fmri_test	388	651671,/	t	<div class = centerbox2><div class = fixation>+</div></div>	none	500.0	test	n/a	n/a	n/a	n/a	n/a	n/a	n/a	n/a	n/a	n/a	n/a	n/a	n/a	n/a	n/a	n/a	n/a	n/a	fixation
39350.465904886718	2750	n/a	1038	89	2750	282.534095113	stim	stop-signal	214	654601	0.0-13.7-1.7	beast_fmri_test	388	652351,/,653031,/,653711,/,654391,/	t,t,t,t	<img class = center src='/static/experiments/beast_fmri_test/images/P.png'></img>	71,89	2750.0	test	<img class = center src='/static/experiments/beast_fmri_test/images/redP.png'></img>	go	1750.0	2.0	7.0	go	non-target	P	71,Index Finger	89,Middle Finger	800.0	1000.0	1950.0	1750.0	1.0	1000.0	n/a	1.0	go_stim
42100.465904886718	282.53409511329198	n/a	1038	89	2750	282.534095113	stim	stop-signal	214	654601	0.0-13.7-1.7	beast_fmri_test	388	652351,/,653031,/,653711,/,654391,/	t,t,t,t	<img class = center src='/static/experiments/beast_fmri_test/images/P.png'></img>	71,89	2750.0	test	<img class = center src='/static/experiments/beast_fmri_test/images/redP.png'></img>	go	1750.0	2.0	7.0	go	non-target	P	71,Index Finger	89,Middle Finger	800.0	1000.0	1950.0	1750.0	1.0	1000.0	n/a	1.0	ITI
43193	500	n/a	-1	-1	500	0.0	fixation	poldrack-single-stim	215	655411	0.0-13.8-0.8	beast_fmri_test	388	655071,/	t	<div class = centerbox2><div class = fixation>+</div></div>	none	500.0	test	n/a	n/a	n/a	n/a	n/a	n/a	n/a	n/a	n/a	n/a	n/a	n/a	n/a	n/a	n/a	n/a	n/a	n/a	fixation
41325.567929321667	2750	n/a	1128	89	2750	1870.43207068	stim	stop-signal	216	658164	0.0-13.8-1.8	beast_fmri_test	388	655751,/,656431,/,657111,/,657791,/,658471,/,659152,/,659834,/	t,t,t,t,t,t,t	<img class = center src='/static/experiments/beast_fmri_test/images/D.png'></img>	71,89	2750.0	test	<img class = center src='/static/experiments/beast_fmri_test/images/redD.png'></img>	go	1750.0	2.0	8.0	go	non-target	D	71,Index Finger	89,Middle Finger	800.0	1000.0	1950.0	1750.0	1.0	1000.0	n/a	1.0	go_stim
44075.567929321667	1870.4320706782767	n/a	1128	89	2750	1870.43207068	stim	stop-signal	216	658164	0.0-13.8-1.8	beast_fmri_test	388	655751,/,656431,/,657111,/,657791,/,658471,/,659152,/,659834,/	t,t,t,t,t,t,t	<img class = center src='/static/experiments/beast_fmri_test/images/D.png'></img>	71,89	2750.0	test	<img class = center src='/static/experiments/beast_fmri_test/images/redD.png'></img>	go	1750.0	2.0	8.0	go	non-target	D	71,Index Finger	89,Middle Finger	800.0	1000.0	1950.0	1750.0	1.0	1000.0	n/a	1.0	ITI
48344	500	n/a	-1	-1	500	0.0	fixation	poldrack-single-stim	217	660562	0.0-13.9-0.9	beast_fmri_test	388	660514,/	t	<div class = centerbox2><div class = fixation>+</div></div>	none	500.0	test	n/a	n/a	n/a	n/a	n/a	n/a	n/a	n/a	n/a	n/a	n/a	n/a	n/a	n/a	n/a	n/a	n/a	n/a	fixation
48201.254761013552	2750	n/a	686	89	2750	146.745238986	stim	stop-signal	218	663316	0.0-13.9-1.9	beast_fmri_test	388	661194,/,661875,/,662555,/,663234,/	t,t,t,t	<img class = center src='/static/experiments/beast_fmri_test/images/T.png'></img>	71,89	2750.0	test	<img class = center src='/static/experiments/beast_fmri_test/images/redT.png'></img>	go	1750.0	2.0	9.0	go	non-target	T	71,Index Finger	89,Middle Finger	800.0	1000.0	1950.0	1750.0	1.0	1000.0	n/a	1.0	go_stim
50951.254761013552	146.74523898646612	n/a	686	89	2750	146.745238986	stim	stop-signal	218	663316	0.0-13.9-1.9	beast_fmri_test	388	661194,/,661875,/,662555,/,663234,/	t,t,t,t	<img class = center src='/static/experiments/beast_fmri_test/images/T.png'></img>	71,89	2750.0	test	<img class = center src='/static/experiments/beast_fmri_test/images/redT.png'></img>	go	1750.0	2.0	9.0	go	non-target	T	71,Index Finger	89,Middle Finger	800.0	1000.0	1950.0	1750.0	1.0	1000.0	n/a	1.0	ITI
51771	500	n/a	-1	-1	500	0.0	fixation	poldrack-single-stim	219	663989	0.0-13.10-0.10	beast_fmri_test	388	663915,/	t	<div class = centerbox2><div class = fixation>+</div></div>	none	500.0	test	n/a	n/a	n/a	n/a	n/a	n/a	n/a	n/a	n/a	n/a	n/a	n/a	n/a	n/a	n/a	n/a	n/a	n/a	fixation
50438.777854575659	800.0	n/a	651	71	2750	1335.22214542	stim	stop-signal	220	666742	0.0-13.10-1.10	beast_fmri_test	388	664595,/,665274,/,665955,/,666635,/,667315,/,667995,/	t,t,t,t,t,t	<img class = center src='/static/experiments/beast_fmri_test/images/D.png'></img>	71,89	2750.0	test	<img class = center src='/static/experiments/beast_fmri_test/images/redD.png'></img>	stop	1950.0	2.0	10.0	stop	target	D	71,Index Finger	89,Middle Finger	800.0	1000.0	1950.0	1750.0	0.0	800.0	0.0	n/a	go_stim
52388.777854575659	1950.0	n/a	651	71	2750	1335.22214542	stim	stop-signal	220	666742	0.0-13.10-1.10	beast_fmri_test	388	664595,/,665274,/,665955,/,666635,/,667315,/,667995,/	t,t,t,t,t,t	<img class = center src='/static/experiments/beast_fmri_test/images/D.png'></img>	71,89	2750.0	test	<img class = center src='/static/experiments/beast_fmri_test/images/redD.png'></img>	stop	1950.0	2.0	10.0	stop	target	D	71,Index Finger	89,Middle Finger	800.0	1000.0	1950.0	1750.0	0.0	800.0	0.0	n/a	stop_stim
53188.777854575659	1335.2221454243961	n/a	651	71	2750	1335.22214542	stim	stop-signal	220	666742	0.0-13.10-1.10	beast_fmri_test	388	664595,/,665274,/,665955,/,666635,/,667315,/,667995,/	t,t,t,t,t,t	<img class = center src='/static/experiments/beast_fmri_test/images/D.png'></img>	71,89	2750.0	test	<img class = center src='/static/experiments/beast_fmri_test/images/redD.png'></img>	stop	1950.0	2.0	10.0	stop	target	D	71,Index Finger	89,Middle Finger	800.0	1000.0	1950.0	1750.0	0.0	800.0	0.0	n/a	ITI
56386	500	n/a	-1	-1	500	0.0	fixation	poldrack-single-stim	221	668604	0.0-13.11-0.11	beast_fmri_test	388	n/a	n/a	<div class = centerbox2><div class = fixation>+</div></div>	none	500.0	test	n/a	n/a	n/a	n/a	n/a	n/a	n/a	n/a	n/a	n/a	n/a	n/a	n/a	n/a	n/a	n/a	n/a	n/a	fixation
56205.545888278633	1000.0	n/a	907	89	2750	187.454111721	stim	stop-signal	222	671361	0.0-13.11-1.11	beast_fmri_test	388	668674,/,669356,/,670039,/,670720,/,671397,/	t,t,t,t,t	<img class = center src='/static/experiments/beast_fmri_test/images/V.png'></img>	71,89	2750.0	test	<img class = center src='/static/experiments/beast_fmri_test/images/redV.png'></img>	stop	1750.0	2.0	11.0	stop	non-target	V	71,Index Finger	89,Middle Finger	750.0	1000.0	1950.0	1750.0	0.0	1000.0	0.0	n/a	go_stim
57955.545888278633	1750.0	n/a	907	89	2750	187.454111721	stim	stop-signal	222	671361	0.0-13.11-1.11	beast_fmri_test	388	668674,/,669356,/,670039,/,670720,/,671397,/	t,t,t,t,t	<img class = center src='/static/experiments/beast_fmri_test/images/V.png'></img>	71,89	2750.0	test	<img class = center src='/static/experiments/beast_fmri_test/images/redV.png'></img>	stop	1750.0	2.0	11.0	stop	non-target	V	71,Index Finger	89,Middle Finger	750.0	1000.0	1950.0	1750.0	0.0	1000.0	0.0	n/a	stop_stim
58955.545888278633	187.45411172141641	n/a	907	89	2750	187.454111721	stim	stop-signal	222	671361	0.0-13.11-1.11	beast_fmri_test	388	668674,/,669356,/,670039,/,670720,/,671397,/	t,t,t,t,t	<img class = center src='/static/experiments/beast_fmri_test/images/V.png'></img>	71,89	2750.0	test	<img class = center src='/static/experiments/beast_fmri_test/images/redV.png'></img>	stop	1750.0	2.0	11.0	stop	non-target	V	71,Index Finger	89,Middle Finger	750.0	1000.0	1950.0	1750.0	0.0	1000.0	0.0	n/a	ITI
59856	500	n/a	-1	-1	500	0.0	fixation	poldrack-single-stim	223	672074	0.0-13.12-0.12	beast_fmri_test	388	n/a	n/a	<div class = centerbox2><div class = fixation>+</div></div>	none	500.0	test	n/a	n/a	n/a	n/a	n/a	n/a	n/a	n/a	n/a	n/a	n/a	n/a	n/a	n/a	n/a	n/a	n/a	n/a	fixation
57475.866487939958	2750	n/a	1051	71	2750	2382.13351206	stim	stop-signal	224	674826	0.0-13.12-1.12	beast_fmri_test	388	672079,/,672759,/,673440,/,674120,/,674799,/,675480,/,676159,/,676839,/	t,t,t,t,t,t,t,t	<img class = center src='/static/experiments/beast_fmri_test/images/D.png'></img>	71,89	2750.0	test	<img class = center src='/static/experiments/beast_fmri_test/images/redD.png'></img>	go	2000.0	2.0	12.0	go	target	D	71,Index Finger	89,Middle Finger	750.0	950.0	2000.0	1750.0	1.0	750.0	n/a	1.0	go_stim
60225.866487939958	2382.1335120599961	n/a	1051	71	2750	2382.13351206	stim	stop-signal	224	674826	0.0-13.12-1.12	beast_fmri_test	388	672079,/,672759,/,673440,/,674120,/,674799,/,675480,/,676159,/,676839,/	t,t,t,t,t,t,t,t	<img class = center src='/static/experiments/beast_fmri_test/images/D.png'></img>	71,89	2750.0	test	<img class = center src='/static/experiments/beast_fmri_test/images/redD.png'></img>	go	2000.0	2.0	12.0	go	target	D	71,Index Finger	89,Middle Finger	750.0	950.0	2000.0	1750.0	1.0	750.0	n/a	1.0	ITI
65517	500	n/a	-1	-1	500	0.0	fixation	poldrack-single-stim	225	677735	0.0-13.13-0.13	beast_fmri_test	388	677520,/	t	<div class = centerbox2><div class = fixation>+</div></div>	none	500.0	test	n/a	n/a	n/a	n/a	n/a	n/a	n/a	n/a	n/a	n/a	n/a	n/a	n/a	n/a	n/a	n/a	n/a	n/a	fixation
64776.908518193988	2750	n/a	1172	89	2750	749.091481806	stim	stop-signal	226	680494	0.0-13.13-1.13	beast_fmri_test	388	678200,/,678880,/,679562,/,680244,/,680923,/	t,t,t,t,t	<img class = center src='/static/experiments/beast_fmri_test/images/D.png'></img>	71,89	2750.0	test	<img class = center src='/static/experiments/beast_fmri_test/images/redD.png'></img>	go	1800.0	2.0	13.0	go	non-target	D	71,Index Finger	89,Middle Finger	750.0	950.0	2000.0	1800.0	1.0	950.0	n/a	1.0	go_stim
67526.908518193988	749.09148180599118	n/a	1172	89	2750	749.091481806	stim	stop-signal	226	680494	0.0-13.13-1.13	beast_fmri_test	388	678200,/,678880,/,679562,/,680244,/,680923,/	t,t,t,t,t	<img class = center src='/static/experiments/beast_fmri_test/images/D.png'></img>	71,89	2750.0	test	<img class = center src='/static/experiments/beast_fmri_test/images/redD.png'></img>	go	1800.0	2.0	13.0	go	non-target	D	71,Index Finger	89,Middle Finger	750.0	950.0	2000.0	1800.0	1.0	950.0	n/a	1.0	ITI
69549	500	n/a	-1	-1	500	0.0	fixation	poldrack-single-stim	227	681767	0.0-13.14-0.14	beast_fmri_test	388	681604,/	t	<div class = centerbox2><div class = fixation>+</div></div>	none	500.0	test	n/a	n/a	n/a	n/a	n/a	n/a	n/a	n/a	n/a	n/a	n/a	n/a	n/a	n/a	n/a	n/a	n/a	n/a	fixation
69188.165569687029	2750	n/a	1158	89	2750	364.834430313	stim	stop-signal	228	684521	0.0-13.14-1.14	beast_fmri_test	388	682284,/,682964,/,683644,/,684324,/	t,t,t,t	<img class = center src='/static/experiments/beast_fmri_test/images/T.png'></img>	71,89	2750.0	test	<img class = center src='/static/experiments/beast_fmri_test/images/redT.png'></img>	go	1800.0	2.0	14.0	go	non-target	T	71,Index Finger	89,Middle Finger	750.0	950.0	2000.0	1800.0	1.0	950.0	n/a	1.0	go_stim
71938.165569687029	364.83443031298447	n/a	1158	89	2750	364.834430313	stim	stop-signal	228	684521	0.0-13.14-1.14	beast_fmri_test	388	682284,/,682964,/,683644,/,684324,/	t,t,t,t	<img class = center src='/static/experiments/beast_fmri_test/images/T.png'></img>	71,89	2750.0	test	<img class = center src='/static/experiments/beast_fmri_test/images/redT.png'></img>	go	1800.0	2.0	14.0	go	non-target	T	71,Index Finger	89,Middle Finger	750.0	950.0	2000.0	1800.0	1.0	950.0	n/a	1.0	ITI
73195	500	n/a	-1	-1	500	0.0	fixation	poldrack-single-stim	229	685413	0.0-13.15-0.15	beast_fmri_test	388	685004,/	t	<div class = centerbox2><div class = fixation>+</div></div>	none	500.0	test	n/a	n/a	n/a	n/a	n/a	n/a	n/a	n/a	n/a	n/a	n/a	n/a	n/a	n/a	n/a	n/a	n/a	n/a	fixation
71197.721233342076	2750	n/a	1369	89	2750	2000.27876666	stim	stop-signal	230	688166	0.0-13.15-1.15	beast_fmri_test	388	685684,/,686364,/,687044,/,687724,/,688404,/,689084,/,689767,/	t,t,t,t,t,t,t	<img class = center src='/static/experiments/beast_fmri_test/images/P.png'></img>	71,89	2750.0	test	<img class = center src='/static/experiments/beast_fmri_test/images/redP.png'></img>	go	1800.0	2.0	15.0	go	non-target	P	71,Index Finger	89,Middle Finger	750.0	950.0	2000.0	1800.0	1.0	950.0	n/a	1.0	go_stim
73947.721233342076	2000.278766657947	n/a	1369	89	2750	2000.27876666	stim	stop-signal	230	688166	0.0-13.15-1.15	beast_fmri_test	388	685684,/,686364,/,687044,/,687724,/,688404,/,689084,/,689767,/	t,t,t,t,t,t,t	<img class = center src='/static/experiments/beast_fmri_test/images/P.png'></img>	71,89	2750.0	test	<img class = center src='/static/experiments/beast_fmri_test/images/redP.png'></img>	go	1800.0	2.0	15.0	go	non-target	P	71,Index Finger	89,Middle Finger	750.0	950.0	2000.0	1800.0	1.0	950.0	n/a	1.0	ITI
78479	500	n/a	-1	-1	500	0.0	fixation	poldrack-single-stim	231	690697	0.0-13.16-0.16	beast_fmri_test	388	690448,/	t	<div class = centerbox2><div class = fixation>+</div></div>	none	500.0	test	n/a	n/a	n/a	n/a	n/a	n/a	n/a	n/a	n/a	n/a	n/a	n/a	n/a	n/a	n/a	n/a	n/a	n/a	fixation
76898.774464888265	2750	n/a	1589	89	2750	1584.22553511	stim	stop-signal	232	693451	0.0-13.16-1.16	beast_fmri_test	388	691128,/,691808,/,692488,/,693169,/,693848,/,694528,/	t,t,t,t,t,t	<img class = center src='/static/experiments/beast_fmri_test/images/B.png'></img>	71,89	2750.0	test	<img class = center src='/static/experiments/beast_fmri_test/images/redB.png'></img>	go	1800.0	2.0	16.0	go	non-target	B	71,Index Finger	89,Middle Finger	750.0	950.0	2000.0	1800.0	1.0	950.0	n/a	1.0	go_stim
79648.774464888265	1584.2255351116935	n/a	1589	89	2750	1584.22553511	stim	stop-signal	232	693451	0.0-13.16-1.16	beast_fmri_test	388	691128,/,691808,/,692488,/,693169,/,693848,/,694528,/	t,t,t,t,t,t	<img class = center src='/static/experiments/beast_fmri_test/images/B.png'></img>	71,89	2750.0	test	<img class = center src='/static/experiments/beast_fmri_test/images/redB.png'></img>	go	1800.0	2.0	16.0	go	non-target	B	71,Index Finger	89,Middle Finger	750.0	950.0	2000.0	1800.0	1.0	950.0	n/a	1.0	ITI
83344	500	n/a	-1	-1	500	0.0	fixation	poldrack-single-stim	233	695562	0.0-13.17-0.17	beast_fmri_test	388	695208,/	t	<div class = centerbox2><div class = fixation>+</div></div>	none	500.0	test	n/a	n/a	n/a	n/a	n/a	n/a	n/a	n/a	n/a	n/a	n/a	n/a	n/a	n/a	n/a	n/a	n/a	n/a	fixation
83263.016459648265	750.0	n/a	-1	-1	2750	84.9835403517	stim	stop-signal	234	698316	0.0-13.17-1.17	beast_fmri_test	388	695887,/,696569,/,697248,/,697929,/	t,t,t,t	<img class = center src='/static/experiments/beast_fmri_test/images/P.png'></img>	71,89	2750.0	test	<img class = center src='/static/experiments/beast_fmri_test/images/redP.png'></img>	stop	2000.0	2.0	17.0	stop	target	P	71,Index Finger	89,Middle Finger	750.0	950.0	2000.0	1800.0	0.0	750.0	1.0	n/a	go_stim
85263.016459648265	2000.0	n/a	-1	-1	2750	84.9835403517	stim	stop-signal	234	698316	0.0-13.17-1.17	beast_fmri_test	388	695887,/,696569,/,697248,/,697929,/	t,t,t,t	<img class = center src='/static/experiments/beast_fmri_test/images/P.png'></img>	71,89	2750.0	test	<img class = center src='/static/experiments/beast_fmri_test/images/redP.png'></img>	stop	2000.0	2.0	17.0	stop	target	P	71,Index Finger	89,Middle Finger	750.0	950.0	2000.0	1800.0	0.0	750.0	1.0	n/a	stop_stim
86013.016459648265	84.983540351677874	n/a	-1	-1	2750	84.9835403517	stim	stop-signal	234	698316	0.0-13.17-1.17	beast_fmri_test	388	695887,/,696569,/,697248,/,697929,/	t,t,t,t	<img class = center src='/static/experiments/beast_fmri_test/images/P.png'></img>	71,89	2750.0	test	<img class = center src='/static/experiments/beast_fmri_test/images/redP.png'></img>	stop	2000.0	2.0	17.0	stop	target	P	71,Index Finger	89,Middle Finger	750.0	950.0	2000.0	1800.0	0.0	750.0	1.0	n/a	ITI
86707	500	n/a	-1	-1	500	0.0	fixation	poldrack-single-stim	235	698925	0.0-13.18-0.18	beast_fmri_test	388	698607,/	t	<div class = centerbox2><div class = fixation>+</div></div>	none	500.0	test	n/a	n/a	n/a	n/a	n/a	n/a	n/a	n/a	n/a	n/a	n/a	n/a	n/a	n/a	n/a	n/a	n/a	n/a	fixation
86646.103096858831	800.0	n/a	-1	-1	2750	64.8969031411	stim	stop-signal	236	701679	0.0-13.18-1.18	beast_fmri_test	388	699288,/,699969,/,700650,/,701328,/	t,t,t,t	<img class = center src='/static/experiments/beast_fmri_test/images/B.png'></img>	71,89	2750.0	test	<img class = center src='/static/experiments/beast_fmri_test/images/redB.png'></img>	stop	1950.0	2.0	18.0	stop	target	B	71,Index Finger	89,Middle Finger	800.0	950.0	1950.0	1800.0	0.0	800.0	1.0	n/a	go_stim
88596.103096858831	1950.0	n/a	-1	-1	2750	64.8969031411	stim	stop-signal	236	701679	0.0-13.18-1.18	beast_fmri_test	388	699288,/,699969,/,700650,/,701328,/	t,t,t,t	<img class = center src='/static/experiments/beast_fmri_test/images/B.png'></img>	71,89	2750.0	test	<img class = center src='/static/experiments/beast_fmri_test/images/redB.png'></img>	stop	1950.0	2.0	18.0	stop	target	B	71,Index Finger	89,Middle Finger	800.0	950.0	1950.0	1800.0	0.0	800.0	1.0	n/a	stop_stim
89396.103096858831	64.896903141146097	n/a	-1	-1	2750	64.8969031411	stim	stop-signal	236	701679	0.0-13.18-1.18	beast_fmri_test	388	699288,/,699969,/,700650,/,701328,/	t,t,t,t	<img class = center src='/static/experiments/beast_fmri_test/images/B.png'></img>	71,89	2750.0	test	<img class = center src='/static/experiments/beast_fmri_test/images/redB.png'></img>	stop	1950.0	2.0	18.0	stop	target	B	71,Index Finger	89,Middle Finger	800.0	950.0	1950.0	1800.0	0.0	800.0	1.0	n/a	ITI
90050	500	n/a	-1	-1	500	0.0	fixation	poldrack-single-stim	237	702268	0.0-13.19-0.19	beast_fmri_test	388	702009,/	t	<div class = centerbox2><div class = fixation>+</div></div>	none	500.0	test	n/a	n/a	n/a	n/a	n/a	n/a	n/a	n/a	n/a	n/a	n/a	n/a	n/a	n/a	n/a	n/a	n/a	n/a	fixation
87056.676703892532	2750	n/a	1445	71	2750	2995.32329611	stim	stop-signal	238	705020	0.0-13.19-1.19	beast_fmri_test	388	702689,/,703368,/,704049,/,704729,/,705408,/,706089,/,706769,/,707449,/	t,t,t,t,t,t,t,t	<img class = center src='/static/experiments/beast_fmri_test/images/P.png'></img>	71,89	2750.0	test	<img class = center src='/static/experiments/beast_fmri_test/images/redP.png'></img>	go	1900.0	2.0	19.0	go	target	P	71,Index Finger	89,Middle Finger	850.0	950.0	1900.0	1800.0	1.0	850.0	n/a	1.0	go_stim
89806.676703892532	2995.3232961075109	n/a	1445	71	2750	2995.32329611	stim	stop-signal	238	705020	0.0-13.19-1.19	beast_fmri_test	388	702689,/,703368,/,704049,/,704729,/,705408,/,706089,/,706769,/,707449,/	t,t,t,t,t,t,t,t	<img class = center src='/static/experiments/beast_fmri_test/images/P.png'></img>	71,89	2750.0	test	<img class = center src='/static/experiments/beast_fmri_test/images/redP.png'></img>	go	1900.0	2.0	19.0	go	target	P	71,Index Finger	89,Middle Finger	850.0	950.0	1900.0	1800.0	1.0	850.0	n/a	1.0	ITI
96325	500	n/a	-1	-1	500	0.0	fixation	poldrack-single-stim	239	708543	0.0-13.20-0.20	beast_fmri_test	388	708129,/	t	<div class = centerbox2><div class = fixation>+</div></div>	none	500.0	test	n/a	n/a	n/a	n/a	n/a	n/a	n/a	n/a	n/a	n/a	n/a	n/a	n/a	n/a	n/a	n/a	n/a	n/a	fixation
93472.759493245394	950.0	n/a	-1	-1	2750	2859.24050675	stim	stop-signal	240	711300	0.0-13.20-1.20	beast_fmri_test	388	708810,/,709492,/,710174,/,710853,/,711532,/,712213,/,712893,/,713573,/	t,t,t,t,t,t,t,t	<img class = center src='/static/experiments/beast_fmri_test/images/D.png'></img>	71,89	2750.0	test	<img class = center src='/static/experiments/beast_fmri_test/images/redD.png'></img>	stop	1800.0	2.0	20.0	stop	non-target	D	71,Index Finger	89,Middle Finger	850.0	950.0	1900.0	1800.0	0.0	950.0	1.0	n/a	go_stim
95272.759493245394	1800.0	n/a	-1	-1	2750	2859.24050675	stim	stop-signal	240	711300	0.0-13.20-1.20	beast_fmri_test	388	708810,/,709492,/,710174,/,710853,/,711532,/,712213,/,712893,/,713573,/	t,t,t,t,t,t,t,t	<img class = center src='/static/experiments/beast_fmri_test/images/D.png'></img>	71,89	2750.0	test	<img class = center src='/static/experiments/beast_fmri_test/images/redD.png'></img>	stop	1800.0	2.0	20.0	stop	non-target	D	71,Index Finger	89,Middle Finger	850.0	950.0	1900.0	1800.0	0.0	950.0	1.0	n/a	stop_stim
96222.759493245394	2859.2405067546583	n/a	-1	-1	2750	2859.24050675	stim	stop-signal	240	711300	0.0-13.20-1.20	beast_fmri_test	388	708810,/,709492,/,710174,/,710853,/,711532,/,712213,/,712893,/,713573,/	t,t,t,t,t,t,t,t	<img class = center src='/static/experiments/beast_fmri_test/images/D.png'></img>	71,89	2750.0	test	<img class = center src='/static/experiments/beast_fmri_test/images/redD.png'></img>	stop	1800.0	2.0	20.0	stop	non-target	D	71,Index Finger	89,Middle Finger	850.0	950.0	1900.0	1800.0	0.0	950.0	1.0	n/a	ITI
102469	500	n/a	-1	-1	500	0.0	fixation	poldrack-single-stim	241	714687	0.0-13.21-0.21	beast_fmri_test	388	714254,/	t	<div class = centerbox2><div class = fixation>+</div></div>	none	500.0	test	n/a	n/a	n/a	n/a	n/a	n/a	n/a	n/a	n/a	n/a	n/a	n/a	n/a	n/a	n/a	n/a	n/a	n/a	fixation
102116.36846699123	2750	n/a	1435	89	2750	356.631533009	stim	stop-signal	242	717441	0.0-13.21-1.21	beast_fmri_test	388	714932,/,715614,/,716292,/,716972,/,717653,/	t,t,t,t,t	<img class = center src='/static/experiments/beast_fmri_test/images/B.png'></img>	71,89	2750.0	test	<img class = center src='/static/experiments/beast_fmri_test/images/redB.png'></img>	go	1750.0	2.0	21.0	go	non-target	B	71,Index Finger	89,Middle Finger	850.0	1000.0	1900.0	1750.0	1.0	1000.0	n/a	1.0	go_stim
104866.36846699123	356.63153300878378	n/a	1435	89	2750	356.631533009	stim	stop-signal	242	717441	0.0-13.21-1.21	beast_fmri_test	388	714932,/,715614,/,716292,/,716972,/,717653,/	t,t,t,t,t	<img class = center src='/static/experiments/beast_fmri_test/images/B.png'></img>	71,89	2750.0	test	<img class = center src='/static/experiments/beast_fmri_test/images/redB.png'></img>	go	1750.0	2.0	21.0	go	non-target	B	71,Index Finger	89,Middle Finger	850.0	1000.0	1900.0	1750.0	1.0	1000.0	n/a	1.0	ITI
106106	500	n/a	-1	-1	500	0.0	fixation	poldrack-single-stim	243	718324	0.0-13.22-0.22	beast_fmri_test	388	n/a	n/a	<div class = centerbox2><div class = fixation>+</div></div>	none	500.0	test	n/a	n/a	n/a	n/a	n/a	n/a	n/a	n/a	n/a	n/a	n/a	n/a	n/a	n/a	n/a	n/a	n/a	n/a	fixation
104543.36547595065	2750	n/a	1455	89	2750	1568.63452405	stim	stop-signal	244	721080	0.0-13.22-1.22	beast_fmri_test	388	718333,/,719014,/,719696,/,720377,/,721057,/,721737,/,722417,/	t,t,t,t,t,t,t	<img class = center src='/static/experiments/beast_fmri_test/images/T.png'></img>	71,89	2750.0	test	<img class = center src='/static/experiments/beast_fmri_test/images/redT.png'></img>	go	1750.0	2.0	22.0	go	non-target	T	71,Index Finger	89,Middle Finger	850.0	1000.0	1900.0	1750.0	1.0	1000.0	n/a	1.0	go_stim
107293.36547595065	1568.634524049334	n/a	1455	89	2750	1568.63452405	stim	stop-signal	244	721080	0.0-13.22-1.22	beast_fmri_test	388	718333,/,719014,/,719696,/,720377,/,721057,/,721737,/,722417,/	t,t,t,t,t,t,t	<img class = center src='/static/experiments/beast_fmri_test/images/T.png'></img>	71,89	2750.0	test	<img class = center src='/static/experiments/beast_fmri_test/images/redT.png'></img>	go	1750.0	2.0	22.0	go	non-target	T	71,Index Finger	89,Middle Finger	850.0	1000.0	1900.0	1750.0	1.0	1000.0	n/a	1.0	ITI
110957	500	n/a	-1	-1	500	0.0	fixation	poldrack-single-stim	245	723175	0.0-13.23-0.23	beast_fmri_test	388	723096,/	t	<div class = centerbox2><div class = fixation>+</div></div>	none	500.0	test	n/a	n/a	n/a	n/a	n/a	n/a	n/a	n/a	n/a	n/a	n/a	n/a	n/a	n/a	n/a	n/a	n/a	n/a	fixation
110109.69591369142	1000.0	n/a	1378	89	2750	849.304086309	stim	stop-signal	246	725927	0.0-13.23-1.23	beast_fmri_test	388	723776,/,724458,/,725137,/,725817,/,726497,/	t,t,t,t,t	<img class = center src='/static/experiments/beast_fmri_test/images/P.png'></img>	71,89	2750.0	test	<img class = center src='/static/experiments/beast_fmri_test/images/redP.png'></img>	stop	1750.0	2.0	23.0	stop	non-target	P	71,Index Finger	89,Middle Finger	850.0	1000.0	1900.0	1750.0	0.0	1000.0	0.0	n/a	go_stim
111859.69591369142	1750.0	n/a	1378	89	2750	849.304086309	stim	stop-signal	246	725927	0.0-13.23-1.23	beast_fmri_test	388	723776,/,724458,/,725137,/,725817,/,726497,/	t,t,t,t,t	<img class = center src='/static/experiments/beast_fmri_test/images/P.png'></img>	71,89	2750.0	test	<img class = center src='/static/experiments/beast_fmri_test/images/redP.png'></img>	stop	1750.0	2.0	23.0	stop	non-target	P	71,Index Finger	89,Middle Finger	850.0	1000.0	1900.0	1750.0	0.0	1000.0	0.0	n/a	stop_stim
112859.69591369142	849.3040863085846	n/a	1378	89	2750	849.304086309	stim	stop-signal	246	725927	0.0-13.23-1.23	beast_fmri_test	388	723776,/,724458,/,725137,/,725817,/,726497,/	t,t,t,t,t	<img class = center src='/static/experiments/beast_fmri_test/images/P.png'></img>	71,89	2750.0	test	<img class = center src='/static/experiments/beast_fmri_test/images/redP.png'></img>	stop	1750.0	2.0	23.0	stop	non-target	P	71,Index Finger	89,Middle Finger	850.0	1000.0	1900.0	1750.0	0.0	1000.0	0.0	n/a	ITI
115084	500	n/a	-1	-1	500	0.0	fixation	poldrack-single-stim	247	727302	0.0-13.24-0.24	beast_fmri_test	388	727178,/	t	<div class = centerbox2><div class = fixation>+</div></div>	none	500.0	test	n/a	n/a	n/a	n/a	n/a	n/a	n/a	n/a	n/a	n/a	n/a	n/a	n/a	n/a	n/a	n/a	n/a	n/a	fixation
115060.09453949064	2750	n/a	1177	71	2750	30.9054605094	stim	stop-signal	248	730059	0.0-13.24-1.24	beast_fmri_test	388	727857,/,728537,/,729218,/,729902,/	t,t,t,t	<img class = center src='/static/experiments/beast_fmri_test/images/P.png'></img>	71,89	2750.0	test	<img class = center src='/static/experiments/beast_fmri_test/images/redP.png'></img>	go	1800.0	2.0	24.0	go	non-target	P	71,Index Finger	89,Middle Finger	850.0	950.0	1900.0	1800.0	0.0	950.0	n/a	0.0	go_stim
117810.09453949064	30.905460509395571	n/a	1177	71	2750	30.9054605094	stim	stop-signal	248	730059	0.0-13.24-1.24	beast_fmri_test	388	727857,/,728537,/,729218,/,729902,/	t,t,t,t	<img class = center src='/static/experiments/beast_fmri_test/images/P.png'></img>	71,89	2750.0	test	<img class = center src='/static/experiments/beast_fmri_test/images/redP.png'></img>	go	1800.0	2.0	24.0	go	non-target	P	71,Index Finger	89,Middle Finger	850.0	950.0	1900.0	1800.0	0.0	950.0	n/a	0.0	ITI
118399	500	n/a	-1	-1	500	0.0	fixation	poldrack-single-stim	249	730617	0.0-13.25-0.25	beast_fmri_test	388	730582,/	t	<div class = centerbox2><div class = fixation>+</div></div>	none	500.0	test	n/a	n/a	n/a	n/a	n/a	n/a	n/a	n/a	n/a	n/a	n/a	n/a	n/a	n/a	n/a	n/a	n/a	n/a	fixation
117216.84543468582	2750	n/a	1364	89	2750	1185.15456531	stim	stop-signal	250	733370	0.0-13.25-1.25	beast_fmri_test	388	731261,/,731942,/,732623,/,733301,/,733983,/	t,t,t,t,t	<img class = center src='/static/experiments/beast_fmri_test/images/P.png'></img>	71,89	2750.0	test	<img class = center src='/static/experiments/beast_fmri_test/images/redP.png'></img>	go	1900.0	2.0	25.0	go	target	P	71,Index Finger	89,Middle Finger	850.0	950.0	1900.0	1800.0	0.0	850.0	n/a	0.0	go_stim
119966.84543468582	1185.1545653142039	n/a	1364	89	2750	1185.15456531	stim	stop-signal	250	733370	0.0-13.25-1.25	beast_fmri_test	388	731261,/,731942,/,732623,/,733301,/,733983,/	t,t,t,t,t	<img class = center src='/static/experiments/beast_fmri_test/images/P.png'></img>	71,89	2750.0	test	<img class = center src='/static/experiments/beast_fmri_test/images/redP.png'></img>	go	1900.0	2.0	25.0	go	target	P	71,Index Finger	89,Middle Finger	850.0	950.0	1900.0	1800.0	0.0	850.0	n/a	0.0	ITI
122867	500	n/a	-1	-1	500	0.0	fixation	poldrack-single-stim	251	735085	0.0-13.26-0.26	beast_fmri_test	388	734662,/	t	<div class = centerbox2><div class = fixation>+</div></div>	none	500.0	test	n/a	n/a	n/a	n/a	n/a	n/a	n/a	n/a	n/a	n/a	n/a	n/a	n/a	n/a	n/a	n/a	n/a	n/a	fixation
122364.55309189111	2750	n/a	1115	89	2750	505.446908109	stim	stop-signal	252	737838	0.0-13.26-1.26	beast_fmri_test	388	735342,/,736022,/,736701,/,737383,/,738062,/	t,t,t,t,t	<img class = center src='/static/experiments/beast_fmri_test/images/V.png'></img>	71,89	2750.0	test	<img class = center src='/static/experiments/beast_fmri_test/images/redV.png'></img>	go	1800.0	2.0	26.0	go	non-target	V	71,Index Finger	89,Middle Finger	850.0	950.0	1900.0	1800.0	1.0	950.0	n/a	1.0	go_stim
125114.55309189111	505.44690810886704	n/a	1115	89	2750	505.446908109	stim	stop-signal	252	737838	0.0-13.26-1.26	beast_fmri_test	388	735342,/,736022,/,736701,/,737383,/,738062,/	t,t,t,t,t	<img class = center src='/static/experiments/beast_fmri_test/images/V.png'></img>	71,89	2750.0	test	<img class = center src='/static/experiments/beast_fmri_test/images/redV.png'></img>	go	1800.0	2.0	26.0	go	non-target	V	71,Index Finger	89,Middle Finger	850.0	950.0	1900.0	1800.0	1.0	950.0	n/a	1.0	ITI
126654	500	n/a	-1	-1	500	0.0	fixation	poldrack-single-stim	253	738872	0.0-13.27-0.27	beast_fmri_test	388	738743,/	t	<div class = centerbox2><div class = fixation>+</div></div>	none	500.0	test	n/a	n/a	n/a	n/a	n/a	n/a	n/a	n/a	n/a	n/a	n/a	n/a	n/a	n/a	n/a	n/a	n/a	n/a	fixation
126548.60154416226	2750	n/a	1709	89	2750	112.398455838	stim	stop-signal	254	741629	0.0-13.27-1.27	beast_fmri_test	388	739425,/,740107,/,740786,/,741466,/	t,t,t,t	<img class = center src='/static/experiments/beast_fmri_test/images/B.png'></img>	71,89	2750.0	test	<img class = center src='/static/experiments/beast_fmri_test/images/redB.png'></img>	go	1800.0	2.0	27.0	go	non-target	B	71,Index Finger	89,Middle Finger	850.0	950.0	1900.0	1800.0	1.0	950.0	n/a	1.0	go_stim
129298.60154416226	112.39845583771582	n/a	1709	89	2750	112.398455838	stim	stop-signal	254	741629	0.0-13.27-1.27	beast_fmri_test	388	739425,/,740107,/,740786,/,741466,/	t,t,t,t	<img class = center src='/static/experiments/beast_fmri_test/images/B.png'></img>	71,89	2750.0	test	<img class = center src='/static/experiments/beast_fmri_test/images/redB.png'></img>	go	1800.0	2.0	27.0	go	non-target	B	71,Index Finger	89,Middle Finger	850.0	950.0	1900.0	1800.0	1.0	950.0	n/a	1.0	ITI
130054	500	n/a	-1	-1	500	0.0	fixation	poldrack-single-stim	255	742272	0.0-13.28-0.28	beast_fmri_test	388	742147,/	t	<div class = centerbox2><div class = fixation>+</div></div>	none	500.0	test	n/a	n/a	n/a	n/a	n/a	n/a	n/a	n/a	n/a	n/a	n/a	n/a	n/a	n/a	n/a	n/a	n/a	n/a	fixation
129843.79975278594	2750	n/a	1383	89	2750	212.200247214	stim	stop-signal	256	745024	0.0-13.28-1.28	beast_fmri_test	388	742827,/,743507,/,744186,/,744867,/	t,t,t,t	<img class = center src='/static/experiments/beast_fmri_test/images/D.png'></img>	71,89	2750.0	test	<img class = center src='/static/experiments/beast_fmri_test/images/redD.png'></img>	go	1800.0	2.0	28.0	go	non-target	D	71,Index Finger	89,Middle Finger	850.0	950.0	1900.0	1800.0	1.0	950.0	n/a	1.0	go_stim
132593.79975278594	212.20024721404602	n/a	1383	89	2750	212.200247214	stim	stop-signal	256	745024	0.0-13.28-1.28	beast_fmri_test	388	742827,/,743507,/,744186,/,744867,/	t,t,t,t	<img class = center src='/static/experiments/beast_fmri_test/images/D.png'></img>	71,89	2750.0	test	<img class = center src='/static/experiments/beast_fmri_test/images/redD.png'></img>	go	1800.0	2.0	28.0	go	non-target	D	71,Index Finger	89,Middle Finger	850.0	950.0	1900.0	1800.0	1.0	950.0	n/a	1.0	ITI
133546	500	n/a	-1	-1	500	0.0	fixation	poldrack-single-stim	257	745764	0.0-13.29-0.29	beast_fmri_test	388	745546,/	t	<div class = centerbox2><div class = fixation>+</div></div>	none	500.0	test	n/a	n/a	n/a	n/a	n/a	n/a	n/a	n/a	n/a	n/a	n/a	n/a	n/a	n/a	n/a	n/a	n/a	n/a	fixation
130767.28325038613	950.0	n/a	-1	-1	2750	2781.71674961	stim	stop-signal	258	748517	0.0-13.29-1.29	beast_fmri_test	388	746226,/,746907,/,747587,/,748266,/,748947,/,749629,/,750310,/,750990,/	t,t,t,t,t,t,t,t	<img class = center src='/static/experiments/beast_fmri_test/images/T.png'></img>	71,89	2750.0	test	<img class = center src='/static/experiments/beast_fmri_test/images/redT.png'></img>	stop	1800.0	2.0	29.0	stop	non-target	T	71,Index Finger	89,Middle Finger	850.0	950.0	1900.0	1800.0	0.0	950.0	1.0	n/a	go_stim
132567.28325038613	1800.0	n/a	-1	-1	2750	2781.71674961	stim	stop-signal	258	748517	0.0-13.29-1.29	beast_fmri_test	388	746226,/,746907,/,747587,/,748266,/,748947,/,749629,/,750310,/,750990,/	t,t,t,t,t,t,t,t	<img class = center src='/static/experiments/beast_fmri_test/images/T.png'></img>	71,89	2750.0	test	<img class = center src='/static/experiments/beast_fmri_test/images/redT.png'></img>	stop	1800.0	2.0	29.0	stop	non-target	T	71,Index Finger	89,Middle Finger	850.0	950.0	1900.0	1800.0	0.0	950.0	1.0	n/a	stop_stim
133517.28325038613	2781.7167496138923	n/a	-1	-1	2750	2781.71674961	stim	stop-signal	258	748517	0.0-13.29-1.29	beast_fmri_test	388	746226,/,746907,/,747587,/,748266,/,748947,/,749629,/,750310,/,750990,/	t,t,t,t,t,t,t,t	<img class = center src='/static/experiments/beast_fmri_test/images/T.png'></img>	71,89	2750.0	test	<img class = center src='/static/experiments/beast_fmri_test/images/redT.png'></img>	stop	1800.0	2.0	29.0	stop	non-target	T	71,Index Finger	89,Middle Finger	850.0	950.0	1900.0	1800.0	0.0	950.0	1.0	n/a	ITI
139611	500	n/a	-1	-1	500	0.0	fixation	poldrack-single-stim	259	751829	0.0-13.30-0.30	beast_fmri_test	388	751671,/	t	<div class = centerbox2><div class = fixation>+</div></div>	none	500.0	test	n/a	n/a	n/a	n/a	n/a	n/a	n/a	n/a	n/a	n/a	n/a	n/a	n/a	n/a	n/a	n/a	n/a	n/a	fixation
139055.84724959929	2750	n/a	937	71	2750	558.152750401	stim	stop-signal	260	754582	0.0-13.30-1.30	beast_fmri_test	388	752351,/,753031,/,753711,/,754392,/,755071,/	t,t,t,t,t	<img class = center src='/static/experiments/beast_fmri_test/images/D.png'></img>	71,89	2750.0	test	<img class = center src='/static/experiments/beast_fmri_test/images/redD.png'></img>	go	1900.0	2.0	30.0	go	target	D	71,Index Finger	89,Middle Finger	850.0	1000.0	1900.0	1800.0	1.0	850.0	n/a	1.0	go_stim
141805.84724959929	558.15275040075687	n/a	937	71	2750	558.152750401	stim	stop-signal	260	754582	0.0-13.30-1.30	beast_fmri_test	388	752351,/,753031,/,753711,/,754392,/,755071,/	t,t,t,t,t	<img class = center src='/static/experiments/beast_fmri_test/images/D.png'></img>	71,89	2750.0	test	<img class = center src='/static/experiments/beast_fmri_test/images/redD.png'></img>	go	1900.0	2.0	30.0	go	target	D	71,Index Finger	89,Middle Finger	850.0	1000.0	1900.0	1800.0	1.0	850.0	n/a	1.0	ITI
143451	500	n/a	-1	-1	500	0.0	fixation	poldrack-single-stim	261	755669	0.0-13.31-0.31	beast_fmri_test	388	n/a	n/a	<div class = centerbox2><div class = fixation>+</div></div>	none	500.0	test	n/a	n/a	n/a	n/a	n/a	n/a	n/a	n/a	n/a	n/a	n/a	n/a	n/a	n/a	n/a	n/a	n/a	n/a	fixation
142109.03787889215	2750	n/a	1272	89	2750	1346.96212111	stim	stop-signal	262	758424	0.0-13.31-1.31	beast_fmri_test	388	755752,/,756431,/,757112,/,757792,/,758472,/,759152,/	t,t,t,t,t,t	<img class = center src='/static/experiments/beast_fmri_test/images/P.png'></img>	71,89	2750.0	test	<img class = center src='/static/experiments/beast_fmri_test/images/redP.png'></img>	go	1750.0	2.0	31.0	go	non-target	P	71,Index Finger	89,Middle Finger	850.0	1000.0	1900.0	1750.0	1.0	1000.0	n/a	1.0	go_stim
144859.03787889215	1346.9621211078106	n/a	1272	89	2750	1346.96212111	stim	stop-signal	262	758424	0.0-13.31-1.31	beast_fmri_test	388	755752,/,756431,/,757112,/,757792,/,758472,/,759152,/	t,t,t,t,t,t	<img class = center src='/static/experiments/beast_fmri_test/images/P.png'></img>	71,89	2750.0	test	<img class = center src='/static/experiments/beast_fmri_test/images/redP.png'></img>	go	1750.0	2.0	31.0	go	non-target	P	71,Index Finger	89,Middle Finger	850.0	1000.0	1900.0	1750.0	1.0	1000.0	n/a	1.0	ITI
148087	500	n/a	-1	-1	500	0.0	fixation	poldrack-single-stim	263	760305	0.0-13.32-0.32	beast_fmri_test	388	759834,/	t	<div class = centerbox2><div class = fixation>+</div></div>	none	500.0	test	n/a	n/a	n/a	n/a	n/a	n/a	n/a	n/a	n/a	n/a	n/a	n/a	n/a	n/a	n/a	n/a	n/a	n/a	fixation
146706.28602846211	1000.0	n/a	-1	-1	2750	1383.71397154	stim	stop-signal	264	763058	0.0-13.32-1.32	beast_fmri_test	388	760516,/,761196,/,761876,/,762556,/,763236,/,763915,/	t,t,t,t,t,t	<img class = center src='/static/experiments/beast_fmri_test/images/P.png'></img>	71,89	2750.0	test	<img class = center src='/static/experiments/beast_fmri_test/images/redP.png'></img>	stop	1750.0	2.0	32.0	stop	non-target	P	71,Index Finger	89,Middle Finger	850.0	1000.0	1900.0	1750.0	0.0	1000.0	1.0	n/a	go_stim
148456.28602846211	1750.0	n/a	-1	-1	2750	1383.71397154	stim	stop-signal	264	763058	0.0-13.32-1.32	beast_fmri_test	388	760516,/,761196,/,761876,/,762556,/,763236,/,763915,/	t,t,t,t,t,t	<img class = center src='/static/experiments/beast_fmri_test/images/P.png'></img>	71,89	2750.0	test	<img class = center src='/static/experiments/beast_fmri_test/images/redP.png'></img>	stop	1750.0	2.0	32.0	stop	non-target	P	71,Index Finger	89,Middle Finger	850.0	1000.0	1900.0	1750.0	0.0	1000.0	1.0	n/a	stop_stim
149456.28602846211	1383.7139715378582	n/a	-1	-1	2750	1383.71397154	stim	stop-signal	264	763058	0.0-13.32-1.32	beast_fmri_test	388	760516,/,761196,/,761876,/,762556,/,763236,/,763915,/	t,t,t,t,t,t	<img class = center src='/static/experiments/beast_fmri_test/images/P.png'></img>	71,89	2750.0	test	<img class = center src='/static/experiments/beast_fmri_test/images/redP.png'></img>	stop	1750.0	2.0	32.0	stop	non-target	P	71,Index Finger	89,Middle Finger	850.0	1000.0	1900.0	1750.0	0.0	1000.0	1.0	n/a	ITI
152755	500	n/a	-1	-1	500	0.0	fixation	poldrack-single-stim	265	764973	0.0-13.33-0.33	beast_fmri_test	388	764595,/	t	<div class = centerbox2><div class = fixation>+</div></div>	none	500.0	test	n/a	n/a	n/a	n/a	n/a	n/a	n/a	n/a	n/a	n/a	n/a	n/a	n/a	n/a	n/a	n/a	n/a	n/a	fixation
152031.76834874973	2750	n/a	1003	89	2750	726.23165125	stim	stop-signal	266	767726	0.0-13.33-1.33	beast_fmri_test	388	765275,/,765956,/,766636,/,767316,/,767996,/	t,t,t,t,t	<img class = center src='/static/experiments/beast_fmri_test/images/D.png'></img>	71,89	2750.0	test	<img class = center src='/static/experiments/beast_fmri_test/images/redD.png'></img>	go	1700.0	2.0	33.0	go	non-target	D	71,Index Finger	89,Middle Finger	850.0	1050.0	1900.0	1700.0	1.0	1050.0	n/a	1.0	go_stim
154781.76834874973	726.23165125023786	n/a	1003	89	2750	726.23165125	stim	stop-signal	266	767726	0.0-13.33-1.33	beast_fmri_test	388	765275,/,765956,/,766636,/,767316,/,767996,/	t,t,t,t,t	<img class = center src='/static/experiments/beast_fmri_test/images/D.png'></img>	71,89	2750.0	test	<img class = center src='/static/experiments/beast_fmri_test/images/redD.png'></img>	go	1700.0	2.0	33.0	go	non-target	D	71,Index Finger	89,Middle Finger	850.0	1050.0	1900.0	1700.0	1.0	1050.0	n/a	1.0	ITI
156762	500	n/a	-1	-1	500	0.0	fixation	poldrack-single-stim	267	768980	0.0-13.34-0.34	beast_fmri_test	388	768675,/	t	<div class = centerbox2><div class = fixation>+</div></div>	none	500.0	test	n/a	n/a	n/a	n/a	n/a	n/a	n/a	n/a	n/a	n/a	n/a	n/a	n/a	n/a	n/a	n/a	n/a	n/a	fixation
156075.37787465088	2750	n/a	1303	71	2750	693.622125349	stim	stop-signal	268	771737	0.0-13.34-1.34	beast_fmri_test	388	769356,/,770040,/,770720,/,771400,/,772080,/	t,t,t,t,t	<img class = center src='/static/experiments/beast_fmri_test/images/P.png'></img>	71,89	2750.0	test	<img class = center src='/static/experiments/beast_fmri_test/images/redP.png'></img>	go	1900.0	2.0	34.0	go	target	P	71,Index Finger	89,Middle Finger	850.0	1050.0	1900.0	1700.0	1.0	850.0	n/a	1.0	go_stim
158825.37787465088	693.62212534906803	n/a	1303	71	2750	693.622125349	stim	stop-signal	268	771737	0.0-13.34-1.34	beast_fmri_test	388	769356,/,770040,/,770720,/,771400,/,772080,/	t,t,t,t,t	<img class = center src='/static/experiments/beast_fmri_test/images/P.png'></img>	71,89	2750.0	test	<img class = center src='/static/experiments/beast_fmri_test/images/redP.png'></img>	go	1900.0	2.0	34.0	go	target	P	71,Index Finger	89,Middle Finger	850.0	1050.0	1900.0	1700.0	1.0	850.0	n/a	1.0	ITI
160743	500	n/a	-1	-1	500	0.0	fixation	poldrack-single-stim	269	772961	0.0-13.35-0.35	beast_fmri_test	388	772760,/	t	<div class = centerbox2><div class = fixation>+</div></div>	none	500.0	test	n/a	n/a	n/a	n/a	n/a	n/a	n/a	n/a	n/a	n/a	n/a	n/a	n/a	n/a	n/a	n/a	n/a	n/a	fixation
160714.26972912136	1050.0	n/a	-1	-1	2750	30.7302708786	stim	stop-signal	270	775713	0.0-13.35-1.35	beast_fmri_test	388	773438,/,774120,/,774800,/,775480,/	t,t,t,t	<img class = center src='/static/experiments/beast_fmri_test/images/T.png'></img>	71,89	2750.0	test	<img class = center src='/static/experiments/beast_fmri_test/images/redT.png'></img>	stop	1700.0	2.0	35.0	stop	non-target	T	71,Index Finger	89,Middle Finger	850.0	1050.0	1900.0	1700.0	0.0	1050.0	1.0	n/a	go_stim
162414.26972912136	1700.0	n/a	-1	-1	2750	30.7302708786	stim	stop-signal	270	775713	0.0-13.35-1.35	beast_fmri_test	388	773438,/,774120,/,774800,/,775480,/	t,t,t,t	<img class = center src='/static/experiments/beast_fmri_test/images/T.png'></img>	71,89	2750.0	test	<img class = center src='/static/experiments/beast_fmri_test/images/redT.png'></img>	stop	1700.0	2.0	35.0	stop	non-target	T	71,Index Finger	89,Middle Finger	850.0	1050.0	1900.0	1700.0	0.0	1050.0	1.0	n/a	stop_stim
163464.26972912136	30.730270878635999	n/a	-1	-1	2750	30.7302708786	stim	stop-signal	270	775713	0.0-13.35-1.35	beast_fmri_test	388	773438,/,774120,/,774800,/,775480,/	t,t,t,t	<img class = center src='/static/experiments/beast_fmri_test/images/T.png'></img>	71,89	2750.0	test	<img class = center src='/static/experiments/beast_fmri_test/images/redT.png'></img>	stop	1700.0	2.0	35.0	stop	non-target	T	71,Index Finger	89,Middle Finger	850.0	1050.0	1900.0	1700.0	0.0	1050.0	1.0	n/a	ITI
164056	500	n/a	-1	-1	500	0.0	fixation	poldrack-single-stim	271	776274	0.0-13.36-0.36	beast_fmri_test	388	776160,/	t	<div class = centerbox2><div class = fixation>+</div></div>	none	500.0	test	n/a	n/a	n/a	n/a	n/a	n/a	n/a	n/a	n/a	n/a	n/a	n/a	n/a	n/a	n/a	n/a	n/a	n/a	fixation
163068.68769050622	850.0	n/a	1093	71	2750	991.312309494	stim	stop-signal	272	779028	0.0-13.36-1.36	beast_fmri_test	388	776840,/,777520,/,778200,/,778880,/,779562,/	t,t,t,t,t	<img class = center src='/static/experiments/beast_fmri_test/images/P.png'></img>	71,89	2750.0	test	<img class = center src='/static/experiments/beast_fmri_test/images/redP.png'></img>	stop	1900.0	2.0	36.0	stop	target	P	71,Index Finger	89,Middle Finger	850.0	1100.0	1900.0	1700.0	0.0	850.0	0.0	n/a	go_stim
164968.68769050622	1900.0	n/a	1093	71	2750	991.312309494	stim	stop-signal	272	779028	0.0-13.36-1.36	beast_fmri_test	388	776840,/,777520,/,778200,/,778880,/,779562,/	t,t,t,t,t	<img class = center src='/static/experiments/beast_fmri_test/images/P.png'></img>	71,89	2750.0	test	<img class = center src='/static/experiments/beast_fmri_test/images/redP.png'></img>	stop	1900.0	2.0	36.0	stop	target	P	71,Index Finger	89,Middle Finger	850.0	1100.0	1900.0	1700.0	0.0	850.0	0.0	n/a	stop_stim
165818.68769050622	991.31230949374935	n/a	1093	71	2750	991.312309494	stim	stop-signal	272	779028	0.0-13.36-1.36	beast_fmri_test	388	776840,/,777520,/,778200,/,778880,/,779562,/	t,t,t,t,t	<img class = center src='/static/experiments/beast_fmri_test/images/P.png'></img>	71,89	2750.0	test	<img class = center src='/static/experiments/beast_fmri_test/images/redP.png'></img>	stop	1900.0	2.0	36.0	stop	target	P	71,Index Finger	89,Middle Finger	850.0	1100.0	1900.0	1700.0	0.0	850.0	0.0	n/a	ITI
168332	500	n/a	-1	-1	500	0.0	fixation	poldrack-single-stim	273	780550	0.0-13.37-0.37	beast_fmri_test	388	780244,/	t	<div class = centerbox2><div class = fixation>+</div></div>	none	500.0	test	n/a	n/a	n/a	n/a	n/a	n/a	n/a	n/a	n/a	n/a	n/a	n/a	n/a	n/a	n/a	n/a	n/a	n/a	fixation
166241.5617096572	1100.0	n/a	-1	-1	2750	2094.43829034	stim	stop-signal	274	783304	0.0-13.37-1.37	beast_fmri_test	388	780924,/,781604,/,782284,/,782964,/,783643,/,784325,/,785005,/	t,t,t,t,t,t,t	<img class = center src='/static/experiments/beast_fmri_test/images/V.png'></img>	71,89	2750.0	test	<img class = center src='/static/experiments/beast_fmri_test/images/redV.png'></img>	stop	1650.0	2.0	37.0	stop	non-target	V	71,Index Finger	89,Middle Finger	800.0	1100.0	1900.0	1650.0	0.0	1100.0	1.0	n/a	go_stim
167891.5617096572	1650.0	n/a	-1	-1	2750	2094.43829034	stim	stop-signal	274	783304	0.0-13.37-1.37	beast_fmri_test	388	780924,/,781604,/,782284,/,782964,/,783643,/,784325,/,785005,/	t,t,t,t,t,t,t	<img class = center src='/static/experiments/beast_fmri_test/images/V.png'></img>	71,89	2750.0	test	<img class = center src='/static/experiments/beast_fmri_test/images/redV.png'></img>	stop	1650.0	2.0	37.0	stop	non-target	V	71,Index Finger	89,Middle Finger	800.0	1100.0	1900.0	1650.0	0.0	1100.0	1.0	n/a	stop_stim
168991.5617096572	2094.4382903428605	n/a	-1	-1	2750	2094.43829034	stim	stop-signal	274	783304	0.0-13.37-1.37	beast_fmri_test	388	780924,/,781604,/,782284,/,782964,/,783643,/,784325,/,785005,/	t,t,t,t,t,t,t	<img class = center src='/static/experiments/beast_fmri_test/images/V.png'></img>	71,89	2750.0	test	<img class = center src='/static/experiments/beast_fmri_test/images/redV.png'></img>	stop	1650.0	2.0	37.0	stop	non-target	V	71,Index Finger	89,Middle Finger	800.0	1100.0	1900.0	1650.0	0.0	1100.0	1.0	n/a	ITI
173711	500	n/a	-1	-1	500	0.0	fixation	poldrack-single-stim	275	785929	0.0-13.38-0.38	beast_fmri_test	388	785685,/	t	<div class = centerbox2><div class = fixation>+</div></div>	none	500.0	test	n/a	n/a	n/a	n/a	n/a	n/a	n/a	n/a	n/a	n/a	n/a	n/a	n/a	n/a	n/a	n/a	n/a	n/a	fixation
173273.11225077277	2750	n/a	-1	-1	2750	439.887749227	stim	stop-signal	276	788681	0.0-13.38-1.38	beast_fmri_test	388	786365,/,787045,/,787725,/,788405,/,789084,/	t,t,t,t,t	<img class = center src='/static/experiments/beast_fmri_test/images/B.png'></img>	71,89	2750.0	test	<img class = center src='/static/experiments/beast_fmri_test/images/redB.png'></img>	go	1600.0	2.0	38.0	go	non-target	B	71,Index Finger	89,Middle Finger	800.0	1150.0	1900.0	1600.0	0.0	1150.0	n/a	0.0	go_stim
176023.11225077277	439.88774922718846	n/a	-1	-1	2750	439.887749227	stim	stop-signal	276	788681	0.0-13.38-1.38	beast_fmri_test	388	786365,/,787045,/,787725,/,788405,/,789084,/	t,t,t,t,t	<img class = center src='/static/experiments/beast_fmri_test/images/B.png'></img>	71,89	2750.0	test	<img class = center src='/static/experiments/beast_fmri_test/images/redB.png'></img>	go	1600.0	2.0	38.0	go	non-target	B	71,Index Finger	89,Middle Finger	800.0	1150.0	1900.0	1600.0	0.0	1150.0	n/a	0.0	ITI
177434	500	n/a	-1	-1	500	0.0	fixation	poldrack-single-stim	277	789652	0.0-13.39-0.39	beast_fmri_test	388	n/a	n/a	<div class = centerbox2><div class = fixation>+</div></div>	none	500.0	test	n/a	n/a	n/a	n/a	n/a	n/a	n/a	n/a	n/a	n/a	n/a	n/a	n/a	n/a	n/a	n/a	n/a	n/a	fixation
176259.60969107202	800.0	n/a	-1	-1	2750	1178.39030893	stim	stop-signal	278	792406	0.0-13.39-1.39	beast_fmri_test	388	789768,/,790449,/,791129,/,791809,/,792489,/,793169,/	t,t,t,t,t,t	<img class = center src='/static/experiments/beast_fmri_test/images/V.png'></img>	71,89	2750.0	test	<img class = center src='/static/experiments/beast_fmri_test/images/redV.png'></img>	stop	1950.0	2.0	39.0	stop	target	V	71,Index Finger	89,Middle Finger	800.0	1150.0	1950.0	1600.0	0.0	800.0	1.0	n/a	go_stim
178209.60969107202	1950.0	n/a	-1	-1	2750	1178.39030893	stim	stop-signal	278	792406	0.0-13.39-1.39	beast_fmri_test	388	789768,/,790449,/,791129,/,791809,/,792489,/,793169,/	t,t,t,t,t,t	<img class = center src='/static/experiments/beast_fmri_test/images/V.png'></img>	71,89	2750.0	test	<img class = center src='/static/experiments/beast_fmri_test/images/redV.png'></img>	stop	1950.0	2.0	39.0	stop	target	V	71,Index Finger	89,Middle Finger	800.0	1150.0	1950.0	1600.0	0.0	800.0	1.0	n/a	stop_stim
179009.60969107202	1178.390308928005	n/a	-1	-1	2750	1178.39030893	stim	stop-signal	278	792406	0.0-13.39-1.39	beast_fmri_test	388	789768,/,790449,/,791129,/,791809,/,792489,/,793169,/	t,t,t,t,t,t	<img class = center src='/static/experiments/beast_fmri_test/images/V.png'></img>	71,89	2750.0	test	<img class = center src='/static/experiments/beast_fmri_test/images/redV.png'></img>	stop	1950.0	2.0	39.0	stop	target	V	71,Index Finger	89,Middle Finger	800.0	1150.0	1950.0	1600.0	0.0	800.0	1.0	n/a	ITI
181896	500	n/a	-1	-1	500	0.0	fixation	poldrack-single-stim	279	794114	0.0-13.40-0.40	beast_fmri_test	388	793848,/	t	<div class = centerbox2><div class = fixation>+</div></div>	none	500.0	test	n/a	n/a	n/a	n/a	n/a	n/a	n/a	n/a	n/a	n/a	n/a	n/a	n/a	n/a	n/a	n/a	n/a	n/a	fixation
181360.73506578861	2750	n/a	2127	89	2750	539.264934211	stim	stop-signal	280	796868	0.0-13.40-1.40	beast_fmri_test	388	794529,/,795211,/,795890,/,796569,/,797249,/	t,t,t,t,t	<img class = center src='/static/experiments/beast_fmri_test/images/P.png'></img>	71,89	2750.0	test	<img class = center src='/static/experiments/beast_fmri_test/images/redP.png'></img>	go	1600.0	2.0	40.0	go	non-target	P	71,Index Finger	89,Middle Finger	850.0	1150.0	1950.0	1600.0	1.0	1150.0	n/a	1.0	go_stim
184110.73506578861	539.2649342113699	n/a	2127	89	2750	539.264934211	stim	stop-signal	280	796868	0.0-13.40-1.40	beast_fmri_test	388	794529,/,795211,/,795890,/,796569,/,797249,/	t,t,t,t,t	<img class = center src='/static/experiments/beast_fmri_test/images/P.png'></img>	71,89	2750.0	test	<img class = center src='/static/experiments/beast_fmri_test/images/redP.png'></img>	go	1600.0	2.0	40.0	go	non-target	P	71,Index Finger	89,Middle Finger	850.0	1150.0	1950.0	1600.0	1.0	1150.0	n/a	1.0	ITI
185721	500	n/a	-1	-1	500	0.0	fixation	poldrack-single-stim	281	797939	0.0-13.41-0.41	beast_fmri_test	388	797929,/	t	<div class = centerbox2><div class = fixation>+</div></div>	none	500.0	test	n/a	n/a	n/a	n/a	n/a	n/a	n/a	n/a	n/a	n/a	n/a	n/a	n/a	n/a	n/a	n/a	n/a	n/a	fixation
185578.68539419305	2750	n/a	1647	71	2750	149.314605807	stim	stop-signal	282	800696	0.0-13.41-1.41	beast_fmri_test	388	798608,/,799291,/,799973,/,800653,/	t,t,t,t	<img class = center src='/static/experiments/beast_fmri_test/images/P.png'></img>	71,89	2750.0	test	<img class = center src='/static/experiments/beast_fmri_test/images/redP.png'></img>	go	1600.0	2.0	41.0	go	non-target	P	71,Index Finger	89,Middle Finger	850.0	1150.0	1950.0	1600.0	0.0	1150.0	n/a	0.0	go_stim
188328.68539419305	149.31460580700747	n/a	1647	71	2750	149.314605807	stim	stop-signal	282	800696	0.0-13.41-1.41	beast_fmri_test	388	798608,/,799291,/,799973,/,800653,/	t,t,t,t	<img class = center src='/static/experiments/beast_fmri_test/images/P.png'></img>	71,89	2750.0	test	<img class = center src='/static/experiments/beast_fmri_test/images/redP.png'></img>	go	1600.0	2.0	41.0	go	non-target	P	71,Index Finger	89,Middle Finger	850.0	1150.0	1950.0	1600.0	0.0	1150.0	n/a	0.0	ITI
189158	500	n/a	-1	-1	500	0.0	fixation	poldrack-single-stim	283	801376	0.0-13.42-0.42	beast_fmri_test	388	801333,/	t	<div class = centerbox2><div class = fixation>+</div></div>	none	500.0	test	n/a	n/a	n/a	n/a	n/a	n/a	n/a	n/a	n/a	n/a	n/a	n/a	n/a	n/a	n/a	n/a	n/a	n/a	fixation
188118.46399101184	1150.0	n/a	1309	89	2750	1042.53600899	stim	stop-signal	284	804129	0.0-13.42-1.42	beast_fmri_test	388	802013,/,802691,/,803372,/,804053,/,804733,/	t,t,t,t,t	<img class = center src='/static/experiments/beast_fmri_test/images/B.png'></img>	71,89	2750.0	test	<img class = center src='/static/experiments/beast_fmri_test/images/redB.png'></img>	stop	1600.0	2.0	42.0	stop	non-target	B	71,Index Finger	89,Middle Finger	850.0	1150.0	1950.0	1600.0	0.0	1150.0	0.0	n/a	go_stim
189718.46399101184	1600.0	n/a	1309	89	2750	1042.53600899	stim	stop-signal	284	804129	0.0-13.42-1.42	beast_fmri_test	388	802013,/,802691,/,803372,/,804053,/,804733,/	t,t,t,t,t	<img class = center src='/static/experiments/beast_fmri_test/images/B.png'></img>	71,89	2750.0	test	<img class = center src='/static/experiments/beast_fmri_test/images/redB.png'></img>	stop	1600.0	2.0	42.0	stop	non-target	B	71,Index Finger	89,Middle Finger	850.0	1150.0	1950.0	1600.0	0.0	1150.0	0.0	n/a	stop_stim
190868.46399101184	1042.5360089882113	n/a	1309	89	2750	1042.53600899	stim	stop-signal	284	804129	0.0-13.42-1.42	beast_fmri_test	388	802013,/,802691,/,803372,/,804053,/,804733,/	t,t,t,t,t	<img class = center src='/static/experiments/beast_fmri_test/images/B.png'></img>	71,89	2750.0	test	<img class = center src='/static/experiments/beast_fmri_test/images/redB.png'></img>	stop	1600.0	2.0	42.0	stop	non-target	B	71,Index Finger	89,Middle Finger	850.0	1150.0	1950.0	1600.0	0.0	1150.0	0.0	n/a	ITI
193486	500	n/a	-1	-1	500	0.0	fixation	poldrack-single-stim	285	805704	0.0-13.43-0.43	beast_fmri_test	388	805413,/	t	<div class = centerbox2><div class = fixation>+</div></div>	none	500.0	test	n/a	n/a	n/a	n/a	n/a	n/a	n/a	n/a	n/a	n/a	n/a	n/a	n/a	n/a	n/a	n/a	n/a	n/a	fixation
193078.89179527387	2750	n/a	1417	71	2750	410.108204726	stim	stop-signal	286	808457	0.0-13.43-1.43	beast_fmri_test	388	806093,/,806773,/,807452,/,808133,/,808815,/	t,t,t,t,t	<img class = center src='/static/experiments/beast_fmri_test/images/P.png'></img>	71,89	2750.0	test	<img class = center src='/static/experiments/beast_fmri_test/images/redP.png'></img>	go	1900.0	2.0	43.0	go	target	P	71,Index Finger	89,Middle Finger	850.0	1100.0	1900.0	1600.0	1.0	850.0	n/a	1.0	go_stim
195828.89179527387	410.10820472616388	n/a	1417	71	2750	410.108204726	stim	stop-signal	286	808457	0.0-13.43-1.43	beast_fmri_test	388	806093,/,806773,/,807452,/,808133,/,808815,/	t,t,t,t,t	<img class = center src='/static/experiments/beast_fmri_test/images/P.png'></img>	71,89	2750.0	test	<img class = center src='/static/experiments/beast_fmri_test/images/redP.png'></img>	go	1900.0	2.0	43.0	go	target	P	71,Index Finger	89,Middle Finger	850.0	1100.0	1900.0	1600.0	1.0	850.0	n/a	1.0	ITI
197182	500	n/a	-1	-1	500	0.0	fixation	poldrack-single-stim	287	809400	0.0-13.44-0.44	beast_fmri_test	388	n/a	n/a	<div class = centerbox2><div class = fixation>+</div></div>	none	500.0	test	n/a	n/a	n/a	n/a	n/a	n/a	n/a	n/a	n/a	n/a	n/a	n/a	n/a	n/a	n/a	n/a	n/a	n/a	fixation
196106.67095837556	2750	n/a	1238	71	2750	1078.32904162	stim	stop-signal	288	812153	0.0-13.44-1.44	beast_fmri_test	388	809498,/,810178,/,810857,/,811538,/,812215,/,812898,/	t,t,t,t,t,t	<img class = center src='/static/experiments/beast_fmri_test/images/B.png'></img>	71,89	2750.0	test	<img class = center src='/static/experiments/beast_fmri_test/images/redB.png'></img>	go	1900.0	2.0	44.0	go	target	B	71,Index Finger	89,Middle Finger	850.0	1100.0	1900.0	1600.0	1.0	850.0	n/a	1.0	go_stim
198856.67095837556	1078.3290416244838	n/a	1238	71	2750	1078.32904162	stim	stop-signal	288	812153	0.0-13.44-1.44	beast_fmri_test	388	809498,/,810178,/,810857,/,811538,/,812215,/,812898,/	t,t,t,t,t,t	<img class = center src='/static/experiments/beast_fmri_test/images/B.png'></img>	71,89	2750.0	test	<img class = center src='/static/experiments/beast_fmri_test/images/redB.png'></img>	go	1900.0	2.0	44.0	go	target	B	71,Index Finger	89,Middle Finger	850.0	1100.0	1900.0	1600.0	1.0	850.0	n/a	1.0	ITI
201546	500	n/a	-1	-1	500	0.0	fixation	poldrack-single-stim	289	813764	0.0-13.45-0.45	beast_fmri_test	388	813579,/	t	<div class = centerbox2><div class = fixation>+</div></div>	none	500.0	test	n/a	n/a	n/a	n/a	n/a	n/a	n/a	n/a	n/a	n/a	n/a	n/a	n/a	n/a	n/a	n/a	n/a	n/a	fixation
200871.76413376839	1100.0	n/a	958	89	2750	677.235866232	stim	stop-signal	290	816517	0.0-13.45-1.45	beast_fmri_test	388	814258,/,814938,/,815618,/,816297,/,816977,/	t,t,t,t,t	<img class = center src='/static/experiments/beast_fmri_test/images/D.png'></img>	71,89	2750.0	test	<img class = center src='/static/experiments/beast_fmri_test/images/redD.png'></img>	stop	1650.0	2.0	45.0	stop	non-target	D	71,Index Finger	89,Middle Finger	850.0	1100.0	1900.0	1650.0	0.0	1100.0	0.0	n/a	go_stim
202521.76413376839	1650.0	n/a	958	89	2750	677.235866232	stim	stop-signal	290	816517	0.0-13.45-1.45	beast_fmri_test	388	814258,/,814938,/,815618,/,816297,/,816977,/	t,t,t,t,t	<img class = center src='/static/experiments/beast_fmri_test/images/D.png'></img>	71,89	2750.0	test	<img class = center src='/static/experiments/beast_fmri_test/images/redD.png'></img>	stop	1650.0	2.0	45.0	stop	non-target	D	71,Index Finger	89,Middle Finger	850.0	1100.0	1900.0	1650.0	0.0	1100.0	0.0	n/a	stop_stim
203621.76413376839	677.23586623159338	n/a	958	89	2750	677.235866232	stim	stop-signal	290	816517	0.0-13.45-1.45	beast_fmri_test	388	814258,/,814938,/,815618,/,816297,/,816977,/	t,t,t,t,t	<img class = center src='/static/experiments/beast_fmri_test/images/D.png'></img>	71,89	2750.0	test	<img class = center src='/static/experiments/beast_fmri_test/images/redD.png'></img>	stop	1650.0	2.0	45.0	stop	non-target	D	71,Index Finger	89,Middle Finger	850.0	1100.0	1900.0	1650.0	0.0	1100.0	0.0	n/a	ITI
205508	500	n/a	-1	-1	500	0.0	fixation	poldrack-single-stim	291	817726	0.0-13.46-0.46	beast_fmri_test	388	817658,/	t	<div class = centerbox2><div class = fixation>+</div></div>	none	500.0	test	n/a	n/a	n/a	n/a	n/a	n/a	n/a	n/a	n/a	n/a	n/a	n/a	n/a	n/a	n/a	n/a	n/a	n/a	fixation
205215.22343878285	1050.0	n/a	1083	71	2750	295.776561217	stim	stop-signal	292	820479	0.0-13.46-1.46	beast_fmri_test	388	818337,/,819018,/,819698,/,820378,/	t,t,t,t	<img class = center src='/static/experiments/beast_fmri_test/images/P.png'></img>	71,89	2750.0	test	<img class = center src='/static/experiments/beast_fmri_test/images/redP.png'></img>	stop	1700.0	2.0	46.0	stop	non-target	P	71,Index Finger	89,Middle Finger	850.0	1050.0	1900.0	1700.0	0.0	1050.0	0.0	n/a	go_stim
206915.22343878285	1700.0	n/a	1083	71	2750	295.776561217	stim	stop-signal	292	820479	0.0-13.46-1.46	beast_fmri_test	388	818337,/,819018,/,819698,/,820378,/	t,t,t,t	<img class = center src='/static/experiments/beast_fmri_test/images/P.png'></img>	71,89	2750.0	test	<img class = center src='/static/experiments/beast_fmri_test/images/redP.png'></img>	stop	1700.0	2.0	46.0	stop	non-target	P	71,Index Finger	89,Middle Finger	850.0	1050.0	1900.0	1700.0	0.0	1050.0	0.0	n/a	stop_stim
207965.22343878285	295.77656121715376	n/a	1083	71	2750	295.776561217	stim	stop-signal	292	820479	0.0-13.46-1.46	beast_fmri_test	388	818337,/,819018,/,819698,/,820378,/	t,t,t,t	<img class = center src='/static/experiments/beast_fmri_test/images/P.png'></img>	71,89	2750.0	test	<img class = center src='/static/experiments/beast_fmri_test/images/redP.png'></img>	stop	1700.0	2.0	46.0	stop	non-target	P	71,Index Finger	89,Middle Finger	850.0	1050.0	1900.0	1700.0	0.0	1050.0	0.0	n/a	ITI
223591	15000	n/a	-1	-1	15000	0.0	practice-no-stop-feedback	poldrack-single-stim	293	835809	0.0-14.0	beast_fmri_test	388	821057,/,821739,/,822418,/,823098,/,823778,/,824459,/,825138,/,825817,/,826498,/,827178,/,827857,/,828538,/,829219,/,829901,/,830582,/,831261,/,831943,/,832623,/,833303,/,833983,/,834662,/,835342,/	t,t,t,t,t,t,t,t,t,t,t,t,t,t,t,t,t,t,t,t,t,t	"<div class = ""centerbox2_2""><p class = ""block-text2"">Your delay is 2 trials.</p><p class = block-text2>Please wait for the scanner to start the block</p></div>"	77	15000.0	n/a	n/a	n/a	n/a	n/a	n/a	n/a	n/a	n/a	n/a	n/a	n/a	n/a	n/a	n/a	n/a	n/a	n/a	n/a	practice-no-stop-feedback
224095	500	n/a	-1	-1	500	0.0	fixation	poldrack-single-stim	294	836313	0.0-15.0-0.0	beast_fmri_test	388	836023,/	t	<div class = centerbox2><div class = fixation>+</div></div>	none	500.0	test	n/a	n/a	n/a	n/a	n/a	n/a	n/a	n/a	n/a	n/a	n/a	n/a	n/a	n/a	n/a	n/a	n/a	n/a	fixation
223868.05934502941	temp_go_duration	n/a	2654	89	2750	229.940654971	stim	stop-signal	295	839066	0.0-15.0-1.0	beast_fmri_test	388	836702,/,837383,/,838062,/,838742,/	t,t,t,t	<img class = center src='/static/experiments/beast_fmri_test/images/V.png'></img>	71,89	2750.0	test	<img class = center src='/static/experiments/beast_fmri_test/images/redV.png'></img>	stop	-1.0	2.0	0.0	stop	temp-non-target	V	71,Index Finger	89,Middle Finger	850.0	1000.0	1900.0	1700.0	0.0	n/a	0.0	n/a	go_stim
temp-non-target	temp_stop_duration	n/a	2654	89	2750	229.940654971	stim	stop-signal	295	839066	0.0-15.0-1.0	beast_fmri_test	388	836702,/,837383,/,838062,/,838742,/	t,t,t,t	<img class = center src='/static/experiments/beast_fmri_test/images/V.png'></img>	71,89	2750.0	test	<img class = center src='/static/experiments/beast_fmri_test/images/redV.png'></img>	stop	-1.0	2.0	0.0	stop	temp-non-target	V	71,Index Finger	89,Middle Finger	850.0	1000.0	1900.0	1700.0	0.0	n/a	0.0	n/a	stop_stim
226618.05934502941	229.94065497059245	n/a	2654	89	2750	229.940654971	stim	stop-signal	295	839066	0.0-15.0-1.0	beast_fmri_test	388	836702,/,837383,/,838062,/,838742,/	t,t,t,t	<img class = center src='/static/experiments/beast_fmri_test/images/V.png'></img>	71,89	2750.0	test	<img class = center src='/static/experiments/beast_fmri_test/images/redV.png'></img>	stop	-1.0	2.0	0.0	stop	temp-non-target	V	71,Index Finger	89,Middle Finger	850.0	1000.0	1900.0	1700.0	0.0	n/a	0.0	n/a	ITI
227615	500	n/a	-1	-1	500	0.0	fixation	poldrack-single-stim	296	839833	0.0-15.1-0.1	beast_fmri_test	388	839425,/	t	<div class = centerbox2><div class = fixation>+</div></div>	none	500.0	test	n/a	n/a	n/a	n/a	n/a	n/a	n/a	n/a	n/a	n/a	n/a	n/a	n/a	n/a	n/a	n/a	n/a	n/a	fixation
227391.06546466134	temp_go_duration	n/a	1413	89	2750	227.934535339	stim	stop-signal	297	842587	0.0-15.1-1.1	beast_fmri_test	388	840106,/,840788,/,841467,/,842147,/	t,t,t,t	<img class = center src='/static/experiments/beast_fmri_test/images/B.png'></img>	71,89	2750.0	test	<img class = center src='/static/experiments/beast_fmri_test/images/redB.png'></img>	stop	-1.0	2.0	1.0	stop	temp-non-target	B	71,Index Finger	89,Middle Finger	850.0	1000.0	1900.0	1700.0	0.0	n/a	0.0	n/a	go_stim
temp-non-target	temp_stop_duration	n/a	1413	89	2750	227.934535339	stim	stop-signal	297	842587	0.0-15.1-1.1	beast_fmri_test	388	840106,/,840788,/,841467,/,842147,/	t,t,t,t	<img class = center src='/static/experiments/beast_fmri_test/images/B.png'></img>	71,89	2750.0	test	<img class = center src='/static/experiments/beast_fmri_test/images/redB.png'></img>	stop	-1.0	2.0	1.0	stop	temp-non-target	B	71,Index Finger	89,Middle Finger	850.0	1000.0	1900.0	1700.0	0.0	n/a	0.0	n/a	stop_stim
230141.06546466134	227.93453533861771	n/a	1413	89	2750	227.934535339	stim	stop-signal	297	842587	0.0-15.1-1.1	beast_fmri_test	388	840106,/,840788,/,841467,/,842147,/	t,t,t,t	<img class = center src='/static/experiments/beast_fmri_test/images/B.png'></img>	71,89	2750.0	test	<img class = center src='/static/experiments/beast_fmri_test/images/redB.png'></img>	stop	-1.0	2.0	1.0	stop	temp-non-target	B	71,Index Finger	89,Middle Finger	850.0	1000.0	1900.0	1700.0	0.0	n/a	0.0	n/a	ITI
231131	500	n/a	-1	-1	500	0.0	fixation	poldrack-single-stim	298	843349	0.0-15.2-0.2	beast_fmri_test	388	842846,/	t	<div class = centerbox2><div class = fixation>+</div></div>	none	500.0	test	n/a	n/a	n/a	n/a	n/a	n/a	n/a	n/a	n/a	n/a	n/a	n/a	n/a	n/a	n/a	n/a	n/a	n/a	fixation
230487.39474883385	2750	n/a	1212	89	2750	646.605251166	stim	stop-signal	299	846102	0.0-15.2-1.2	beast_fmri_test	388	843507,/,844187,/,844867,/,845547,/,846227,/	t,t,t,t,t	<img class = center src='/static/experiments/beast_fmri_test/images/D.png'></img>	71,89	2750.0	test	<img class = center src='/static/experiments/beast_fmri_test/images/redD.png'></img>	go	1750.0	2.0	2.0	go	non-target	D	71,Index Finger	89,Middle Finger	850.0	1000.0	1900.0	1750.0	1.0	1000.0	n/a	1.0	go_stim
233237.39474883385	646.60525116614622	n/a	1212	89	2750	646.605251166	stim	stop-signal	299	846102	0.0-15.2-1.2	beast_fmri_test	388	843507,/,844187,/,844867,/,845547,/,846227,/	t,t,t,t,t	<img class = center src='/static/experiments/beast_fmri_test/images/D.png'></img>	71,89	2750.0	test	<img class = center src='/static/experiments/beast_fmri_test/images/redD.png'></img>	go	1750.0	2.0	2.0	go	non-target	D	71,Index Finger	89,Middle Finger	850.0	1000.0	1900.0	1750.0	1.0	1000.0	n/a	1.0	ITI
235064	500	n/a	-1	-1	500	0.0	fixation	poldrack-single-stim	300	847282	0.0-15.3-0.3	beast_fmri_test	388	846908,/	t	<div class = centerbox2><div class = fixation>+</div></div>	none	500.0	test	n/a	n/a	n/a	n/a	n/a	n/a	n/a	n/a	n/a	n/a	n/a	n/a	n/a	n/a	n/a	n/a	n/a	n/a	fixation
234349.70284908754	2750	n/a	1292	89	2750	722.297150912	stim	stop-signal	301	850040	0.0-15.3-1.3	beast_fmri_test	388	847587,/,848267,/,848947,/,849630,/,850312,/	t,t,t,t,t	<img class = center src='/static/experiments/beast_fmri_test/images/P.png'></img>	71,89	2750.0	test	<img class = center src='/static/experiments/beast_fmri_test/images/redP.png'></img>	go	1750.0	2.0	3.0	go	non-target	P	71,Index Finger	89,Middle Finger	850.0	1000.0	1900.0	1750.0	1.0	1000.0	n/a	1.0	go_stim
237099.70284908754	722.29715091241962	n/a	1292	89	2750	722.297150912	stim	stop-signal	301	850040	0.0-15.3-1.3	beast_fmri_test	388	847587,/,848267,/,848947,/,849630,/,850312,/	t,t,t,t,t	<img class = center src='/static/experiments/beast_fmri_test/images/P.png'></img>	71,89	2750.0	test	<img class = center src='/static/experiments/beast_fmri_test/images/redP.png'></img>	go	1750.0	2.0	3.0	go	non-target	P	71,Index Finger	89,Middle Finger	850.0	1000.0	1900.0	1750.0	1.0	1000.0	n/a	1.0	ITI
239076	500	n/a	-1	-1	500	0.0	fixation	poldrack-single-stim	302	851294	0.0-15.4-0.4	beast_fmri_test	388	850991,/	t	<div class = centerbox2><div class = fixation>+</div></div>	none	500.0	test	n/a	n/a	n/a	n/a	n/a	n/a	n/a	n/a	n/a	n/a	n/a	n/a	n/a	n/a	n/a	n/a	n/a	n/a	fixation
239052.13547821576	850.0	n/a	632	71	2750	26.8645217842	stim	stop-signal	303	854047	0.0-15.4-1.4	beast_fmri_test	388	851672,/,852351,/,853031,/,853711,/	t,t,t,t	<img class = center src='/static/experiments/beast_fmri_test/images/D.png'></img>	71,89	2750.0	test	<img class = center src='/static/experiments/beast_fmri_test/images/redD.png'></img>	stop	1900.0	2.0	4.0	stop	target	D	71,Index Finger	89,Middle Finger	850.0	1000.0	1900.0	1750.0	0.0	850.0	0.0	n/a	go_stim
240952.13547821576	1900.0	n/a	632	71	2750	26.8645217842	stim	stop-signal	303	854047	0.0-15.4-1.4	beast_fmri_test	388	851672,/,852351,/,853031,/,853711,/	t,t,t,t	<img class = center src='/static/experiments/beast_fmri_test/images/D.png'></img>	71,89	2750.0	test	<img class = center src='/static/experiments/beast_fmri_test/images/redD.png'></img>	stop	1900.0	2.0	4.0	stop	target	D	71,Index Finger	89,Middle Finger	850.0	1000.0	1900.0	1750.0	0.0	850.0	0.0	n/a	stop_stim
241802.13547821576	26.864521784233521	n/a	632	71	2750	26.8645217842	stim	stop-signal	303	854047	0.0-15.4-1.4	beast_fmri_test	388	851672,/,852351,/,853031,/,853711,/	t,t,t,t	<img class = center src='/static/experiments/beast_fmri_test/images/D.png'></img>	71,89	2750.0	test	<img class = center src='/static/experiments/beast_fmri_test/images/redD.png'></img>	stop	1900.0	2.0	4.0	stop	target	D	71,Index Finger	89,Middle Finger	850.0	1000.0	1900.0	1750.0	0.0	850.0	0.0	n/a	ITI
242388	500	n/a	-1	-1	500	0.0	fixation	poldrack-single-stim	304	854606	0.0-15.5-0.5	beast_fmri_test	388	854391,/	t	<div class = centerbox2><div class = fixation>+</div></div>	none	500.0	test	n/a	n/a	n/a	n/a	n/a	n/a	n/a	n/a	n/a	n/a	n/a	n/a	n/a	n/a	n/a	n/a	n/a	n/a	fixation
242373.88609200146	2750	n/a	1082	71	2750	18.1139079985	stim	stop-signal	305	857360	0.0-15.5-1.5	beast_fmri_test	388	855072,/,855751,/,856432,/,857111,/	t,t,t,t	<img class = center src='/static/experiments/beast_fmri_test/images/P.png'></img>	71,89	2750.0	test	<img class = center src='/static/experiments/beast_fmri_test/images/redP.png'></img>	go	1950.0	2.0	5.0	go	target	P	71,Index Finger	89,Middle Finger	800.0	1000.0	1950.0	1750.0	1.0	800.0	n/a	1.0	go_stim
245123.88609200146	18.113907998506502	n/a	1082	71	2750	18.1139079985	stim	stop-signal	305	857360	0.0-15.5-1.5	beast_fmri_test	388	855072,/,855751,/,856432,/,857111,/	t,t,t,t	<img class = center src='/static/experiments/beast_fmri_test/images/P.png'></img>	71,89	2750.0	test	<img class = center src='/static/experiments/beast_fmri_test/images/redP.png'></img>	go	1950.0	2.0	5.0	go	target	P	71,Index Finger	89,Middle Finger	800.0	1000.0	1950.0	1750.0	1.0	800.0	n/a	1.0	ITI
245694	500	n/a	-1	-1	500	0.0	fixation	poldrack-single-stim	306	857912	0.0-15.6-0.6	beast_fmri_test	388	857792,/	t	<div class = centerbox2><div class = fixation>+</div></div>	none	500.0	test	n/a	n/a	n/a	n/a	n/a	n/a	n/a	n/a	n/a	n/a	n/a	n/a	n/a	n/a	n/a	n/a	n/a	n/a	fixation
245209.8741299531	2750	n/a	1073	89	2750	489.125870047	stim	stop-signal	307	860667	0.0-15.6-1.6	beast_fmri_test	388	858475,/,859155,/,859834,/,860516,/	t,t,t,t	<img class = center src='/static/experiments/beast_fmri_test/images/P.png'></img>	71,89	2750.0	test	<img class = center src='/static/experiments/beast_fmri_test/images/redP.png'></img>	go	1750.0	2.0	6.0	go	non-target	P	71,Index Finger	89,Middle Finger	800.0	1000.0	1950.0	1750.0	1.0	1000.0	n/a	1.0	go_stim
247959.8741299531	489.12587004684889	n/a	1073	89	2750	489.125870047	stim	stop-signal	307	860667	0.0-15.6-1.6	beast_fmri_test	388	858475,/,859155,/,859834,/,860516,/	t,t,t,t	<img class = center src='/static/experiments/beast_fmri_test/images/P.png'></img>	71,89	2750.0	test	<img class = center src='/static/experiments/beast_fmri_test/images/redP.png'></img>	go	1750.0	2.0	6.0	go	non-target	P	71,Index Finger	89,Middle Finger	800.0	1000.0	1950.0	1750.0	1.0	1000.0	n/a	1.0	ITI
249473	500	n/a	-1	-1	500	0.0	fixation	poldrack-single-stim	308	861691	0.0-15.7-0.7	beast_fmri_test	388	861195,/	t	<div class = centerbox2><div class = fixation>+</div></div>	none	500.0	test	n/a	n/a	n/a	n/a	n/a	n/a	n/a	n/a	n/a	n/a	n/a	n/a	n/a	n/a	n/a	n/a	n/a	n/a	fixation
248831.41236940236	1000.0	n/a	737	89	2750	646.587630598	stim	stop-signal	309	864446	0.0-15.7-1.7	beast_fmri_test	388	861875,/,862555,/,863235,/,863915,/,864598,/	t,t,t,t,t	<img class = center src='/static/experiments/beast_fmri_test/images/B.png'></img>	71,89	2750.0	test	<img class = center src='/static/experiments/beast_fmri_test/images/redB.png'></img>	stop	1750.0	2.0	7.0	stop	non-target	B	71,Index Finger	89,Middle Finger	800.0	1000.0	1950.0	1750.0	0.0	1000.0	0.0	n/a	go_stim
250581.41236940236	1750.0	n/a	737	89	2750	646.587630598	stim	stop-signal	309	864446	0.0-15.7-1.7	beast_fmri_test	388	861875,/,862555,/,863235,/,863915,/,864598,/	t,t,t,t,t	<img class = center src='/static/experiments/beast_fmri_test/images/B.png'></img>	71,89	2750.0	test	<img class = center src='/static/experiments/beast_fmri_test/images/redB.png'></img>	stop	1750.0	2.0	7.0	stop	non-target	B	71,Index Finger	89,Middle Finger	800.0	1000.0	1950.0	1750.0	0.0	1000.0	0.0	n/a	stop_stim
251581.41236940236	646.58763059759065	n/a	737	89	2750	646.587630598	stim	stop-signal	309	864446	0.0-15.7-1.7	beast_fmri_test	388	861875,/,862555,/,863235,/,863915,/,864598,/	t,t,t,t,t	<img class = center src='/static/experiments/beast_fmri_test/images/B.png'></img>	71,89	2750.0	test	<img class = center src='/static/experiments/beast_fmri_test/images/redB.png'></img>	stop	1750.0	2.0	7.0	stop	non-target	B	71,Index Finger	89,Middle Finger	800.0	1000.0	1950.0	1750.0	0.0	1000.0	0.0	n/a	ITI
253410	500	n/a	-1	-1	500	0.0	fixation	poldrack-single-stim	310	865628	0.0-15.8-0.8	beast_fmri_test	388	865281,/	t	<div class = centerbox2><div class = fixation>+</div></div>	none	500.0	test	n/a	n/a	n/a	n/a	n/a	n/a	n/a	n/a	n/a	n/a	n/a	n/a	n/a	n/a	n/a	n/a	n/a	n/a	fixation
252836.90730503516	2750	n/a	1001	71	2750	576.092694965	stim	stop-signal	311	868381	0.0-15.8-1.8	beast_fmri_test	388	865960,/,866639,/,867320,/,868000,/,868681,/	t,t,t,t,t	<img class = center src='/static/experiments/beast_fmri_test/images/P.png'></img>	71,89	2750.0	test	<img class = center src='/static/experiments/beast_fmri_test/images/redP.png'></img>	go	1950.0	2.0	8.0	go	target	P	71,Index Finger	89,Middle Finger	800.0	950.0	1950.0	1750.0	1.0	800.0	n/a	1.0	go_stim
255586.90730503516	576.09269496488196	n/a	1001	71	2750	576.092694965	stim	stop-signal	311	868381	0.0-15.8-1.8	beast_fmri_test	388	865960,/,866639,/,867320,/,868000,/,868681,/	t,t,t,t,t	<img class = center src='/static/experiments/beast_fmri_test/images/P.png'></img>	71,89	2750.0	test	<img class = center src='/static/experiments/beast_fmri_test/images/redP.png'></img>	go	1950.0	2.0	8.0	go	target	P	71,Index Finger	89,Middle Finger	800.0	950.0	1950.0	1750.0	1.0	800.0	n/a	1.0	ITI
257271	500	n/a	-1	-1	500	0.0	fixation	poldrack-single-stim	312	869489	0.0-15.9-0.9	beast_fmri_test	388	869361,/	t	<div class = centerbox2><div class = fixation>+</div></div>	none	500.0	test	n/a	n/a	n/a	n/a	n/a	n/a	n/a	n/a	n/a	n/a	n/a	n/a	n/a	n/a	n/a	n/a	n/a	n/a	fixation
256347.73081073165	2750	n/a	627	89	2750	926.269189268	stim	stop-signal	313	872242	0.0-15.9-1.9	beast_fmri_test	388	870041,/,870720,/,871401,/,872079,/,872760,/	t,t,t,t,t	<img class = center src='/static/experiments/beast_fmri_test/images/T.png'></img>	71,89	2750.0	test	<img class = center src='/static/experiments/beast_fmri_test/images/redT.png'></img>	go	1800.0	2.0	9.0	go	non-target	T	71,Index Finger	89,Middle Finger	800.0	950.0	1950.0	1800.0	1.0	950.0	n/a	1.0	go_stim
259097.73081073165	926.26918926835071	n/a	627	89	2750	926.269189268	stim	stop-signal	313	872242	0.0-15.9-1.9	beast_fmri_test	388	870041,/,870720,/,871401,/,872079,/,872760,/	t,t,t,t,t	<img class = center src='/static/experiments/beast_fmri_test/images/T.png'></img>	71,89	2750.0	test	<img class = center src='/static/experiments/beast_fmri_test/images/redT.png'></img>	go	1800.0	2.0	9.0	go	non-target	T	71,Index Finger	89,Middle Finger	800.0	950.0	1950.0	1800.0	1.0	950.0	n/a	1.0	ITI
261484	500	n/a	-1	-1	500	0.0	fixation	poldrack-single-stim	314	873702	0.0-15.10-0.10	beast_fmri_test	388	873439,/	t	<div class = centerbox2><div class = fixation>+</div></div>	none	500.0	test	n/a	n/a	n/a	n/a	n/a	n/a	n/a	n/a	n/a	n/a	n/a	n/a	n/a	n/a	n/a	n/a	n/a	n/a	fixation
261136.12482547818	2750	n/a	941	89	2750	350.875174522	stim	stop-signal	315	876455	0.0-15.10-1.10	beast_fmri_test	388	874121,/,874801,/,875480,/,876161,/	t,t,t,t	<img class = center src='/static/experiments/beast_fmri_test/images/T.png'></img>	71,89	2750.0	test	<img class = center src='/static/experiments/beast_fmri_test/images/redT.png'></img>	go	1800.0	2.0	10.0	go	non-target	T	71,Index Finger	89,Middle Finger	800.0	950.0	1950.0	1800.0	1.0	950.0	n/a	1.0	go_stim
263886.12482547818	350.87517452184363	n/a	941	89	2750	350.875174522	stim	stop-signal	315	876455	0.0-15.10-1.10	beast_fmri_test	388	874121,/,874801,/,875480,/,876161,/	t,t,t,t	<img class = center src='/static/experiments/beast_fmri_test/images/T.png'></img>	71,89	2750.0	test	<img class = center src='/static/experiments/beast_fmri_test/images/redT.png'></img>	go	1800.0	2.0	10.0	go	non-target	T	71,Index Finger	89,Middle Finger	800.0	950.0	1950.0	1800.0	1.0	950.0	n/a	1.0	ITI
265121	500	n/a	-1	-1	500	0.0	fixation	poldrack-single-stim	316	877339	0.0-15.11-0.11	beast_fmri_test	388	876839,/	t	<div class = centerbox2><div class = fixation>+</div></div>	none	500.0	test	n/a	n/a	n/a	n/a	n/a	n/a	n/a	n/a	n/a	n/a	n/a	n/a	n/a	n/a	n/a	n/a	n/a	n/a	fixation
264516.39421000052	800.0	n/a	-1	-1	2750	607.605789999	stim	stop-signal	317	880092	0.0-15.11-1.11	beast_fmri_test	388	877521,/,878199,/,878881,/,879561,/,880241,/	t,t,t,t,t	<img class = center src='/static/experiments/beast_fmri_test/images/T.png'></img>	71,89	2750.0	test	<img class = center src='/static/experiments/beast_fmri_test/images/redT.png'></img>	stop	1950.0	2.0	11.0	stop	target	T	71,Index Finger	89,Middle Finger	800.0	950.0	1950.0	1800.0	0.0	800.0	1.0	n/a	go_stim
266466.39421000052	1950.0	n/a	-1	-1	2750	607.605789999	stim	stop-signal	317	880092	0.0-15.11-1.11	beast_fmri_test	388	877521,/,878199,/,878881,/,879561,/,880241,/	t,t,t,t,t	<img class = center src='/static/experiments/beast_fmri_test/images/T.png'></img>	71,89	2750.0	test	<img class = center src='/static/experiments/beast_fmri_test/images/redT.png'></img>	stop	1950.0	2.0	11.0	stop	target	T	71,Index Finger	89,Middle Finger	800.0	950.0	1950.0	1800.0	0.0	800.0	1.0	n/a	stop_stim
267266.39421000052	607.60578999947154	n/a	-1	-1	2750	607.605789999	stim	stop-signal	317	880092	0.0-15.11-1.11	beast_fmri_test	388	877521,/,878199,/,878881,/,879561,/,880241,/	t,t,t,t,t	<img class = center src='/static/experiments/beast_fmri_test/images/T.png'></img>	71,89	2750.0	test	<img class = center src='/static/experiments/beast_fmri_test/images/redT.png'></img>	stop	1950.0	2.0	11.0	stop	target	T	71,Index Finger	89,Middle Finger	800.0	950.0	1950.0	1800.0	0.0	800.0	1.0	n/a	ITI
269016	500	n/a	-1	-1	500	0.0	fixation	poldrack-single-stim	318	881234	0.0-15.12-0.12	beast_fmri_test	388	880919,/	t	<div class = centerbox2><div class = fixation>+</div></div>	none	500.0	test	n/a	n/a	n/a	n/a	n/a	n/a	n/a	n/a	n/a	n/a	n/a	n/a	n/a	n/a	n/a	n/a	n/a	n/a	fixation
267319.87842140684	2750	n/a	2174	71	2750	1698.12157859	stim	stop-signal	319	883986	0.0-15.12-1.12	beast_fmri_test	388	881599,/,882280,/,882961,/,883641,/,884321,/,885001,/,885679,/	t,t,t,t,t,t,t	<img class = center src='/static/experiments/beast_fmri_test/images/T.png'></img>	71,89	2750.0	test	<img class = center src='/static/experiments/beast_fmri_test/images/redT.png'></img>	go	1900.0	2.0	12.0	go	target	T	71,Index Finger	89,Middle Finger	850.0	950.0	1900.0	1800.0	1.0	850.0	n/a	1.0	go_stim
270069.87842140684	1698.1215785931988	n/a	2174	71	2750	1698.12157859	stim	stop-signal	319	883986	0.0-15.12-1.12	beast_fmri_test	388	881599,/,882280,/,882961,/,883641,/,884321,/,885001,/,885679,/	t,t,t,t,t,t,t	<img class = center src='/static/experiments/beast_fmri_test/images/T.png'></img>	71,89	2750.0	test	<img class = center src='/static/experiments/beast_fmri_test/images/redT.png'></img>	go	1900.0	2.0	12.0	go	target	T	71,Index Finger	89,Middle Finger	850.0	950.0	1900.0	1800.0	1.0	850.0	n/a	1.0	ITI
273997	500	n/a	-1	-1	500	0.0	fixation	poldrack-single-stim	320	886215	0.0-15.13-0.13	beast_fmri_test	388	n/a	n/a	<div class = centerbox2><div class = fixation>+</div></div>	none	500.0	test	n/a	n/a	n/a	n/a	n/a	n/a	n/a	n/a	n/a	n/a	n/a	n/a	n/a	n/a	n/a	n/a	n/a	n/a	fixation
272485.97744401358	950.0	n/a	-1	-1	2750	1514.02255599	stim	stop-signal	321	888968	0.0-15.13-1.13	beast_fmri_test	388	886361,/,887040,/,887719,/,888401,/,889081,/,889764,/,890445,/	t,t,t,t,t,t,t	<img class = center src='/static/experiments/beast_fmri_test/images/V.png'></img>	71,89	2750.0	test	<img class = center src='/static/experiments/beast_fmri_test/images/redV.png'></img>	stop	1800.0	2.0	13.0	stop	non-target	V	71,Index Finger	89,Middle Finger	850.0	950.0	1900.0	1800.0	0.0	950.0	1.0	n/a	go_stim
274285.97744401358	1800.0	n/a	-1	-1	2750	1514.02255599	stim	stop-signal	321	888968	0.0-15.13-1.13	beast_fmri_test	388	886361,/,887040,/,887719,/,888401,/,889081,/,889764,/,890445,/	t,t,t,t,t,t,t	<img class = center src='/static/experiments/beast_fmri_test/images/V.png'></img>	71,89	2750.0	test	<img class = center src='/static/experiments/beast_fmri_test/images/redV.png'></img>	stop	1800.0	2.0	13.0	stop	non-target	V	71,Index Finger	89,Middle Finger	850.0	950.0	1900.0	1800.0	0.0	950.0	1.0	n/a	stop_stim
275235.97744401358	1514.0225559864391	n/a	-1	-1	2750	1514.02255599	stim	stop-signal	321	888968	0.0-15.13-1.13	beast_fmri_test	388	886361,/,887040,/,887719,/,888401,/,889081,/,889764,/,890445,/	t,t,t,t,t,t,t	<img class = center src='/static/experiments/beast_fmri_test/images/V.png'></img>	71,89	2750.0	test	<img class = center src='/static/experiments/beast_fmri_test/images/redV.png'></img>	stop	1800.0	2.0	13.0	stop	non-target	V	71,Index Finger	89,Middle Finger	850.0	950.0	1900.0	1800.0	0.0	950.0	1.0	n/a	ITI
278800	500	n/a	-1	-1	500	0.0	fixation	poldrack-single-stim	322	891018	0.0-15.14-0.14	beast_fmri_test	388	n/a	n/a	<div class = centerbox2><div class = fixation>+</div></div>	none	500.0	test	n/a	n/a	n/a	n/a	n/a	n/a	n/a	n/a	n/a	n/a	n/a	n/a	n/a	n/a	n/a	n/a	n/a	n/a	fixation
278277.24978654634	2750	n/a	1574	89	2750	525.750213454	stim	stop-signal	323	893771	0.0-15.14-1.14	beast_fmri_test	388	891124,/,891804,/,892484,/,893165,/,893844,/	t,t,t,t,t	<img class = center src='/static/experiments/beast_fmri_test/images/D.png'></img>	71,89	2750.0	test	<img class = center src='/static/experiments/beast_fmri_test/images/redD.png'></img>	go	1750.0	2.0	14.0	go	non-target	D	71,Index Finger	89,Middle Finger	850.0	1000.0	1900.0	1750.0	1.0	1000.0	n/a	1.0	go_stim
281027.24978654634	525.75021345365167	n/a	1574	89	2750	525.750213454	stim	stop-signal	323	893771	0.0-15.14-1.14	beast_fmri_test	388	891124,/,891804,/,892484,/,893165,/,893844,/	t,t,t,t,t	<img class = center src='/static/experiments/beast_fmri_test/images/D.png'></img>	71,89	2750.0	test	<img class = center src='/static/experiments/beast_fmri_test/images/redD.png'></img>	go	1750.0	2.0	14.0	go	non-target	D	71,Index Finger	89,Middle Finger	850.0	1000.0	1900.0	1750.0	1.0	1000.0	n/a	1.0	ITI
282616	500	n/a	-1	-1	500	0.0	fixation	poldrack-single-stim	324	894834	0.0-15.15-0.15	beast_fmri_test	388	894525,/	t	<div class = centerbox2><div class = fixation>+</div></div>	none	500.0	test	n/a	n/a	n/a	n/a	n/a	n/a	n/a	n/a	n/a	n/a	n/a	n/a	n/a	n/a	n/a	n/a	n/a	n/a	fixation
282245.11983410898	1000.0	n/a	-1	-1	2750	374.880165891	stim	stop-signal	325	897588	0.0-15.15-1.15	beast_fmri_test	388	895205,/,895884,/,896566,/,897246,/,897926,/	t,t,t,t,t	<img class = center src='/static/experiments/beast_fmri_test/images/T.png'></img>	71,89	2750.0	test	<img class = center src='/static/experiments/beast_fmri_test/images/redT.png'></img>	stop	1750.0	2.0	15.0	stop	non-target	T	71,Index Finger	89,Middle Finger	850.0	1000.0	1900.0	1750.0	0.0	1000.0	1.0	n/a	go_stim
283995.11983410898	1750.0	n/a	-1	-1	2750	374.880165891	stim	stop-signal	325	897588	0.0-15.15-1.15	beast_fmri_test	388	895205,/,895884,/,896566,/,897246,/,897926,/	t,t,t,t,t	<img class = center src='/static/experiments/beast_fmri_test/images/T.png'></img>	71,89	2750.0	test	<img class = center src='/static/experiments/beast_fmri_test/images/redT.png'></img>	stop	1750.0	2.0	15.0	stop	non-target	T	71,Index Finger	89,Middle Finger	850.0	1000.0	1900.0	1750.0	0.0	1000.0	1.0	n/a	stop_stim
284995.11983410898	374.88016589107912	n/a	-1	-1	2750	374.880165891	stim	stop-signal	325	897588	0.0-15.15-1.15	beast_fmri_test	388	895205,/,895884,/,896566,/,897246,/,897926,/	t,t,t,t,t	<img class = center src='/static/experiments/beast_fmri_test/images/T.png'></img>	71,89	2750.0	test	<img class = center src='/static/experiments/beast_fmri_test/images/redT.png'></img>	stop	1750.0	2.0	15.0	stop	non-target	T	71,Index Finger	89,Middle Finger	850.0	1000.0	1900.0	1750.0	0.0	1000.0	1.0	n/a	ITI
286283	500	n/a	-1	-1	500	0.0	fixation	poldrack-single-stim	326	898501	0.0-15.16-0.16	beast_fmri_test	388	n/a	n/a	<div class = centerbox2><div class = fixation>+</div></div>	none	500.0	test	n/a	n/a	n/a	n/a	n/a	n/a	n/a	n/a	n/a	n/a	n/a	n/a	n/a	n/a	n/a	n/a	n/a	n/a	fixation
285498.07226547622	2750	n/a	1483	89	2750	791.927734524	stim	stop-signal	327	901258	0.0-15.16-1.16	beast_fmri_test	388	898606,/,899287,/,899969,/,900650,/,901330,/,902010,/	t,t,t,t,t,t	<img class = center src='/static/experiments/beast_fmri_test/images/P.png'></img>	71,89	2750.0	test	<img class = center src='/static/experiments/beast_fmri_test/images/redP.png'></img>	go	1700.0	2.0	16.0	go	non-target	P	71,Index Finger	89,Middle Finger	850.0	1050.0	1900.0	1700.0	1.0	1050.0	n/a	1.0	go_stim
288248.07226547622	791.92773452379811	n/a	1483	89	2750	791.927734524	stim	stop-signal	327	901258	0.0-15.16-1.16	beast_fmri_test	388	898606,/,899287,/,899969,/,900650,/,901330,/,902010,/	t,t,t,t,t,t	<img class = center src='/static/experiments/beast_fmri_test/images/P.png'></img>	71,89	2750.0	test	<img class = center src='/static/experiments/beast_fmri_test/images/redP.png'></img>	go	1700.0	2.0	16.0	go	non-target	P	71,Index Finger	89,Middle Finger	850.0	1050.0	1900.0	1700.0	1.0	1050.0	n/a	1.0	ITI
290366	500	n/a	-1	-1	500	0.0	fixation	poldrack-single-stim	328	902584	0.0-15.17-0.17	beast_fmri_test	388	n/a	n/a	<div class = centerbox2><div class = fixation>+</div></div>	none	500.0	test	n/a	n/a	n/a	n/a	n/a	n/a	n/a	n/a	n/a	n/a	n/a	n/a	n/a	n/a	n/a	n/a	n/a	n/a	fixation
290280.95879376947	850.0	n/a	1029	71	2750	88.0412062306	stim	stop-signal	329	905337	0.0-15.17-1.17	beast_fmri_test	388	902690,/,903369,/,904050,/,904728,/,905409,/	t,t,t,t,t	<img class = center src='/static/experiments/beast_fmri_test/images/T.png'></img>	71,89	2750.0	test	<img class = center src='/static/experiments/beast_fmri_test/images/redT.png'></img>	stop	1900.0	2.0	17.0	stop	target	T	71,Index Finger	89,Middle Finger	850.0	1050.0	1900.0	1700.0	0.0	850.0	0.0	n/a	go_stim
292180.95879376947	1900.0	n/a	1029	71	2750	88.0412062306	stim	stop-signal	329	905337	0.0-15.17-1.17	beast_fmri_test	388	902690,/,903369,/,904050,/,904728,/,905409,/	t,t,t,t,t	<img class = center src='/static/experiments/beast_fmri_test/images/T.png'></img>	71,89	2750.0	test	<img class = center src='/static/experiments/beast_fmri_test/images/redT.png'></img>	stop	1900.0	2.0	17.0	stop	target	T	71,Index Finger	89,Middle Finger	850.0	1050.0	1900.0	1700.0	0.0	850.0	0.0	n/a	stop_stim
293030.95879376947	88.041206230560491	n/a	1029	71	2750	88.0412062306	stim	stop-signal	329	905337	0.0-15.17-1.17	beast_fmri_test	388	902690,/,903369,/,904050,/,904728,/,905409,/	t,t,t,t,t	<img class = center src='/static/experiments/beast_fmri_test/images/T.png'></img>	71,89	2750.0	test	<img class = center src='/static/experiments/beast_fmri_test/images/redT.png'></img>	stop	1900.0	2.0	17.0	stop	target	T	71,Index Finger	89,Middle Finger	850.0	1050.0	1900.0	1700.0	0.0	850.0	0.0	n/a	ITI
293743	500	n/a	-1	-1	500	0.0	fixation	poldrack-single-stim	330	905961	0.0-15.18-0.18	beast_fmri_test	388	n/a	n/a	<div class = centerbox2><div class = fixation>+</div></div>	none	500.0	test	n/a	n/a	n/a	n/a	n/a	n/a	n/a	n/a	n/a	n/a	n/a	n/a	n/a	n/a	n/a	n/a	n/a	n/a	fixation
293548.98285510833	1050.0	n/a	-1	-1	2750	198.017144892	stim	stop-signal	331	908715	0.0-15.18-1.18	beast_fmri_test	388	906088,/,906770,/,907450,/,908130,/,908810,/	t,t,t,t,t	<img class = center src='/static/experiments/beast_fmri_test/images/B.png'></img>	71,89	2750.0	test	<img class = center src='/static/experiments/beast_fmri_test/images/redB.png'></img>	stop	1700.0	2.0	18.0	stop	non-target	B	71,Index Finger	89,Middle Finger	800.0	1050.0	1900.0	1700.0	0.0	1050.0	1.0	n/a	go_stim
295248.98285510833	1700.0	n/a	-1	-1	2750	198.017144892	stim	stop-signal	331	908715	0.0-15.18-1.18	beast_fmri_test	388	906088,/,906770,/,907450,/,908130,/,908810,/	t,t,t,t,t	<img class = center src='/static/experiments/beast_fmri_test/images/B.png'></img>	71,89	2750.0	test	<img class = center src='/static/experiments/beast_fmri_test/images/redB.png'></img>	stop	1700.0	2.0	18.0	stop	non-target	B	71,Index Finger	89,Middle Finger	800.0	1050.0	1900.0	1700.0	0.0	1050.0	1.0	n/a	stop_stim
296298.98285510833	198.01714489172238	n/a	-1	-1	2750	198.017144892	stim	stop-signal	331	908715	0.0-15.18-1.18	beast_fmri_test	388	906088,/,906770,/,907450,/,908130,/,908810,/	t,t,t,t,t	<img class = center src='/static/experiments/beast_fmri_test/images/B.png'></img>	71,89	2750.0	test	<img class = center src='/static/experiments/beast_fmri_test/images/redB.png'></img>	stop	1700.0	2.0	18.0	stop	non-target	B	71,Index Finger	89,Middle Finger	800.0	1050.0	1900.0	1700.0	0.0	1050.0	1.0	n/a	ITI
297233	500	n/a	-1	-1	500	0.0	fixation	poldrack-single-stim	332	909451	0.0-15.19-0.19	beast_fmri_test	388	n/a	n/a	<div class = centerbox2><div class = fixation>+</div></div>	none	500.0	test	n/a	n/a	n/a	n/a	n/a	n/a	n/a	n/a	n/a	n/a	n/a	n/a	n/a	n/a	n/a	n/a	n/a	n/a	fixation
297121.75370618619	2750	n/a	1301	71	2750	116.246293814	stim	stop-signal	333	912206	0.0-15.19-1.19	beast_fmri_test	388	909490,/,910174,/,910854,/,911534,/,912213,/	t,t,t,t,t	<img class = center src='/static/experiments/beast_fmri_test/images/T.png'></img>	71,89	2750.0	test	<img class = center src='/static/experiments/beast_fmri_test/images/redT.png'></img>	go	1950.0	2.0	19.0	go	target	T	71,Index Finger	89,Middle Finger	800.0	1100.0	1950.0	1700.0	1.0	800.0	n/a	1.0	go_stim
299871.75370618619	116.24629381377041	n/a	1301	71	2750	116.246293814	stim	stop-signal	333	912206	0.0-15.19-1.19	beast_fmri_test	388	909490,/,910174,/,910854,/,911534,/,912213,/	t,t,t,t,t	<img class = center src='/static/experiments/beast_fmri_test/images/T.png'></img>	71,89	2750.0	test	<img class = center src='/static/experiments/beast_fmri_test/images/redT.png'></img>	go	1950.0	2.0	19.0	go	target	T	71,Index Finger	89,Middle Finger	800.0	1100.0	1950.0	1700.0	1.0	800.0	n/a	1.0	ITI
300643	500	n/a	-1	-1	500	0.0	fixation	poldrack-single-stim	334	912861	0.0-15.20-0.20	beast_fmri_test	388	n/a	n/a	<div class = centerbox2><div class = fixation>+</div></div>	none	500.0	test	n/a	n/a	n/a	n/a	n/a	n/a	n/a	n/a	n/a	n/a	n/a	n/a	n/a	n/a	n/a	n/a	n/a	n/a	fixation
299260.85687823582	2750	n/a	1914	89	2750	1384.14312176	stim	stop-signal	335	915613	0.0-15.20-1.20	beast_fmri_test	388	912892,/,913574,/,914254,/,914933,/,915615,/,916294,/,916972,/	t,t,t,t,t,t,t	<img class = center src='/static/experiments/beast_fmri_test/images/P.png'></img>	71,89	2750.0	test	<img class = center src='/static/experiments/beast_fmri_test/images/redP.png'></img>	go	1650.0	2.0	20.0	go	non-target	P	71,Index Finger	89,Middle Finger	800.0	1100.0	1950.0	1650.0	1.0	1100.0	n/a	1.0	go_stim
302010.85687823582	1384.143121764145	n/a	1914	89	2750	1384.14312176	stim	stop-signal	335	915613	0.0-15.20-1.20	beast_fmri_test	388	912892,/,913574,/,914254,/,914933,/,915615,/,916294,/,916972,/	t,t,t,t,t,t,t	<img class = center src='/static/experiments/beast_fmri_test/images/P.png'></img>	71,89	2750.0	test	<img class = center src='/static/experiments/beast_fmri_test/images/redP.png'></img>	go	1650.0	2.0	20.0	go	non-target	P	71,Index Finger	89,Middle Finger	800.0	1100.0	1950.0	1650.0	1.0	1100.0	n/a	1.0	ITI
305312	500	n/a	-1	-1	500	0.0	fixation	poldrack-single-stim	336	917530	0.0-15.21-0.21	beast_fmri_test	388	n/a	n/a	<div class = centerbox2><div class = fixation>+</div></div>	none	500.0	test	n/a	n/a	n/a	n/a	n/a	n/a	n/a	n/a	n/a	n/a	n/a	n/a	n/a	n/a	n/a	n/a	n/a	n/a	fixation
302872.63069947972	2750	n/a	1505	89	2750	2446.36930052	stim	stop-signal	337	920287	0.0-15.21-1.21	beast_fmri_test	388	917654,/,918334,/,919014,/,919695,/,920376,/,921058,/,921738,/,922418,/	t,t,t,t,t,t,t,t	<img class = center src='/static/experiments/beast_fmri_test/images/D.png'></img>	71,89	2750.0	test	<img class = center src='/static/experiments/beast_fmri_test/images/redD.png'></img>	go	1650.0	2.0	21.0	go	non-target	D	71,Index Finger	89,Middle Finger	800.0	1100.0	1950.0	1650.0	1.0	1100.0	n/a	1.0	go_stim
305622.63069947972	2446.3693005203163	n/a	1505	89	2750	2446.36930052	stim	stop-signal	337	920287	0.0-15.21-1.21	beast_fmri_test	388	917654,/,918334,/,919014,/,919695,/,920376,/,921058,/,921738,/,922418,/	t,t,t,t,t,t,t,t	<img class = center src='/static/experiments/beast_fmri_test/images/D.png'></img>	71,89	2750.0	test	<img class = center src='/static/experiments/beast_fmri_test/images/redD.png'></img>	go	1650.0	2.0	21.0	go	non-target	D	71,Index Finger	89,Middle Finger	800.0	1100.0	1950.0	1650.0	1.0	1100.0	n/a	1.0	ITI
311052	500	n/a	-1	-1	500	0.0	fixation	poldrack-single-stim	338	923270	0.0-15.22-0.22	beast_fmri_test	388	923098,/	t	<div class = centerbox2><div class = fixation>+</div></div>	none	500.0	test	n/a	n/a	n/a	n/a	n/a	n/a	n/a	n/a	n/a	n/a	n/a	n/a	n/a	n/a	n/a	n/a	n/a	n/a	fixation
310626.88844912662	1100.0	n/a	-1	-1	2750	427.111550873	stim	stop-signal	339	926022	0.0-15.22-1.22	beast_fmri_test	388	923780,/,924459,/,925139,/,925819,/	t,t,t,t	<img class = center src='/static/experiments/beast_fmri_test/images/B.png'></img>	71,89	2750.0	test	<img class = center src='/static/experiments/beast_fmri_test/images/redB.png'></img>	stop	1650.0	2.0	22.0	stop	non-target	B	71,Index Finger	89,Middle Finger	800.0	1100.0	1950.0	1650.0	0.0	1100.0	1.0	n/a	go_stim
