onset	duration	text	rt	key_press	block_duration	timing_post_trial	trial_id	trial_type	trial_index	time_elapsed	internal_node_id	exp_id	subject_id	trigger_times	triggers	stimulus	possible_responses	stim_duration	exp_stage	SS_stimulus	SS_trial_type	SS_duration	load	trial_num	stop_trial_type	adaptive_trial_type	stim	yes_response_key	no_response_key	SSD_target	SSD_non_target	SSTarget	SSNonTarget	go_acc	SS_delay	stop_acc	adaptive_acc	new_trial_type
test	10880	n/a	-1	-1	10880	0.0	practice-no-stop-feedback	poldrack-single-stim	390	1149194	0.0-18.0	beast_fmri_test	388	1138308,/,1138986,/,1139669,/,1140351,/,1141031,/,1141709,/,1142391,/,1143069,/,1143751,/,1144431,/,1145111,/,1145791,/,1146471,/,1147149,/,1147830,/,1148510,/,1149191,/	t,t,t,t,t,t,t,t,t,t,t,t,t,t,t,t,t	"<div class = ""centerbox2_2""><p class = ""block-text2"">Your delay is 2 trials.</p><p class = block-text2>Please wait for the scanner to start the block</p></div>"	77	10880.0	n/a	n/a	n/a	n/a	n/a	n/a	n/a	n/a	n/a	n/a	n/a	n/a	n/a	n/a	n/a	n/a	n/a	n/a	n/a	start_functional_block
11391	500	n/a	-1	-1	500	0.0	fixation	poldrack-single-stim	391	1149699	0.0-19.0-0.0	beast_fmri_test	388	n/a	n/a	<div class = centerbox2><div class = fixation>+</div></div>	none	500.0	test	n/a	n/a	n/a	n/a	n/a	n/a	n/a	n/a	n/a	n/a	n/a	n/a	n/a	n/a	n/a	n/a	n/a	n/a	fixation
10157.859945053235	temp_go_duration	n/a	1907	89	2750	1238.14005495	stim	stop-signal	392	1152454	0.0-19.0-1.0	beast_fmri_test	388	1149874,/,1150555,/,1151235,/,1151914,/,1152594,/,1153274,/	t,t,t,t,t,t	<img class = center src='/static/experiments/beast_fmri_test/images/B.png'></img>	71,89	2750.0	test	<img class = center src='/static/experiments/beast_fmri_test/images/redB.png'></img>	stop	-1.0	2.0	0.0	stop	temp-non-target	B	71,Index Finger	89,Middle Finger	800.0	1100.0	1950.0	1700.0	0.0	n/a	0.0	n/a	go_stim
temp-non-target	temp_stop_duration	n/a	1907	89	2750	1238.14005495	stim	stop-signal	392	1152454	0.0-19.0-1.0	beast_fmri_test	388	1149874,/,1150555,/,1151235,/,1151914,/,1152594,/,1153274,/	t,t,t,t,t,t	<img class = center src='/static/experiments/beast_fmri_test/images/B.png'></img>	71,89	2750.0	test	<img class = center src='/static/experiments/beast_fmri_test/images/redB.png'></img>	stop	-1.0	2.0	0.0	stop	temp-non-target	B	71,Index Finger	89,Middle Finger	800.0	1100.0	1950.0	1700.0	0.0	n/a	0.0	n/a	stop_stim
12907.859945053235	1238.1400549467282	n/a	1907	89	2750	1238.14005495	stim	stop-signal	392	1152454	0.0-19.0-1.0	beast_fmri_test	388	1149874,/,1150555,/,1151235,/,1151914,/,1152594,/,1153274,/	t,t,t,t,t,t	<img class = center src='/static/experiments/beast_fmri_test/images/B.png'></img>	71,89	2750.0	test	<img class = center src='/static/experiments/beast_fmri_test/images/redB.png'></img>	stop	-1.0	2.0	0.0	stop	temp-non-target	B	71,Index Finger	89,Middle Finger	800.0	1100.0	1950.0	1700.0	0.0	n/a	0.0	n/a	ITI
15928	500	n/a	-1	-1	500	0.0	fixation	poldrack-single-stim	393	1154236	0.0-19.1-0.1	beast_fmri_test	388	1153955,/	t	<div class = centerbox2><div class = fixation>+</div></div>	none	500.0	test	n/a	n/a	n/a	n/a	n/a	n/a	n/a	n/a	n/a	n/a	n/a	n/a	n/a	n/a	n/a	n/a	n/a	n/a	fixation
14691.578023605049	2750	n/a	1760	89	2750	1240.42197639	stim	stop-signal	394	1156990	0.0-19.1-1.1	beast_fmri_test	388	1154635,/,1155315,/,1155996,/,1156675,/,1157355,/,1158036,/	t,t,t,t,t,t	<img class = center src='/static/experiments/beast_fmri_test/images/B.png'></img>	71,89	2750.0	test	<img class = center src='/static/experiments/beast_fmri_test/images/redB.png'></img>	go	-1.0	2.0	1.0	go	temp-non-target	B	71,Index Finger	89,Middle Finger	800.0	1100.0	1950.0	1700.0	0.0	n/a	n/a	n/a	go_stim
17441.578023605049	1240.4219763949498	n/a	1760	89	2750	1240.42197639	stim	stop-signal	394	1156990	0.0-19.1-1.1	beast_fmri_test	388	1154635,/,1155315,/,1155996,/,1156675,/,1157355,/,1158036,/	t,t,t,t,t,t	<img class = center src='/static/experiments/beast_fmri_test/images/B.png'></img>	71,89	2750.0	test	<img class = center src='/static/experiments/beast_fmri_test/images/redB.png'></img>	go	-1.0	2.0	1.0	go	temp-non-target	B	71,Index Finger	89,Middle Finger	800.0	1100.0	1950.0	1700.0	0.0	n/a	n/a	n/a	ITI
20466	500	n/a	-1	-1	500	0.0	fixation	poldrack-single-stim	395	1158774	0.0-19.2-0.2	beast_fmri_test	388	1158716,/	t	<div class = centerbox2><div class = fixation>+</div></div>	none	500.0	test	n/a	n/a	n/a	n/a	n/a	n/a	n/a	n/a	n/a	n/a	n/a	n/a	n/a	n/a	n/a	n/a	n/a	n/a	fixation
19671.932109953836	2750	n/a	797	71	2750	801.067890046	stim	stop-signal	396	1161531	0.0-19.2-1.2	beast_fmri_test	388	1159397,/,1160079,/,1160760,/,1161440,/,1162118,/	t,t,t,t,t	<img class = center src='/static/experiments/beast_fmri_test/images/B.png'></img>	71,89	2750.0	test	<img class = center src='/static/experiments/beast_fmri_test/images/redB.png'></img>	go	1950.0	2.0	2.0	go	target	B	71,Index Finger	89,Middle Finger	800.0	1100.0	1950.0	1700.0	1.0	800.0	n/a	1.0	go_stim
22421.932109953836	801.06789004615507	n/a	797	71	2750	801.067890046	stim	stop-signal	396	1161531	0.0-19.2-1.2	beast_fmri_test	388	1159397,/,1160079,/,1160760,/,1161440,/,1162118,/	t,t,t,t,t	<img class = center src='/static/experiments/beast_fmri_test/images/B.png'></img>	71,89	2750.0	test	<img class = center src='/static/experiments/beast_fmri_test/images/redB.png'></img>	go	1950.0	2.0	2.0	go	target	B	71,Index Finger	89,Middle Finger	800.0	1100.0	1950.0	1700.0	1.0	800.0	n/a	1.0	ITI
24568	500	n/a	-1	-1	500	0.0	fixation	poldrack-single-stim	397	1162876	0.0-19.3-0.3	beast_fmri_test	388	1162800,/	t	<div class = centerbox2><div class = fixation>+</div></div>	none	500.0	test	n/a	n/a	n/a	n/a	n/a	n/a	n/a	n/a	n/a	n/a	n/a	n/a	n/a	n/a	n/a	n/a	n/a	n/a	fixation
24086.079495294252	2750	n/a	765	71	2750	484.920504706	stim	stop-signal	398	1165629	0.0-19.3-1.3	beast_fmri_test	388	1163479,/,1164160,/,1164840,/,1165526,/	t,t,t,t	<img class = center src='/static/experiments/beast_fmri_test/images/B.png'></img>	71,89	2750.0	test	<img class = center src='/static/experiments/beast_fmri_test/images/redB.png'></img>	go	1950.0	2.0	3.0	go	target	B	71,Index Finger	89,Middle Finger	800.0	1100.0	1950.0	1700.0	1.0	800.0	n/a	1.0	go_stim
26836.079495294252	484.92050470565522	n/a	765	71	2750	484.920504706	stim	stop-signal	398	1165629	0.0-19.3-1.3	beast_fmri_test	388	1163479,/,1164160,/,1164840,/,1165526,/	t,t,t,t	<img class = center src='/static/experiments/beast_fmri_test/images/B.png'></img>	71,89	2750.0	test	<img class = center src='/static/experiments/beast_fmri_test/images/redB.png'></img>	go	1950.0	2.0	3.0	go	target	B	71,Index Finger	89,Middle Finger	800.0	1100.0	1950.0	1700.0	1.0	800.0	n/a	1.0	ITI
28350	500	n/a	-1	-1	500	0.0	fixation	poldrack-single-stim	399	1166658	0.0-19.4-0.4	beast_fmri_test	388	1166199,/	t	<div class = centerbox2><div class = fixation>+</div></div>	none	500.0	test	n/a	n/a	n/a	n/a	n/a	n/a	n/a	n/a	n/a	n/a	n/a	n/a	n/a	n/a	n/a	n/a	n/a	n/a	fixation
28224.00146614993	2750	n/a	1356	71	2750	129.99853385	stim	stop-signal	400	1169412	0.0-19.4-1.4	beast_fmri_test	388	1166880,/,1167560,/,1168239,/,1168920,/	t,t,t,t	<img class = center src='/static/experiments/beast_fmri_test/images/B.png'></img>	71,89	2750.0	test	<img class = center src='/static/experiments/beast_fmri_test/images/redB.png'></img>	go	1950.0	2.0	4.0	go	target	B	71,Index Finger	89,Middle Finger	800.0	1100.0	1950.0	1700.0	1.0	800.0	n/a	1.0	go_stim
30974.00146614993	129.99853385001026	n/a	1356	71	2750	129.99853385	stim	stop-signal	400	1169412	0.0-19.4-1.4	beast_fmri_test	388	1166880,/,1167560,/,1168239,/,1168920,/	t,t,t,t	<img class = center src='/static/experiments/beast_fmri_test/images/B.png'></img>	71,89	2750.0	test	<img class = center src='/static/experiments/beast_fmri_test/images/redB.png'></img>	go	1950.0	2.0	4.0	go	target	B	71,Index Finger	89,Middle Finger	800.0	1100.0	1950.0	1700.0	1.0	800.0	n/a	1.0	ITI
31781	500	n/a	-1	-1	500	0.0	fixation	poldrack-single-stim	401	1170089	0.0-19.5-0.5	beast_fmri_test	388	1169602,/	t	<div class = centerbox2><div class = fixation>+</div></div>	none	500.0	test	n/a	n/a	n/a	n/a	n/a	n/a	n/a	n/a	n/a	n/a	n/a	n/a	n/a	n/a	n/a	n/a	n/a	n/a	fixation
31777.797767827054	800.0	n/a	-1	-1	2750	7.20223217298	stim	stop-signal	402	1172843	0.0-19.5-1.5	beast_fmri_test	388	1170284,/,1170964,/,1171644,/,1172324,/	t,t,t,t	<img class = center src='/static/experiments/beast_fmri_test/images/B.png'></img>	71,89	2750.0	test	<img class = center src='/static/experiments/beast_fmri_test/images/redB.png'></img>	stop	1950.0	2.0	5.0	stop	target	B	71,Index Finger	89,Middle Finger	800.0	1100.0	1950.0	1700.0	0.0	800.0	1.0	n/a	go_stim
33727.797767827054	1950.0	n/a	-1	-1	2750	7.20223217298	stim	stop-signal	402	1172843	0.0-19.5-1.5	beast_fmri_test	388	1170284,/,1170964,/,1171644,/,1172324,/	t,t,t,t	<img class = center src='/static/experiments/beast_fmri_test/images/B.png'></img>	71,89	2750.0	test	<img class = center src='/static/experiments/beast_fmri_test/images/redB.png'></img>	stop	1950.0	2.0	5.0	stop	target	B	71,Index Finger	89,Middle Finger	800.0	1100.0	1950.0	1700.0	0.0	800.0	1.0	n/a	stop_stim
34527.797767827054	7.2022321729766396	n/a	-1	-1	2750	7.20223217298	stim	stop-signal	402	1172843	0.0-19.5-1.5	beast_fmri_test	388	1170284,/,1170964,/,1171644,/,1172324,/	t,t,t,t	<img class = center src='/static/experiments/beast_fmri_test/images/B.png'></img>	71,89	2750.0	test	<img class = center src='/static/experiments/beast_fmri_test/images/redB.png'></img>	stop	1950.0	2.0	5.0	stop	target	B	71,Index Finger	89,Middle Finger	800.0	1100.0	1950.0	1700.0	0.0	800.0	1.0	n/a	ITI
35086	500	n/a	-1	-1	500	0.0	fixation	poldrack-single-stim	403	1173394	0.0-19.6-0.6	beast_fmri_test	388	1173004,/	t	<div class = centerbox2><div class = fixation>+</div></div>	none	500.0	test	n/a	n/a	n/a	n/a	n/a	n/a	n/a	n/a	n/a	n/a	n/a	n/a	n/a	n/a	n/a	n/a	n/a	n/a	fixation
34676.422026043292	850.0	n/a	608	71	2750	412.577973957	stim	stop-signal	404	1176147	0.0-19.6-1.6	beast_fmri_test	388	1173684,/,1174364,/,1175044,/,1175723,/,1176403,/	t,t,t,t,t	<img class = center src='/static/experiments/beast_fmri_test/images/B.png'></img>	71,89	2750.0	test	<img class = center src='/static/experiments/beast_fmri_test/images/redB.png'></img>	stop	1900.0	2.0	6.0	stop	target	B	71,Index Finger	89,Middle Finger	850.0	1100.0	1900.0	1700.0	0.0	850.0	0.0	n/a	go_stim
36576.422026043292	1900.0	n/a	608	71	2750	412.577973957	stim	stop-signal	404	1176147	0.0-19.6-1.6	beast_fmri_test	388	1173684,/,1174364,/,1175044,/,1175723,/,1176403,/	t,t,t,t,t	<img class = center src='/static/experiments/beast_fmri_test/images/B.png'></img>	71,89	2750.0	test	<img class = center src='/static/experiments/beast_fmri_test/images/redB.png'></img>	stop	1900.0	2.0	6.0	stop	target	B	71,Index Finger	89,Middle Finger	850.0	1100.0	1900.0	1700.0	0.0	850.0	0.0	n/a	stop_stim
37426.422026043292	412.57797395668388	n/a	608	71	2750	412.577973957	stim	stop-signal	404	1176147	0.0-19.6-1.6	beast_fmri_test	388	1173684,/,1174364,/,1175044,/,1175723,/,1176403,/	t,t,t,t,t	<img class = center src='/static/experiments/beast_fmri_test/images/B.png'></img>	71,89	2750.0	test	<img class = center src='/static/experiments/beast_fmri_test/images/redB.png'></img>	stop	1900.0	2.0	6.0	stop	target	B	71,Index Finger	89,Middle Finger	850.0	1100.0	1900.0	1700.0	0.0	850.0	0.0	n/a	ITI
38795	500	n/a	-1	-1	500	0.0	fixation	poldrack-single-stim	405	1177103	0.0-19.7-0.7	beast_fmri_test	388	1177084,/	t	<div class = centerbox2><div class = fixation>+</div></div>	none	500.0	test	n/a	n/a	n/a	n/a	n/a	n/a	n/a	n/a	n/a	n/a	n/a	n/a	n/a	n/a	n/a	n/a	n/a	n/a	fixation
38166.26171745942	2750	n/a	1004	89	2750	631.73828254	stim	stop-signal	406	1179856	0.0-19.7-1.7	beast_fmri_test	388	1177764,/,1178443,/,1179124,/,1179804,/,1180485,/	t,t,t,t,t	<img class = center src='/static/experiments/beast_fmri_test/images/D.png'></img>	71,89	2750.0	test	<img class = center src='/static/experiments/beast_fmri_test/images/redD.png'></img>	go	1650.0	2.0	7.0	go	non-target	D	71,Index Finger	89,Middle Finger	800.0	1100.0	1900.0	1650.0	1.0	1100.0	n/a	1.0	go_stim
40916.26171745942	631.73828254047908	n/a	1004	89	2750	631.73828254	stim	stop-signal	406	1179856	0.0-19.7-1.7	beast_fmri_test	388	1177764,/,1178443,/,1179124,/,1179804,/,1180485,/	t,t,t,t,t	<img class = center src='/static/experiments/beast_fmri_test/images/D.png'></img>	71,89	2750.0	test	<img class = center src='/static/experiments/beast_fmri_test/images/redD.png'></img>	go	1650.0	2.0	7.0	go	non-target	D	71,Index Finger	89,Middle Finger	800.0	1100.0	1900.0	1650.0	1.0	1100.0	n/a	1.0	ITI
42725	500	n/a	-1	-1	500	0.0	fixation	poldrack-single-stim	407	1181033	0.0-19.8-0.8	beast_fmri_test	388	n/a	n/a	<div class = centerbox2><div class = fixation>+</div></div>	none	500.0	test	n/a	n/a	n/a	n/a	n/a	n/a	n/a	n/a	n/a	n/a	n/a	n/a	n/a	n/a	n/a	n/a	n/a	n/a	fixation
42357.889797883574	2750	n/a	1096	89	2750	371.110202116	stim	stop-signal	408	1183787	0.0-19.8-1.8	beast_fmri_test	388	1181165,/,1181844,/,1182524,/,1183204,/,1183885,/	t,t,t,t,t	<img class = center src='/static/experiments/beast_fmri_test/images/V.png'></img>	71,89	2750.0	test	<img class = center src='/static/experiments/beast_fmri_test/images/redV.png'></img>	go	1650.0	2.0	8.0	go	non-target	V	71,Index Finger	89,Middle Finger	800.0	1100.0	1900.0	1650.0	1.0	1100.0	n/a	1.0	go_stim
45107.889797883574	371.11020211649077	n/a	1096	89	2750	371.110202116	stim	stop-signal	408	1183787	0.0-19.8-1.8	beast_fmri_test	388	1181165,/,1181844,/,1182524,/,1183204,/,1183885,/	t,t,t,t,t	<img class = center src='/static/experiments/beast_fmri_test/images/V.png'></img>	71,89	2750.0	test	<img class = center src='/static/experiments/beast_fmri_test/images/redV.png'></img>	go	1650.0	2.0	8.0	go	non-target	V	71,Index Finger	89,Middle Finger	800.0	1100.0	1900.0	1650.0	1.0	1100.0	n/a	1.0	ITI
46392	500	n/a	-1	-1	500	0.0	fixation	poldrack-single-stim	409	1184700	0.0-19.9-0.9	beast_fmri_test	388	1184565,/	t	<div class = centerbox2><div class = fixation>+</div></div>	none	500.0	test	n/a	n/a	n/a	n/a	n/a	n/a	n/a	n/a	n/a	n/a	n/a	n/a	n/a	n/a	n/a	n/a	n/a	n/a	fixation
44331.091913059354	2750	n/a	1198	89	2750	2063.90808694	stim	stop-signal	410	1187453	0.0-19.9-1.9	beast_fmri_test	388	1185245,/,1185927,/,1186605,/,1187284,/,1187965,/,1188645,/,1189325,/	t,t,t,t,t,t,t	<img class = center src='/static/experiments/beast_fmri_test/images/B.png'></img>	71,89	2750.0	test	<img class = center src='/static/experiments/beast_fmri_test/images/redB.png'></img>	go	1650.0	2.0	9.0	go	non-target	B	71,Index Finger	89,Middle Finger	800.0	1100.0	1900.0	1650.0	1.0	1100.0	n/a	1.0	go_stim
47081.091913059354	2063.9080869406207	n/a	1198	89	2750	2063.90808694	stim	stop-signal	410	1187453	0.0-19.9-1.9	beast_fmri_test	388	1185245,/,1185927,/,1186605,/,1187284,/,1187965,/,1188645,/,1189325,/	t,t,t,t,t,t,t	<img class = center src='/static/experiments/beast_fmri_test/images/B.png'></img>	71,89	2750.0	test	<img class = center src='/static/experiments/beast_fmri_test/images/redB.png'></img>	go	1650.0	2.0	9.0	go	non-target	B	71,Index Finger	89,Middle Finger	800.0	1100.0	1900.0	1650.0	1.0	1100.0	n/a	1.0	ITI
51755	500	n/a	-1	-1	500	0.0	fixation	poldrack-single-stim	411	1190063	0.0-19.10-0.10	beast_fmri_test	388	1190009,/	t	<div class = centerbox2><div class = fixation>+</div></div>	none	500.0	test	n/a	n/a	n/a	n/a	n/a	n/a	n/a	n/a	n/a	n/a	n/a	n/a	n/a	n/a	n/a	n/a	n/a	n/a	fixation
51300.877824711381	1100.0	n/a	1412	89	2750	457.122175289	stim	stop-signal	412	1192816	0.0-19.10-1.10	beast_fmri_test	388	1190689,/,1191369,/,1192049,/,1192729,/	t,t,t,t	<img class = center src='/static/experiments/beast_fmri_test/images/D.png'></img>	71,89	2750.0	test	<img class = center src='/static/experiments/beast_fmri_test/images/redD.png'></img>	stop	1650.0	2.0	10.0	stop	non-target	D	71,Index Finger	89,Middle Finger	800.0	1100.0	1900.0	1650.0	0.0	1100.0	0.0	n/a	go_stim
52950.877824711381	1650.0	n/a	1412	89	2750	457.122175289	stim	stop-signal	412	1192816	0.0-19.10-1.10	beast_fmri_test	388	1190689,/,1191369,/,1192049,/,1192729,/	t,t,t,t	<img class = center src='/static/experiments/beast_fmri_test/images/D.png'></img>	71,89	2750.0	test	<img class = center src='/static/experiments/beast_fmri_test/images/redD.png'></img>	stop	1650.0	2.0	10.0	stop	non-target	D	71,Index Finger	89,Middle Finger	800.0	1100.0	1900.0	1650.0	0.0	1100.0	0.0	n/a	stop_stim
54050.877824711381	457.12217528862038	n/a	1412	89	2750	457.122175289	stim	stop-signal	412	1192816	0.0-19.10-1.10	beast_fmri_test	388	1190689,/,1191369,/,1192049,/,1192729,/	t,t,t,t	<img class = center src='/static/experiments/beast_fmri_test/images/D.png'></img>	71,89	2750.0	test	<img class = center src='/static/experiments/beast_fmri_test/images/redD.png'></img>	stop	1650.0	2.0	10.0	stop	non-target	D	71,Index Finger	89,Middle Finger	800.0	1100.0	1900.0	1650.0	0.0	1100.0	0.0	n/a	ITI
55509	500	n/a	-1	-1	500	0.0	fixation	poldrack-single-stim	413	1193817	0.0-19.11-0.11	beast_fmri_test	388	1193409,/	t	<div class = centerbox2><div class = fixation>+</div></div>	none	500.0	test	n/a	n/a	n/a	n/a	n/a	n/a	n/a	n/a	n/a	n/a	n/a	n/a	n/a	n/a	n/a	n/a	n/a	n/a	fixation
55337.726504585007	800.0	n/a	-1	-1	2750	175.273495415	stim	stop-signal	414	1196571	0.0-19.11-1.11	beast_fmri_test	388	1194088,/,1194769,/,1195449,/,1196128,/	t,t,t,t	<img class = center src='/static/experiments/beast_fmri_test/images/B.png'></img>	71,89	2750.0	test	<img class = center src='/static/experiments/beast_fmri_test/images/redB.png'></img>	stop	1950.0	2.0	11.0	stop	target	B	71,Index Finger	89,Middle Finger	800.0	1050.0	1950.0	1650.0	0.0	800.0	1.0	n/a	go_stim
57287.726504585007	1950.0	n/a	-1	-1	2750	175.273495415	stim	stop-signal	414	1196571	0.0-19.11-1.11	beast_fmri_test	388	1194088,/,1194769,/,1195449,/,1196128,/	t,t,t,t	<img class = center src='/static/experiments/beast_fmri_test/images/B.png'></img>	71,89	2750.0	test	<img class = center src='/static/experiments/beast_fmri_test/images/redB.png'></img>	stop	1950.0	2.0	11.0	stop	target	B	71,Index Finger	89,Middle Finger	800.0	1050.0	1950.0	1650.0	0.0	800.0	1.0	n/a	stop_stim
58087.726504585007	175.27349541493314	n/a	-1	-1	2750	175.273495415	stim	stop-signal	414	1196571	0.0-19.11-1.11	beast_fmri_test	388	1194088,/,1194769,/,1195449,/,1196128,/	t,t,t,t	<img class = center src='/static/experiments/beast_fmri_test/images/B.png'></img>	71,89	2750.0	test	<img class = center src='/static/experiments/beast_fmri_test/images/redB.png'></img>	stop	1950.0	2.0	11.0	stop	target	B	71,Index Finger	89,Middle Finger	800.0	1050.0	1950.0	1650.0	0.0	800.0	1.0	n/a	ITI
58989	500	n/a	-1	-1	500	0.0	fixation	poldrack-single-stim	415	1197297	0.0-19.12-0.12	beast_fmri_test	388	1196809,/	t	<div class = centerbox2><div class = fixation>+</div></div>	none	500.0	test	n/a	n/a	n/a	n/a	n/a	n/a	n/a	n/a	n/a	n/a	n/a	n/a	n/a	n/a	n/a	n/a	n/a	n/a	fixation
57712.079425485572	2750	n/a	1191	71	2750	1282.92057451	stim	stop-signal	416	1200053	0.0-19.12-1.12	beast_fmri_test	388	1197489,/,1198169,/,1198848,/,1199530,/,1200213,/,1200893,/	t,t,t,t,t,t	<img class = center src='/static/experiments/beast_fmri_test/images/D.png'></img>	71,89	2750.0	test	<img class = center src='/static/experiments/beast_fmri_test/images/redD.png'></img>	go	1900.0	2.0	12.0	go	target	D	71,Index Finger	89,Middle Finger	850.0	1050.0	1900.0	1650.0	1.0	850.0	n/a	1.0	go_stim
60462.079425485572	1282.9205745143634	n/a	1191	71	2750	1282.92057451	stim	stop-signal	416	1200053	0.0-19.12-1.12	beast_fmri_test	388	1197489,/,1198169,/,1198848,/,1199530,/,1200213,/,1200893,/	t,t,t,t,t,t	<img class = center src='/static/experiments/beast_fmri_test/images/D.png'></img>	71,89	2750.0	test	<img class = center src='/static/experiments/beast_fmri_test/images/redD.png'></img>	go	1900.0	2.0	12.0	go	target	D	71,Index Finger	89,Middle Finger	850.0	1050.0	1900.0	1650.0	1.0	850.0	n/a	1.0	ITI
63572	500	n/a	-1	-1	500	0.0	fixation	poldrack-single-stim	417	1201880	0.0-19.13-0.13	beast_fmri_test	388	1201573,/	t	<div class = centerbox2><div class = fixation>+</div></div>	none	500.0	test	n/a	n/a	n/a	n/a	n/a	n/a	n/a	n/a	n/a	n/a	n/a	n/a	n/a	n/a	n/a	n/a	n/a	n/a	fixation
63562.215774360811	2750	n/a	1208	89	2750	11.7842256391	stim	stop-signal	418	1204632	0.0-19.13-1.13	beast_fmri_test	388	1202254,/,1202933,/,1203613,/,1204292,/	t,t,t,t	<img class = center src='/static/experiments/beast_fmri_test/images/T.png'></img>	71,89	2750.0	test	<img class = center src='/static/experiments/beast_fmri_test/images/redT.png'></img>	go	1700.0	2.0	13.0	go	non-target	T	71,Index Finger	89,Middle Finger	850.0	1050.0	1900.0	1700.0	1.0	1050.0	n/a	1.0	go_stim
66312.215774360811	11.784225639075293	n/a	1208	89	2750	11.7842256391	stim	stop-signal	418	1204632	0.0-19.13-1.13	beast_fmri_test	388	1202254,/,1202933,/,1203613,/,1204292,/	t,t,t,t	<img class = center src='/static/experiments/beast_fmri_test/images/T.png'></img>	71,89	2750.0	test	<img class = center src='/static/experiments/beast_fmri_test/images/redT.png'></img>	go	1700.0	2.0	13.0	go	non-target	T	71,Index Finger	89,Middle Finger	850.0	1050.0	1900.0	1700.0	1.0	1050.0	n/a	1.0	ITI
66892	500	n/a	-1	-1	500	0.0	fixation	poldrack-single-stim	419	1205200	0.0-19.14-0.14	beast_fmri_test	388	1204974,/	t	<div class = centerbox2><div class = fixation>+</div></div>	none	500.0	test	n/a	n/a	n/a	n/a	n/a	n/a	n/a	n/a	n/a	n/a	n/a	n/a	n/a	n/a	n/a	n/a	n/a	n/a	fixation
66574.457066431176	2750	n/a	1156	89	2750	322.542933569	stim	stop-signal	420	1207955	0.0-19.14-1.14	beast_fmri_test	388	1205656,/,1206337,/,1207017,/,1207697,/	t,t,t,t	<img class = center src='/static/experiments/beast_fmri_test/images/V.png'></img>	71,89	2750.0	test	<img class = center src='/static/experiments/beast_fmri_test/images/redV.png'></img>	go	1700.0	2.0	14.0	go	non-target	V	71,Index Finger	89,Middle Finger	850.0	1050.0	1900.0	1700.0	1.0	1050.0	n/a	1.0	go_stim
69324.457066431176	322.54293356881311	n/a	1156	89	2750	322.542933569	stim	stop-signal	420	1207955	0.0-19.14-1.14	beast_fmri_test	388	1205656,/,1206337,/,1207017,/,1207697,/	t,t,t,t	<img class = center src='/static/experiments/beast_fmri_test/images/V.png'></img>	71,89	2750.0	test	<img class = center src='/static/experiments/beast_fmri_test/images/redV.png'></img>	go	1700.0	2.0	14.0	go	non-target	V	71,Index Finger	89,Middle Finger	850.0	1050.0	1900.0	1700.0	1.0	1050.0	n/a	1.0	ITI
70518	500	n/a	-1	-1	500	0.0	fixation	poldrack-single-stim	421	1208826	0.0-19.15-0.15	beast_fmri_test	388	1208377,/	t	<div class = centerbox2><div class = fixation>+</div></div>	none	500.0	test	n/a	n/a	n/a	n/a	n/a	n/a	n/a	n/a	n/a	n/a	n/a	n/a	n/a	n/a	n/a	n/a	n/a	n/a	fixation
69398.637326373719	1050.0	n/a	-1	-1	2750	1121.36267363	stim	stop-signal	422	1211578	0.0-19.15-1.15	beast_fmri_test	388	1209059,/,1209737,/,1210417,/,1211096,/,1211778,/,1212457,/	t,t,t,t,t,t	<img class = center src='/static/experiments/beast_fmri_test/images/B.png'></img>	71,89	2750.0	test	<img class = center src='/static/experiments/beast_fmri_test/images/redB.png'></img>	stop	1700.0	2.0	15.0	stop	non-target	B	71,Index Finger	89,Middle Finger	850.0	1050.0	1900.0	1700.0	0.0	1050.0	1.0	n/a	go_stim
71098.637326373719	1700.0	n/a	-1	-1	2750	1121.36267363	stim	stop-signal	422	1211578	0.0-19.15-1.15	beast_fmri_test	388	1209059,/,1209737,/,1210417,/,1211096,/,1211778,/,1212457,/	t,t,t,t,t,t	<img class = center src='/static/experiments/beast_fmri_test/images/B.png'></img>	71,89	2750.0	test	<img class = center src='/static/experiments/beast_fmri_test/images/redB.png'></img>	stop	1700.0	2.0	15.0	stop	non-target	B	71,Index Finger	89,Middle Finger	850.0	1050.0	1900.0	1700.0	0.0	1050.0	1.0	n/a	stop_stim
72148.637326373719	1121.3626736262968	n/a	-1	-1	2750	1121.36267363	stim	stop-signal	422	1211578	0.0-19.15-1.15	beast_fmri_test	388	1209059,/,1209737,/,1210417,/,1211096,/,1211778,/,1212457,/	t,t,t,t,t,t	<img class = center src='/static/experiments/beast_fmri_test/images/B.png'></img>	71,89	2750.0	test	<img class = center src='/static/experiments/beast_fmri_test/images/redB.png'></img>	stop	1700.0	2.0	15.0	stop	non-target	B	71,Index Finger	89,Middle Finger	850.0	1050.0	1900.0	1700.0	0.0	1050.0	1.0	n/a	ITI
74942	500	n/a	-1	-1	500	0.0	fixation	poldrack-single-stim	423	1213250	0.0-19.16-0.16	beast_fmri_test	388	1213138,/	t	<div class = centerbox2><div class = fixation>+</div></div>	none	500.0	test	n/a	n/a	n/a	n/a	n/a	n/a	n/a	n/a	n/a	n/a	n/a	n/a	n/a	n/a	n/a	n/a	n/a	n/a	fixation
73967.124783423496	1100.0	n/a	-1	-1	2750	977.875216577	stim	stop-signal	424	1216003	0.0-19.16-1.16	beast_fmri_test	388	1213818,/,1214497,/,1215178,/,1215858,/,1216540,/	t,t,t,t,t	<img class = center src='/static/experiments/beast_fmri_test/images/P.png'></img>	71,89	2750.0	test	<img class = center src='/static/experiments/beast_fmri_test/images/redP.png'></img>	stop	1650.0	2.0	16.0	stop	non-target	P	71,Index Finger	89,Middle Finger	850.0	1100.0	1900.0	1650.0	0.0	1100.0	1.0	n/a	go_stim
75617.124783423496	1650.0	n/a	-1	-1	2750	977.875216577	stim	stop-signal	424	1216003	0.0-19.16-1.16	beast_fmri_test	388	1213818,/,1214497,/,1215178,/,1215858,/,1216540,/	t,t,t,t,t	<img class = center src='/static/experiments/beast_fmri_test/images/P.png'></img>	71,89	2750.0	test	<img class = center src='/static/experiments/beast_fmri_test/images/redP.png'></img>	stop	1650.0	2.0	16.0	stop	non-target	P	71,Index Finger	89,Middle Finger	850.0	1100.0	1900.0	1650.0	0.0	1100.0	1.0	n/a	stop_stim
76717.124783423496	977.87521657658203	n/a	-1	-1	2750	977.875216577	stim	stop-signal	424	1216003	0.0-19.16-1.16	beast_fmri_test	388	1213818,/,1214497,/,1215178,/,1215858,/,1216540,/	t,t,t,t,t	<img class = center src='/static/experiments/beast_fmri_test/images/P.png'></img>	71,89	2750.0	test	<img class = center src='/static/experiments/beast_fmri_test/images/redP.png'></img>	stop	1650.0	2.0	16.0	stop	non-target	P	71,Index Finger	89,Middle Finger	850.0	1100.0	1900.0	1650.0	0.0	1100.0	1.0	n/a	ITI
79223	500	n/a	-1	-1	500	0.0	fixation	poldrack-single-stim	425	1217531	0.0-19.17-0.17	beast_fmri_test	388	1217221,/	t	<div class = centerbox2><div class = fixation>+</div></div>	none	500.0	test	n/a	n/a	n/a	n/a	n/a	n/a	n/a	n/a	n/a	n/a	n/a	n/a	n/a	n/a	n/a	n/a	n/a	n/a	fixation
77632.195261696354	1150.0	n/a	-1	-1	2750	1593.8047383	stim	stop-signal	426	1220284	0.0-19.17-1.17	beast_fmri_test	388	1217902,/,1218582,/,1219262,/,1219942,/,1220622,/,1221302,/	t,t,t,t,t,t	<img class = center src='/static/experiments/beast_fmri_test/images/D.png'></img>	71,89	2750.0	test	<img class = center src='/static/experiments/beast_fmri_test/images/redD.png'></img>	stop	1600.0	2.0	17.0	stop	non-target	D	71,Index Finger	89,Middle Finger	850.0	1150.0	1900.0	1600.0	0.0	1150.0	1.0	n/a	go_stim
79232.195261696354	1600.0	n/a	-1	-1	2750	1593.8047383	stim	stop-signal	426	1220284	0.0-19.17-1.17	beast_fmri_test	388	1217902,/,1218582,/,1219262,/,1219942,/,1220622,/,1221302,/	t,t,t,t,t,t	<img class = center src='/static/experiments/beast_fmri_test/images/D.png'></img>	71,89	2750.0	test	<img class = center src='/static/experiments/beast_fmri_test/images/redD.png'></img>	stop	1600.0	2.0	17.0	stop	non-target	D	71,Index Finger	89,Middle Finger	850.0	1150.0	1900.0	1600.0	0.0	1150.0	1.0	n/a	stop_stim
80382.195261696354	1593.8047383036669	n/a	-1	-1	2750	1593.8047383	stim	stop-signal	426	1220284	0.0-19.17-1.17	beast_fmri_test	388	1217902,/,1218582,/,1219262,/,1219942,/,1220622,/,1221302,/	t,t,t,t,t,t	<img class = center src='/static/experiments/beast_fmri_test/images/D.png'></img>	71,89	2750.0	test	<img class = center src='/static/experiments/beast_fmri_test/images/redD.png'></img>	stop	1600.0	2.0	17.0	stop	non-target	D	71,Index Finger	89,Middle Finger	850.0	1150.0	1900.0	1600.0	0.0	1150.0	1.0	n/a	ITI
84118	500	n/a	-1	-1	500	0.0	fixation	poldrack-single-stim	427	1222426	0.0-19.18-0.18	beast_fmri_test	388	1221982,/	t	<div class = centerbox2><div class = fixation>+</div></div>	none	500.0	test	n/a	n/a	n/a	n/a	n/a	n/a	n/a	n/a	n/a	n/a	n/a	n/a	n/a	n/a	n/a	n/a	n/a	n/a	fixation
83743.867579864338	2750	n/a	1326	71	2750	377.132420136	stim	stop-signal	428	1225179	0.0-19.18-1.18	beast_fmri_test	388	1222662,/,1223342,/,1224020,/,1224702,/,1225381,/	t,t,t,t,t	<img class = center src='/static/experiments/beast_fmri_test/images/P.png'></img>	71,89	2750.0	test	<img class = center src='/static/experiments/beast_fmri_test/images/redP.png'></img>	go	1900.0	2.0	18.0	go	target	P	71,Index Finger	89,Middle Finger	850.0	1200.0	1900.0	1600.0	1.0	850.0	n/a	1.0	go_stim
86493.867579864338	377.13242013564047	n/a	1326	71	2750	377.132420136	stim	stop-signal	428	1225179	0.0-19.18-1.18	beast_fmri_test	388	1222662,/,1223342,/,1224020,/,1224702,/,1225381,/	t,t,t,t,t	<img class = center src='/static/experiments/beast_fmri_test/images/P.png'></img>	71,89	2750.0	test	<img class = center src='/static/experiments/beast_fmri_test/images/redP.png'></img>	go	1900.0	2.0	18.0	go	target	P	71,Index Finger	89,Middle Finger	850.0	1200.0	1900.0	1600.0	1.0	850.0	n/a	1.0	ITI
87797	500	n/a	-1	-1	500	0.0	fixation	poldrack-single-stim	429	1226105	0.0-19.19-0.19	beast_fmri_test	388	1226062,/	t	<div class = centerbox2><div class = fixation>+</div></div>	none	500.0	test	n/a	n/a	n/a	n/a	n/a	n/a	n/a	n/a	n/a	n/a	n/a	n/a	n/a	n/a	n/a	n/a	n/a	n/a	fixation
87713.706428355305	2750	n/a	1444	89	2750	87.2935716447	stim	stop-signal	430	1228859	0.0-19.19-1.19	beast_fmri_test	388	1226742,/,1227421,/,1228102,/,1228782,/	t,t,t,t	<img class = center src='/static/experiments/beast_fmri_test/images/P.png'></img>	71,89	2750.0	test	<img class = center src='/static/experiments/beast_fmri_test/images/redP.png'></img>	go	1550.0	2.0	19.0	go	non-target	P	71,Index Finger	89,Middle Finger	850.0	1200.0	1900.0	1550.0	1.0	1200.0	n/a	1.0	go_stim
90463.706428355305	87.293571644652843	n/a	1444	89	2750	87.2935716447	stim	stop-signal	430	1228859	0.0-19.19-1.19	beast_fmri_test	388	1226742,/,1227421,/,1228102,/,1228782,/	t,t,t,t	<img class = center src='/static/experiments/beast_fmri_test/images/P.png'></img>	71,89	2750.0	test	<img class = center src='/static/experiments/beast_fmri_test/images/redP.png'></img>	go	1550.0	2.0	19.0	go	non-target	P	71,Index Finger	89,Middle Finger	850.0	1200.0	1900.0	1550.0	1.0	1200.0	n/a	1.0	ITI
91194	500	n/a	-1	-1	500	0.0	fixation	poldrack-single-stim	431	1229502	0.0-19.20-0.20	beast_fmri_test	388	1229463,/	t	<div class = centerbox2><div class = fixation>+</div></div>	none	500.0	test	n/a	n/a	n/a	n/a	n/a	n/a	n/a	n/a	n/a	n/a	n/a	n/a	n/a	n/a	n/a	n/a	n/a	n/a	fixation
90918.492905776715	2750	n/a	1374	71	2750	281.507094223	stim	stop-signal	432	1232258	0.0-19.20-1.20	beast_fmri_test	388	1230145,/,1230826,/,1231506,/,1232186,/	t,t,t,t	<img class = center src='/static/experiments/beast_fmri_test/images/P.png'></img>	71,89	2750.0	test	<img class = center src='/static/experiments/beast_fmri_test/images/redP.png'></img>	go	1900.0	2.0	20.0	go	target	P	71,Index Finger	89,Middle Finger	850.0	1200.0	1900.0	1550.0	1.0	850.0	n/a	1.0	go_stim
93668.492905776715	281.50709422320062	n/a	1374	71	2750	281.507094223	stim	stop-signal	432	1232258	0.0-19.20-1.20	beast_fmri_test	388	1230145,/,1230826,/,1231506,/,1232186,/	t,t,t,t	<img class = center src='/static/experiments/beast_fmri_test/images/P.png'></img>	71,89	2750.0	test	<img class = center src='/static/experiments/beast_fmri_test/images/redP.png'></img>	go	1900.0	2.0	20.0	go	target	P	71,Index Finger	89,Middle Finger	850.0	1200.0	1900.0	1550.0	1.0	850.0	n/a	1.0	ITI
94778	500	n/a	-1	-1	500	0.0	fixation	poldrack-single-stim	433	1233086	0.0-19.21-0.21	beast_fmri_test	388	1232866,/	t	<div class = centerbox2><div class = fixation>+</div></div>	none	500.0	test	n/a	n/a	n/a	n/a	n/a	n/a	n/a	n/a	n/a	n/a	n/a	n/a	n/a	n/a	n/a	n/a	n/a	n/a	fixation
93583.198988679564	2750	n/a	1412	89	2750	1198.80101132	stim	stop-signal	434	1235840	0.0-19.21-1.21	beast_fmri_test	388	1233546,/,1234227,/,1234907,/,1235586,/,1236266,/,1236947,/	t,t,t,t,t,t	<img class = center src='/static/experiments/beast_fmri_test/images/B.png'></img>	71,89	2750.0	test	<img class = center src='/static/experiments/beast_fmri_test/images/redB.png'></img>	go	1550.0	2.0	21.0	go	non-target	B	71,Index Finger	89,Middle Finger	850.0	1200.0	1900.0	1550.0	1.0	1200.0	n/a	1.0	go_stim
96333.198988679564	1198.8010113204614	n/a	1412	89	2750	1198.80101132	stim	stop-signal	434	1235840	0.0-19.21-1.21	beast_fmri_test	388	1233546,/,1234227,/,1234907,/,1235586,/,1236266,/,1236947,/	t,t,t,t,t,t	<img class = center src='/static/experiments/beast_fmri_test/images/B.png'></img>	71,89	2750.0	test	<img class = center src='/static/experiments/beast_fmri_test/images/redB.png'></img>	go	1550.0	2.0	21.0	go	non-target	B	71,Index Finger	89,Middle Finger	850.0	1200.0	1900.0	1550.0	1.0	1200.0	n/a	1.0	ITI
99282	500	n/a	-1	-1	500	0.0	fixation	poldrack-single-stim	435	1237590	0.0-19.22-0.22	beast_fmri_test	388	n/a	n/a	<div class = centerbox2><div class = fixation>+</div></div>	none	500.0	test	n/a	n/a	n/a	n/a	n/a	n/a	n/a	n/a	n/a	n/a	n/a	n/a	n/a	n/a	n/a	n/a	n/a	n/a	fixation
99277.006086817477	2750	n/a	1570	89	2750	9.99391318244	stim	stop-signal	436	1240345	0.0-19.22-1.22	beast_fmri_test	388	1237628,/,1238307,/,1238988,/,1239666,/,1240347,/	t,t,t,t,t	<img class = center src='/static/experiments/beast_fmri_test/images/V.png'></img>	71,89	2750.0	test	<img class = center src='/static/experiments/beast_fmri_test/images/redV.png'></img>	go	1550.0	2.0	22.0	go	non-target	V	71,Index Finger	89,Middle Finger	850.0	1200.0	1900.0	1550.0	1.0	1200.0	n/a	1.0	go_stim
102027.00608681748	9.9939131824415153	n/a	1570	89	2750	9.99391318244	stim	stop-signal	436	1240345	0.0-19.22-1.22	beast_fmri_test	388	1237628,/,1238307,/,1238988,/,1239666,/,1240347,/	t,t,t,t,t	<img class = center src='/static/experiments/beast_fmri_test/images/V.png'></img>	71,89	2750.0	test	<img class = center src='/static/experiments/beast_fmri_test/images/redV.png'></img>	go	1550.0	2.0	22.0	go	non-target	V	71,Index Finger	89,Middle Finger	850.0	1200.0	1900.0	1550.0	1.0	1200.0	n/a	1.0	ITI
102598	500	n/a	-1	-1	500	0.0	fixation	poldrack-single-stim	437	1240906	0.0-19.23-0.23	beast_fmri_test	388	n/a	n/a	<div class = centerbox2><div class = fixation>+</div></div>	none	500.0	test	n/a	n/a	n/a	n/a	n/a	n/a	n/a	n/a	n/a	n/a	n/a	n/a	n/a	n/a	n/a	n/a	n/a	n/a	fixation
102210.58275989187	2750	n/a	1975	89	2750	392.417240108	stim	stop-signal	438	1243661	0.0-19.23-1.23	beast_fmri_test	388	1241027,/,1241707,/,1242388,/,1243067,/,1243747,/	t,t,t,t,t	<img class = center src='/static/experiments/beast_fmri_test/images/V.png'></img>	71,89	2750.0	test	<img class = center src='/static/experiments/beast_fmri_test/images/redV.png'></img>	go	1550.0	2.0	23.0	go	non-target	V	71,Index Finger	89,Middle Finger	850.0	1200.0	1900.0	1550.0	1.0	1200.0	n/a	1.0	go_stim
104960.58275989187	392.41724010814863	n/a	1975	89	2750	392.417240108	stim	stop-signal	438	1243661	0.0-19.23-1.23	beast_fmri_test	388	1241027,/,1241707,/,1242388,/,1243067,/,1243747,/	t,t,t,t,t	<img class = center src='/static/experiments/beast_fmri_test/images/V.png'></img>	71,89	2750.0	test	<img class = center src='/static/experiments/beast_fmri_test/images/redV.png'></img>	go	1550.0	2.0	23.0	go	non-target	V	71,Index Finger	89,Middle Finger	850.0	1200.0	1900.0	1550.0	1.0	1200.0	n/a	1.0	ITI
106292	500	n/a	-1	-1	500	0.0	fixation	poldrack-single-stim	439	1244600	0.0-19.24-0.24	beast_fmri_test	388	1244429,/	t	<div class = centerbox2><div class = fixation>+</div></div>	none	500.0	test	n/a	n/a	n/a	n/a	n/a	n/a	n/a	n/a	n/a	n/a	n/a	n/a	n/a	n/a	n/a	n/a	n/a	n/a	fixation
103817.86243229662	1200.0	n/a	1450	89	2750	2480.1375677	stim	stop-signal	440	1247356	0.0-19.24-1.24	beast_fmri_test	388	1245112,/,1245791,/,1246471,/,1247152,/,1247831,/,1248511,/,1249191,/	t,t,t,t,t,t,t	<img class = center src='/static/experiments/beast_fmri_test/images/T.png'></img>	71,89	2750.0	test	<img class = center src='/static/experiments/beast_fmri_test/images/redT.png'></img>	stop	1550.0	2.0	24.0	stop	non-target	T	71,Index Finger	89,Middle Finger	850.0	1200.0	1900.0	1550.0	0.0	1200.0	0.0	n/a	go_stim
105367.86243229662	1550.0	n/a	1450	89	2750	2480.1375677	stim	stop-signal	440	1247356	0.0-19.24-1.24	beast_fmri_test	388	1245112,/,1245791,/,1246471,/,1247152,/,1247831,/,1248511,/,1249191,/	t,t,t,t,t,t,t	<img class = center src='/static/experiments/beast_fmri_test/images/T.png'></img>	71,89	2750.0	test	<img class = center src='/static/experiments/beast_fmri_test/images/redT.png'></img>	stop	1550.0	2.0	24.0	stop	non-target	T	71,Index Finger	89,Middle Finger	850.0	1200.0	1900.0	1550.0	0.0	1200.0	0.0	n/a	stop_stim
106567.86243229662	2480.1375677034121	n/a	1450	89	2750	2480.1375677	stim	stop-signal	440	1247356	0.0-19.24-1.24	beast_fmri_test	388	1245112,/,1245791,/,1246471,/,1247152,/,1247831,/,1248511,/,1249191,/	t,t,t,t,t,t,t	<img class = center src='/static/experiments/beast_fmri_test/images/T.png'></img>	71,89	2750.0	test	<img class = center src='/static/experiments/beast_fmri_test/images/redT.png'></img>	stop	1550.0	2.0	24.0	stop	non-target	T	71,Index Finger	89,Middle Finger	850.0	1200.0	1900.0	1550.0	0.0	1200.0	0.0	n/a	ITI
112072	500	n/a	-1	-1	500	0.0	fixation	poldrack-single-stim	441	1250380	0.0-19.25-0.25	beast_fmri_test	388	1249879,/	t	<div class = centerbox2><div class = fixation>+</div></div>	none	500.0	test	n/a	n/a	n/a	n/a	n/a	n/a	n/a	n/a	n/a	n/a	n/a	n/a	n/a	n/a	n/a	n/a	n/a	n/a	fixation
110611.39093472366	1150.0	n/a	1080	71	2750	1464.60906528	stim	stop-signal	442	1253134	0.0-19.25-1.25	beast_fmri_test	388	1250551,/,1251231,/,1251912,/,1252591,/,1253272,/,1253951,/	t,t,t,t,t,t	<img class = center src='/static/experiments/beast_fmri_test/images/T.png'></img>	71,89	2750.0	test	<img class = center src='/static/experiments/beast_fmri_test/images/redT.png'></img>	stop	1600.0	2.0	25.0	stop	non-target	T	71,Index Finger	89,Middle Finger	850.0	1150.0	1900.0	1600.0	0.0	1150.0	0.0	n/a	go_stim
112211.39093472366	1600.0	n/a	1080	71	2750	1464.60906528	stim	stop-signal	442	1253134	0.0-19.25-1.25	beast_fmri_test	388	1250551,/,1251231,/,1251912,/,1252591,/,1253272,/,1253951,/	t,t,t,t,t,t	<img class = center src='/static/experiments/beast_fmri_test/images/T.png'></img>	71,89	2750.0	test	<img class = center src='/static/experiments/beast_fmri_test/images/redT.png'></img>	stop	1600.0	2.0	25.0	stop	non-target	T	71,Index Finger	89,Middle Finger	850.0	1150.0	1900.0	1600.0	0.0	1150.0	0.0	n/a	stop_stim
113361.39093472366	1464.6090652762573	n/a	1080	71	2750	1464.60906528	stim	stop-signal	442	1253134	0.0-19.25-1.25	beast_fmri_test	388	1250551,/,1251231,/,1251912,/,1252591,/,1253272,/,1253951,/	t,t,t,t,t,t	<img class = center src='/static/experiments/beast_fmri_test/images/T.png'></img>	71,89	2750.0	test	<img class = center src='/static/experiments/beast_fmri_test/images/redT.png'></img>	stop	1600.0	2.0	25.0	stop	non-target	T	71,Index Finger	89,Middle Finger	850.0	1150.0	1900.0	1600.0	0.0	1150.0	0.0	n/a	ITI
116836	500	n/a	-1	-1	500	0.0	fixation	poldrack-single-stim	443	1255144	0.0-19.26-0.26	beast_fmri_test	388	1254642,/	t	<div class = centerbox2><div class = fixation>+</div></div>	none	500.0	test	n/a	n/a	n/a	n/a	n/a	n/a	n/a	n/a	n/a	n/a	n/a	n/a	n/a	n/a	n/a	n/a	n/a	n/a	fixation
116799.32333261892	2750	n/a	1539	89	2750	40.6766673812	stim	stop-signal	444	1257898	0.0-19.26-1.26	beast_fmri_test	388	1255311,/,1255991,/,1256670,/,1257351,/	t,t,t,t	<img class = center src='/static/experiments/beast_fmri_test/images/T.png'></img>	71,89	2750.0	test	<img class = center src='/static/experiments/beast_fmri_test/images/redT.png'></img>	go	1900.0	2.0	26.0	go	target	T	71,Index Finger	89,Middle Finger	850.0	1100.0	1900.0	1600.0	0.0	850.0	n/a	0.0	go_stim
119549.32333261892	40.676667381153329	n/a	1539	89	2750	40.6766673812	stim	stop-signal	444	1257898	0.0-19.26-1.26	beast_fmri_test	388	1255311,/,1255991,/,1256670,/,1257351,/	t,t,t,t	<img class = center src='/static/experiments/beast_fmri_test/images/T.png'></img>	71,89	2750.0	test	<img class = center src='/static/experiments/beast_fmri_test/images/redT.png'></img>	go	1900.0	2.0	26.0	go	target	T	71,Index Finger	89,Middle Finger	850.0	1100.0	1900.0	1600.0	0.0	850.0	n/a	0.0	ITI
120172	500	n/a	-1	-1	500	0.0	fixation	poldrack-single-stim	445	1258480	0.0-19.27-0.27	beast_fmri_test	388	1258031,/	t	<div class = centerbox2><div class = fixation>+</div></div>	none	500.0	test	n/a	n/a	n/a	n/a	n/a	n/a	n/a	n/a	n/a	n/a	n/a	n/a	n/a	n/a	n/a	n/a	n/a	n/a	fixation
118494.66605727444	2750	n/a	1178	71	2750	1684.33394273	stim	stop-signal	446	1261237	0.0-19.27-1.27	beast_fmri_test	388	1258712,/,1259393,/,1260074,/,1260755,/,1261436,/,1262116,/,1262796,/	t,t,t,t,t,t,t	<img class = center src='/static/experiments/beast_fmri_test/images/T.png'></img>	71,89	2750.0	test	<img class = center src='/static/experiments/beast_fmri_test/images/redT.png'></img>	go	1900.0	2.0	27.0	go	target	T	71,Index Finger	89,Middle Finger	850.0	1100.0	1900.0	1600.0	1.0	850.0	n/a	1.0	go_stim
121244.66605727444	1684.3339427255703	n/a	1178	71	2750	1684.33394273	stim	stop-signal	446	1261237	0.0-19.27-1.27	beast_fmri_test	388	1258712,/,1259393,/,1260074,/,1260755,/,1261436,/,1262116,/,1262796,/	t,t,t,t,t,t,t	<img class = center src='/static/experiments/beast_fmri_test/images/T.png'></img>	71,89	2750.0	test	<img class = center src='/static/experiments/beast_fmri_test/images/redT.png'></img>	go	1900.0	2.0	27.0	go	target	T	71,Index Finger	89,Middle Finger	850.0	1100.0	1900.0	1600.0	1.0	850.0	n/a	1.0	ITI
125161	500	n/a	-1	-1	500	0.0	fixation	poldrack-single-stim	447	1263469	0.0-19.28-0.28	beast_fmri_test	388	n/a	n/a	<div class = centerbox2><div class = fixation>+</div></div>	none	500.0	test	n/a	n/a	n/a	n/a	n/a	n/a	n/a	n/a	n/a	n/a	n/a	n/a	n/a	n/a	n/a	n/a	n/a	n/a	fixation
121983.85926963808	2750	n/a	1277	89	2750	3179.14073036	stim	stop-signal	448	1266221	0.0-19.28-1.28	beast_fmri_test	388	1263475,/,1264155,/,1264835,/,1265517,/,1266195,/,1266876,/,1267557,/,1268237,/,1268916,/	t,t,t,t,t,t,t,t,t	<img class = center src='/static/experiments/beast_fmri_test/images/V.png'></img>	71,89	2750.0	test	<img class = center src='/static/experiments/beast_fmri_test/images/redV.png'></img>	go	1650.0	2.0	28.0	go	non-target	V	71,Index Finger	89,Middle Finger	850.0	1100.0	1900.0	1650.0	1.0	1100.0	n/a	1.0	go_stim
124733.85926963808	3179.1407303620149	n/a	1277	89	2750	3179.14073036	stim	stop-signal	448	1266221	0.0-19.28-1.28	beast_fmri_test	388	1263475,/,1264155,/,1264835,/,1265517,/,1266195,/,1266876,/,1267557,/,1268237,/,1268916,/	t,t,t,t,t,t,t,t,t	<img class = center src='/static/experiments/beast_fmri_test/images/V.png'></img>	71,89	2750.0	test	<img class = center src='/static/experiments/beast_fmri_test/images/redV.png'></img>	go	1650.0	2.0	28.0	go	non-target	V	71,Index Finger	89,Middle Finger	850.0	1100.0	1900.0	1650.0	1.0	1100.0	n/a	1.0	ITI
131642	500	n/a	-1	-1	500	0.0	fixation	poldrack-single-stim	449	1269950	0.0-19.29-0.29	beast_fmri_test	388	1269598,/	t	<div class = centerbox2><div class = fixation>+</div></div>	none	500.0	test	n/a	n/a	n/a	n/a	n/a	n/a	n/a	n/a	n/a	n/a	n/a	n/a	n/a	n/a	n/a	n/a	n/a	n/a	fixation
130956.72700226423	850.0	n/a	-1	-1	2750	688.272997736	stim	stop-signal	450	1272703	0.0-19.29-1.29	beast_fmri_test	388	1270279,/,1270961,/,1271641,/,1272321,/,1273001,/	t,t,t,t,t	<img class = center src='/static/experiments/beast_fmri_test/images/T.png'></img>	71,89	2750.0	test	<img class = center src='/static/experiments/beast_fmri_test/images/redT.png'></img>	stop	1900.0	2.0	29.0	stop	target	T	71,Index Finger	89,Middle Finger	850.0	1100.0	1900.0	1650.0	0.0	850.0	1.0	n/a	go_stim
132856.72700226423	1900.0	n/a	-1	-1	2750	688.272997736	stim	stop-signal	450	1272703	0.0-19.29-1.29	beast_fmri_test	388	1270279,/,1270961,/,1271641,/,1272321,/,1273001,/	t,t,t,t,t	<img class = center src='/static/experiments/beast_fmri_test/images/T.png'></img>	71,89	2750.0	test	<img class = center src='/static/experiments/beast_fmri_test/images/redT.png'></img>	stop	1900.0	2.0	29.0	stop	target	T	71,Index Finger	89,Middle Finger	850.0	1100.0	1900.0	1650.0	0.0	850.0	1.0	n/a	stop_stim
133706.72700226423	688.27299773587322	n/a	-1	-1	2750	688.272997736	stim	stop-signal	450	1272703	0.0-19.29-1.29	beast_fmri_test	388	1270279,/,1270961,/,1271641,/,1272321,/,1273001,/	t,t,t,t,t	<img class = center src='/static/experiments/beast_fmri_test/images/T.png'></img>	71,89	2750.0	test	<img class = center src='/static/experiments/beast_fmri_test/images/redT.png'></img>	stop	1900.0	2.0	29.0	stop	target	T	71,Index Finger	89,Middle Finger	850.0	1100.0	1900.0	1650.0	0.0	850.0	1.0	n/a	ITI
135628	500	n/a	-1	-1	500	0.0	fixation	poldrack-single-stim	451	1273936	0.0-19.30-0.30	beast_fmri_test	388	1273680,/	t	<div class = centerbox2><div class = fixation>+</div></div>	none	500.0	test	n/a	n/a	n/a	n/a	n/a	n/a	n/a	n/a	n/a	n/a	n/a	n/a	n/a	n/a	n/a	n/a	n/a	n/a	fixation
132126.82258514478	900.0	n/a	-1	-1	2750	3506.17741486	stim	stop-signal	452	1276691	0.0-19.30-1.30	beast_fmri_test	388	1274361,/,1275040,/,1275719,/,1276401,/,1277081,/,1277761,/,1278440,/,1279120,/,1279803,/	t,t,t,t,t,t,t,t,t	<img class = center src='/static/experiments/beast_fmri_test/images/V.png'></img>	71,89	2750.0	test	<img class = center src='/static/experiments/beast_fmri_test/images/redV.png'></img>	stop	1850.0	2.0	30.0	stop	target	V	71,Index Finger	89,Middle Finger	900.0	1100.0	1850.0	1650.0	0.0	900.0	1.0	n/a	go_stim
133976.82258514478	1850.0	n/a	-1	-1	2750	3506.17741486	stim	stop-signal	452	1276691	0.0-19.30-1.30	beast_fmri_test	388	1274361,/,1275040,/,1275719,/,1276401,/,1277081,/,1277761,/,1278440,/,1279120,/,1279803,/	t,t,t,t,t,t,t,t,t	<img class = center src='/static/experiments/beast_fmri_test/images/V.png'></img>	71,89	2750.0	test	<img class = center src='/static/experiments/beast_fmri_test/images/redV.png'></img>	stop	1850.0	2.0	30.0	stop	target	V	71,Index Finger	89,Middle Finger	900.0	1100.0	1850.0	1650.0	0.0	900.0	1.0	n/a	stop_stim
134876.82258514478	3506.1774148552618	n/a	-1	-1	2750	3506.17741486	stim	stop-signal	452	1276691	0.0-19.30-1.30	beast_fmri_test	388	1274361,/,1275040,/,1275719,/,1276401,/,1277081,/,1277761,/,1278440,/,1279120,/,1279803,/	t,t,t,t,t,t,t,t,t	<img class = center src='/static/experiments/beast_fmri_test/images/V.png'></img>	71,89	2750.0	test	<img class = center src='/static/experiments/beast_fmri_test/images/redV.png'></img>	stop	1850.0	2.0	30.0	stop	target	V	71,Index Finger	89,Middle Finger	900.0	1100.0	1850.0	1650.0	0.0	900.0	1.0	n/a	ITI
142441	500	n/a	-1	-1	500	0.0	fixation	poldrack-single-stim	453	1280749	0.0-19.31-0.31	beast_fmri_test	388	1280485,/	t	<div class = centerbox2><div class = fixation>+</div></div>	none	500.0	test	n/a	n/a	n/a	n/a	n/a	n/a	n/a	n/a	n/a	n/a	n/a	n/a	n/a	n/a	n/a	n/a	n/a	n/a	fixation
138323.27979641873	2750	n/a	992	71	2750	4120.72020358	stim	stop-signal	454	1283502	0.0-19.31-1.31	beast_fmri_test	388	1281164,/,1281845,/,1282524,/,1283204,/,1283884,/,1284564,/,1285245,/,1285925,/,1286605,/,1287284,/	t,t,t,t,t,t,t,t,t,t	<img class = center src='/static/experiments/beast_fmri_test/images/T.png'></img>	71,89	2750.0	test	<img class = center src='/static/experiments/beast_fmri_test/images/redT.png'></img>	go	1800.0	2.0	31.0	go	target	T	71,Index Finger	89,Middle Finger	950.0	1100.0	1800.0	1650.0	1.0	950.0	n/a	1.0	go_stim
141073.27979641873	4120.7202035813643	n/a	992	71	2750	4120.72020358	stim	stop-signal	454	1283502	0.0-19.31-1.31	beast_fmri_test	388	1281164,/,1281845,/,1282524,/,1283204,/,1283884,/,1284564,/,1285245,/,1285925,/,1286605,/,1287284,/	t,t,t,t,t,t,t,t,t,t	<img class = center src='/static/experiments/beast_fmri_test/images/T.png'></img>	71,89	2750.0	test	<img class = center src='/static/experiments/beast_fmri_test/images/redT.png'></img>	go	1800.0	2.0	31.0	go	target	T	71,Index Finger	89,Middle Finger	950.0	1100.0	1800.0	1650.0	1.0	950.0	n/a	1.0	ITI
149865	500	n/a	-1	-1	500	0.0	fixation	poldrack-single-stim	455	1288173	0.0-19.32-0.32	beast_fmri_test	388	1287965,/	t	<div class = centerbox2><div class = fixation>+</div></div>	none	500.0	test	n/a	n/a	n/a	n/a	n/a	n/a	n/a	n/a	n/a	n/a	n/a	n/a	n/a	n/a	n/a	n/a	n/a	n/a	fixation
148258.91548749176	2750	n/a	1667	89	2750	1614.08451251	stim	stop-signal	456	1290931	0.0-19.32-1.32	beast_fmri_test	388	1288644,/,1289325,/,1290006,/,1290689,/,1291369,/,1292049,/	t,t,t,t,t,t	<img class = center src='/static/experiments/beast_fmri_test/images/B.png'></img>	71,89	2750.0	test	<img class = center src='/static/experiments/beast_fmri_test/images/redB.png'></img>	go	1650.0	2.0	32.0	go	non-target	B	71,Index Finger	89,Middle Finger	950.0	1100.0	1800.0	1650.0	1.0	1100.0	n/a	1.0	go_stim
151008.91548749176	1614.0845125083538	n/a	1667	89	2750	1614.08451251	stim	stop-signal	456	1290931	0.0-19.32-1.32	beast_fmri_test	388	1288644,/,1289325,/,1290006,/,1290689,/,1291369,/,1292049,/	t,t,t,t,t,t	<img class = center src='/static/experiments/beast_fmri_test/images/B.png'></img>	71,89	2750.0	test	<img class = center src='/static/experiments/beast_fmri_test/images/redB.png'></img>	go	1650.0	2.0	32.0	go	non-target	B	71,Index Finger	89,Middle Finger	950.0	1100.0	1800.0	1650.0	1.0	1100.0	n/a	1.0	ITI
154788	500	n/a	-1	-1	500	0.0	fixation	poldrack-single-stim	457	1293096	0.0-19.33-0.33	beast_fmri_test	388	1292728,/	t	<div class = centerbox2><div class = fixation>+</div></div>	none	500.0	test	n/a	n/a	n/a	n/a	n/a	n/a	n/a	n/a	n/a	n/a	n/a	n/a	n/a	n/a	n/a	n/a	n/a	n/a	fixation
154395.02989404881	1100.0	n/a	1147	89	2750	396.970105951	stim	stop-signal	458	1295850	0.0-19.33-1.33	beast_fmri_test	388	1293410,/,1294090,/,1294770,/,1295450,/,1296130,/	t,t,t,t,t	<img class = center src='/static/experiments/beast_fmri_test/images/B.png'></img>	71,89	2750.0	test	<img class = center src='/static/experiments/beast_fmri_test/images/redB.png'></img>	stop	1650.0	2.0	33.0	stop	non-target	B	71,Index Finger	89,Middle Finger	950.0	1100.0	1800.0	1650.0	0.0	1100.0	0.0	n/a	go_stim
156045.02989404881	1650.0	n/a	1147	89	2750	396.970105951	stim	stop-signal	458	1295850	0.0-19.33-1.33	beast_fmri_test	388	1293410,/,1294090,/,1294770,/,1295450,/,1296130,/	t,t,t,t,t	<img class = center src='/static/experiments/beast_fmri_test/images/B.png'></img>	71,89	2750.0	test	<img class = center src='/static/experiments/beast_fmri_test/images/redB.png'></img>	stop	1650.0	2.0	33.0	stop	non-target	B	71,Index Finger	89,Middle Finger	950.0	1100.0	1800.0	1650.0	0.0	1100.0	0.0	n/a	stop_stim
157145.02989404881	396.97010595115904	n/a	1147	89	2750	396.970105951	stim	stop-signal	458	1295850	0.0-19.33-1.33	beast_fmri_test	388	1293410,/,1294090,/,1294770,/,1295450,/,1296130,/	t,t,t,t,t	<img class = center src='/static/experiments/beast_fmri_test/images/B.png'></img>	71,89	2750.0	test	<img class = center src='/static/experiments/beast_fmri_test/images/redB.png'></img>	stop	1650.0	2.0	33.0	stop	non-target	B	71,Index Finger	89,Middle Finger	950.0	1100.0	1800.0	1650.0	0.0	1100.0	0.0	n/a	ITI
158488	500	n/a	-1	-1	500	0.0	fixation	poldrack-single-stim	459	1296796	0.0-19.34-0.34	beast_fmri_test	388	n/a	n/a	<div class = centerbox2><div class = fixation>+</div></div>	none	500.0	test	n/a	n/a	n/a	n/a	n/a	n/a	n/a	n/a	n/a	n/a	n/a	n/a	n/a	n/a	n/a	n/a	n/a	n/a	fixation
157344.09769986826	2750	n/a	1515	89	2750	1145.90230013	stim	stop-signal	460	1299548	0.0-19.34-1.34	beast_fmri_test	388	1296817,/,1297489,/,1298170,/,1298849,/,1299530,/,1300210,/	t,t,t,t,t,t	<img class = center src='/static/experiments/beast_fmri_test/images/T.png'></img>	71,89	2750.0	test	<img class = center src='/static/experiments/beast_fmri_test/images/redT.png'></img>	go	1700.0	2.0	34.0	go	non-target	T	71,Index Finger	89,Middle Finger	950.0	1050.0	1800.0	1700.0	1.0	1050.0	n/a	1.0	go_stim
160094.09769986826	1145.9023001317505	n/a	1515	89	2750	1145.90230013	stim	stop-signal	460	1299548	0.0-19.34-1.34	beast_fmri_test	388	1296817,/,1297489,/,1298170,/,1298849,/,1299530,/,1300210,/	t,t,t,t,t,t	<img class = center src='/static/experiments/beast_fmri_test/images/T.png'></img>	71,89	2750.0	test	<img class = center src='/static/experiments/beast_fmri_test/images/redT.png'></img>	go	1700.0	2.0	34.0	go	non-target	T	71,Index Finger	89,Middle Finger	950.0	1050.0	1800.0	1700.0	1.0	1050.0	n/a	1.0	ITI
162933	500	n/a	-1	-1	500	0.0	fixation	poldrack-single-stim	461	1301241	0.0-19.35-0.35	beast_fmri_test	388	1300890,/	t	<div class = centerbox2><div class = fixation>+</div></div>	none	500.0	test	n/a	n/a	n/a	n/a	n/a	n/a	n/a	n/a	n/a	n/a	n/a	n/a	n/a	n/a	n/a	n/a	n/a	n/a	fixation
162153.57057862752	2750	n/a	1493	71	2750	781.429421373	stim	stop-signal	462	1303993	0.0-19.35-1.35	beast_fmri_test	388	1301569,/,1302250,/,1302930,/,1303608,/,1304290,/	t,t,t,t,t	<img class = center src='/static/experiments/beast_fmri_test/images/B.png'></img>	71,89	2750.0	test	<img class = center src='/static/experiments/beast_fmri_test/images/redB.png'></img>	go	1800.0	2.0	35.0	go	target	B	71,Index Finger	89,Middle Finger	950.0	1050.0	1800.0	1700.0	1.0	950.0	n/a	1.0	go_stim
164903.57057862752	781.42942137254863	n/a	1493	71	2750	781.429421373	stim	stop-signal	462	1303993	0.0-19.35-1.35	beast_fmri_test	388	1301569,/,1302250,/,1302930,/,1303608,/,1304290,/	t,t,t,t,t	<img class = center src='/static/experiments/beast_fmri_test/images/B.png'></img>	71,89	2750.0	test	<img class = center src='/static/experiments/beast_fmri_test/images/redB.png'></img>	go	1800.0	2.0	35.0	go	target	B	71,Index Finger	89,Middle Finger	950.0	1050.0	1800.0	1700.0	1.0	950.0	n/a	1.0	ITI
167021	500	n/a	-1	-1	500	0.0	fixation	poldrack-single-stim	463	1305329	0.0-19.36-0.36	beast_fmri_test	388	1304970,/	t	<div class = centerbox2><div class = fixation>+</div></div>	none	500.0	test	n/a	n/a	n/a	n/a	n/a	n/a	n/a	n/a	n/a	n/a	n/a	n/a	n/a	n/a	n/a	n/a	n/a	n/a	fixation
165363.396011031	2750	n/a	1491	89	2750	1659.60398897	stim	stop-signal	464	1308081	0.0-19.36-1.36	beast_fmri_test	388	1305650,/,1306330,/,1307010,/,1307690,/,1308369,/,1309050,/,1309732,/	t,t,t,t,t,t,t	<img class = center src='/static/experiments/beast_fmri_test/images/B.png'></img>	71,89	2750.0	test	<img class = center src='/static/experiments/beast_fmri_test/images/redB.png'></img>	go	1700.0	2.0	36.0	go	non-target	B	71,Index Finger	89,Middle Finger	950.0	1050.0	1800.0	1700.0	1.0	1050.0	n/a	1.0	go_stim
168113.396011031	1659.6039889690753	n/a	1491	89	2750	1659.60398897	stim	stop-signal	464	1308081	0.0-19.36-1.36	beast_fmri_test	388	1305650,/,1306330,/,1307010,/,1307690,/,1308369,/,1309050,/,1309732,/	t,t,t,t,t,t,t	<img class = center src='/static/experiments/beast_fmri_test/images/B.png'></img>	71,89	2750.0	test	<img class = center src='/static/experiments/beast_fmri_test/images/redB.png'></img>	go	1700.0	2.0	36.0	go	non-target	B	71,Index Finger	89,Middle Finger	950.0	1050.0	1800.0	1700.0	1.0	1050.0	n/a	1.0	ITI
171984	500	n/a	-1	-1	500	0.0	fixation	poldrack-single-stim	465	1310292	0.0-19.37-0.37	beast_fmri_test	388	n/a	n/a	<div class = centerbox2><div class = fixation>+</div></div>	none	500.0	test	n/a	n/a	n/a	n/a	n/a	n/a	n/a	n/a	n/a	n/a	n/a	n/a	n/a	n/a	n/a	n/a	n/a	n/a	fixation
170856.33696508082	2750	n/a	969	89	2750	1131.66303492	stim	stop-signal	466	1313046	0.0-19.37-1.37	beast_fmri_test	388	1310414,/,1311094,/,1311774,/,1312454,/,1313134,/,1313812,/	t,t,t,t,t,t	<img class = center src='/static/experiments/beast_fmri_test/images/P.png'></img>	71,89	2750.0	test	<img class = center src='/static/experiments/beast_fmri_test/images/redP.png'></img>	go	1700.0	2.0	37.0	go	non-target	P	71,Index Finger	89,Middle Finger	950.0	1050.0	1800.0	1700.0	1.0	1050.0	n/a	1.0	go_stim
173606.33696508082	1131.6630349191412	n/a	969	89	2750	1131.66303492	stim	stop-signal	466	1313046	0.0-19.37-1.37	beast_fmri_test	388	1310414,/,1311094,/,1311774,/,1312454,/,1313134,/,1313812,/	t,t,t,t,t,t	<img class = center src='/static/experiments/beast_fmri_test/images/P.png'></img>	71,89	2750.0	test	<img class = center src='/static/experiments/beast_fmri_test/images/redP.png'></img>	go	1700.0	2.0	37.0	go	non-target	P	71,Index Finger	89,Middle Finger	950.0	1050.0	1800.0	1700.0	1.0	1050.0	n/a	1.0	ITI
176418	500	n/a	-1	-1	500	0.0	fixation	poldrack-single-stim	467	1314726	0.0-19.38-0.38	beast_fmri_test	388	1314494,/	t	<div class = centerbox2><div class = fixation>+</div></div>	none	500.0	test	n/a	n/a	n/a	n/a	n/a	n/a	n/a	n/a	n/a	n/a	n/a	n/a	n/a	n/a	n/a	n/a	n/a	n/a	fixation
173497.5559681179	2750	n/a	1744	89	2750	2923.44403188	stim	stop-signal	468	1317479	0.0-19.38-1.38	beast_fmri_test	388	1315174,/,1315854,/,1316533,/,1317213,/,1317894,/,1318574,/,1319255,/,1319936,/	t,t,t,t,t,t,t,t	<img class = center src='/static/experiments/beast_fmri_test/images/T.png'></img>	71,89	2750.0	test	<img class = center src='/static/experiments/beast_fmri_test/images/redT.png'></img>	go	1700.0	2.0	38.0	go	non-target	T	71,Index Finger	89,Middle Finger	950.0	1050.0	1800.0	1700.0	1.0	1050.0	n/a	1.0	go_stim
176247.5559681179	2923.4440318820239	n/a	1744	89	2750	2923.44403188	stim	stop-signal	468	1317479	0.0-19.38-1.38	beast_fmri_test	388	1315174,/,1315854,/,1316533,/,1317213,/,1317894,/,1318574,/,1319255,/,1319936,/	t,t,t,t,t,t,t,t	<img class = center src='/static/experiments/beast_fmri_test/images/T.png'></img>	71,89	2750.0	test	<img class = center src='/static/experiments/beast_fmri_test/images/redT.png'></img>	go	1700.0	2.0	38.0	go	non-target	T	71,Index Finger	89,Middle Finger	950.0	1050.0	1800.0	1700.0	1.0	1050.0	n/a	1.0	ITI
182651	500	n/a	-1	-1	500	0.0	fixation	poldrack-single-stim	469	1320959	0.0-19.39-0.39	beast_fmri_test	388	1320618,/	t	<div class = centerbox2><div class = fixation>+</div></div>	none	500.0	test	n/a	n/a	n/a	n/a	n/a	n/a	n/a	n/a	n/a	n/a	n/a	n/a	n/a	n/a	n/a	n/a	n/a	n/a	fixation
181556.29547188198	2750	n/a	924	89	2750	1097.70452812	stim	stop-signal	470	1323712	0.0-19.39-1.39	beast_fmri_test	388	1321299,/,1321978,/,1322659,/,1323339,/,1324019,/,1324699,/	t,t,t,t,t,t	<img class = center src='/static/experiments/beast_fmri_test/images/D.png'></img>	71,89	2750.0	test	<img class = center src='/static/experiments/beast_fmri_test/images/redD.png'></img>	go	1700.0	2.0	39.0	go	non-target	D	71,Index Finger	89,Middle Finger	950.0	1050.0	1800.0	1700.0	1.0	1050.0	n/a	1.0	go_stim
184306.29547188198	1097.7045281180381	n/a	924	89	2750	1097.70452812	stim	stop-signal	470	1323712	0.0-19.39-1.39	beast_fmri_test	388	1321299,/,1321978,/,1322659,/,1323339,/,1324019,/,1324699,/	t,t,t,t,t,t	<img class = center src='/static/experiments/beast_fmri_test/images/D.png'></img>	71,89	2750.0	test	<img class = center src='/static/experiments/beast_fmri_test/images/redD.png'></img>	go	1700.0	2.0	39.0	go	non-target	D	71,Index Finger	89,Middle Finger	950.0	1050.0	1800.0	1700.0	1.0	1050.0	n/a	1.0	ITI
187055	500	n/a	-1	-1	500	0.0	fixation	poldrack-single-stim	471	1325363	0.0-19.40-0.40	beast_fmri_test	388	n/a	n/a	<div class = centerbox2><div class = fixation>+</div></div>	none	500.0	test	n/a	n/a	n/a	n/a	n/a	n/a	n/a	n/a	n/a	n/a	n/a	n/a	n/a	n/a	n/a	n/a	n/a	n/a	fixation
186581.33323004562	1050.0	n/a	-1	-1	2750	477.666769954	stim	stop-signal	472	1328117	0.0-19.40-1.40	beast_fmri_test	388	1325380,/,1326059,/,1326739,/,1327419,/,1328099,/	t,t,t,t,t	<img class = center src='/static/experiments/beast_fmri_test/images/B.png'></img>	71,89	2750.0	test	<img class = center src='/static/experiments/beast_fmri_test/images/redB.png'></img>	stop	1700.0	2.0	40.0	stop	non-target	B	71,Index Finger	89,Middle Finger	950.0	1050.0	1800.0	1700.0	0.0	1050.0	1.0	n/a	go_stim
188281.33323004562	1700.0	n/a	-1	-1	2750	477.666769954	stim	stop-signal	472	1328117	0.0-19.40-1.40	beast_fmri_test	388	1325380,/,1326059,/,1326739,/,1327419,/,1328099,/	t,t,t,t,t	<img class = center src='/static/experiments/beast_fmri_test/images/B.png'></img>	71,89	2750.0	test	<img class = center src='/static/experiments/beast_fmri_test/images/redB.png'></img>	stop	1700.0	2.0	40.0	stop	non-target	B	71,Index Finger	89,Middle Finger	950.0	1050.0	1800.0	1700.0	0.0	1050.0	1.0	n/a	stop_stim
189331.33323004562	477.66676995433738	n/a	-1	-1	2750	477.666769954	stim	stop-signal	472	1328117	0.0-19.40-1.40	beast_fmri_test	388	1325380,/,1326059,/,1326739,/,1327419,/,1328099,/	t,t,t,t,t	<img class = center src='/static/experiments/beast_fmri_test/images/B.png'></img>	71,89	2750.0	test	<img class = center src='/static/experiments/beast_fmri_test/images/redB.png'></img>	stop	1700.0	2.0	40.0	stop	non-target	B	71,Index Finger	89,Middle Finger	950.0	1050.0	1800.0	1700.0	0.0	1050.0	1.0	n/a	ITI
190838	500	n/a	-1	-1	500	0.0	fixation	poldrack-single-stim	473	1329146	0.0-19.41-0.41	beast_fmri_test	388	1328779,/	t	<div class = centerbox2><div class = fixation>+</div></div>	none	500.0	test	n/a	n/a	n/a	n/a	n/a	n/a	n/a	n/a	n/a	n/a	n/a	n/a	n/a	n/a	n/a	n/a	n/a	n/a	fixation
190139.61172889406	1100.0	n/a	1127	89	2750	707.388271106	stim	stop-signal	474	1331905	0.0-19.41-1.41	beast_fmri_test	388	1329461,/,1330143,/,1330823,/,1331504,/,1332183,/	t,t,t,t,t	<img class = center src='/static/experiments/beast_fmri_test/images/V.png'></img>	71,89	2750.0	test	<img class = center src='/static/experiments/beast_fmri_test/images/redV.png'></img>	stop	1650.0	2.0	41.0	stop	non-target	V	71,Index Finger	89,Middle Finger	950.0	1100.0	1800.0	1650.0	0.0	1100.0	0.0	n/a	go_stim
191789.61172889406	1650.0	n/a	1127	89	2750	707.388271106	stim	stop-signal	474	1331905	0.0-19.41-1.41	beast_fmri_test	388	1329461,/,1330143,/,1330823,/,1331504,/,1332183,/	t,t,t,t,t	<img class = center src='/static/experiments/beast_fmri_test/images/V.png'></img>	71,89	2750.0	test	<img class = center src='/static/experiments/beast_fmri_test/images/redV.png'></img>	stop	1650.0	2.0	41.0	stop	non-target	V	71,Index Finger	89,Middle Finger	950.0	1100.0	1800.0	1650.0	0.0	1100.0	0.0	n/a	stop_stim
192889.61172889406	707.38827110603518	n/a	1127	89	2750	707.388271106	stim	stop-signal	474	1331905	0.0-19.41-1.41	beast_fmri_test	388	1329461,/,1330143,/,1330823,/,1331504,/,1332183,/	t,t,t,t,t	<img class = center src='/static/experiments/beast_fmri_test/images/V.png'></img>	71,89	2750.0	test	<img class = center src='/static/experiments/beast_fmri_test/images/redV.png'></img>	stop	1650.0	2.0	41.0	stop	non-target	V	71,Index Finger	89,Middle Finger	950.0	1100.0	1800.0	1650.0	0.0	1100.0	0.0	n/a	ITI
194854	500	n/a	-1	-1	500	0.0	fixation	poldrack-single-stim	475	1333162	0.0-19.42-0.42	beast_fmri_test	388	1332864,/	t	<div class = centerbox2><div class = fixation>+</div></div>	none	500.0	test	n/a	n/a	n/a	n/a	n/a	n/a	n/a	n/a	n/a	n/a	n/a	n/a	n/a	n/a	n/a	n/a	n/a	n/a	fixation
194405.31944985082	1050.0	n/a	-1	-1	2750	451.680550149	stim	stop-signal	476	1335915	0.0-19.42-1.42	beast_fmri_test	388	1333542,/,1334223,/,1334902,/,1335583,/,1336263,/	t,t,t,t,t	<img class = center src='/static/experiments/beast_fmri_test/images/T.png'></img>	71,89	2750.0	test	<img class = center src='/static/experiments/beast_fmri_test/images/redT.png'></img>	stop	1700.0	2.0	42.0	stop	non-target	T	71,Index Finger	89,Middle Finger	950.0	1050.0	1800.0	1700.0	0.0	1050.0	1.0	n/a	go_stim
196105.31944985082	1700.0	n/a	-1	-1	2750	451.680550149	stim	stop-signal	476	1335915	0.0-19.42-1.42	beast_fmri_test	388	1333542,/,1334223,/,1334902,/,1335583,/,1336263,/	t,t,t,t,t	<img class = center src='/static/experiments/beast_fmri_test/images/T.png'></img>	71,89	2750.0	test	<img class = center src='/static/experiments/beast_fmri_test/images/redT.png'></img>	stop	1700.0	2.0	42.0	stop	non-target	T	71,Index Finger	89,Middle Finger	950.0	1050.0	1800.0	1700.0	0.0	1050.0	1.0	n/a	stop_stim
197155.31944985082	451.68055014906167	n/a	-1	-1	2750	451.680550149	stim	stop-signal	476	1335915	0.0-19.42-1.42	beast_fmri_test	388	1333542,/,1334223,/,1334902,/,1335583,/,1336263,/	t,t,t,t,t	<img class = center src='/static/experiments/beast_fmri_test/images/T.png'></img>	71,89	2750.0	test	<img class = center src='/static/experiments/beast_fmri_test/images/redT.png'></img>	stop	1700.0	2.0	42.0	stop	non-target	T	71,Index Finger	89,Middle Finger	950.0	1050.0	1800.0	1700.0	0.0	1050.0	1.0	n/a	ITI
198613	500	n/a	-1	-1	500	0.0	fixation	poldrack-single-stim	477	1336921	0.0-19.43-0.43	beast_fmri_test	388	n/a	n/a	<div class = centerbox2><div class = fixation>+</div></div>	none	500.0	test	n/a	n/a	n/a	n/a	n/a	n/a	n/a	n/a	n/a	n/a	n/a	n/a	n/a	n/a	n/a	n/a	n/a	n/a	fixation
198343.40610107896	2750	n/a	1580	89	2750	274.593898921	stim	stop-signal	478	1339676	0.0-19.43-1.43	beast_fmri_test	388	1336943,/,1337623,/,1338302,/,1338983,/,1339664,/	t,t,t,t,t	<img class = center src='/static/experiments/beast_fmri_test/images/D.png'></img>	71,89	2750.0	test	<img class = center src='/static/experiments/beast_fmri_test/images/redD.png'></img>	go	1650.0	2.0	43.0	go	non-target	D	71,Index Finger	89,Middle Finger	950.0	1100.0	1800.0	1650.0	1.0	1100.0	n/a	1.0	go_stim
201093.40610107896	274.59389892094458	n/a	1580	89	2750	274.593898921	stim	stop-signal	478	1339676	0.0-19.43-1.43	beast_fmri_test	388	1336943,/,1337623,/,1338302,/,1338983,/,1339664,/	t,t,t,t,t	<img class = center src='/static/experiments/beast_fmri_test/images/D.png'></img>	71,89	2750.0	test	<img class = center src='/static/experiments/beast_fmri_test/images/redD.png'></img>	go	1650.0	2.0	43.0	go	non-target	D	71,Index Finger	89,Middle Finger	950.0	1100.0	1800.0	1650.0	1.0	1100.0	n/a	1.0	ITI
202198	500	n/a	-1	-1	500	0.0	fixation	poldrack-single-stim	479	1340506	0.0-19.44-0.44	beast_fmri_test	388	1340347,/	t	<div class = centerbox2><div class = fixation>+</div></div>	none	500.0	test	n/a	n/a	n/a	n/a	n/a	n/a	n/a	n/a	n/a	n/a	n/a	n/a	n/a	n/a	n/a	n/a	n/a	n/a	fixation
201986.07306088251	2750	n/a	1332	89	2750	215.926939118	stim	stop-signal	480	1343260	0.0-19.44-1.44	beast_fmri_test	388	1341027,/,1341707,/,1342387,/,1343067,/	t,t,t,t	<img class = center src='/static/experiments/beast_fmri_test/images/P.png'></img>	71,89	2750.0	test	<img class = center src='/static/experiments/beast_fmri_test/images/redP.png'></img>	go	1650.0	2.0	44.0	go	non-target	P	71,Index Finger	89,Middle Finger	950.0	1100.0	1800.0	1650.0	1.0	1100.0	n/a	1.0	go_stim
204736.07306088251	215.92693911759812	n/a	1332	89	2750	215.926939118	stim	stop-signal	480	1343260	0.0-19.44-1.44	beast_fmri_test	388	1341027,/,1341707,/,1342387,/,1343067,/	t,t,t,t	<img class = center src='/static/experiments/beast_fmri_test/images/P.png'></img>	71,89	2750.0	test	<img class = center src='/static/experiments/beast_fmri_test/images/redP.png'></img>	go	1650.0	2.0	44.0	go	non-target	P	71,Index Finger	89,Middle Finger	950.0	1100.0	1800.0	1650.0	1.0	1100.0	n/a	1.0	ITI
205717	500	n/a	-1	-1	500	0.0	fixation	poldrack-single-stim	481	1344025	0.0-19.45-0.45	beast_fmri_test	388	1343747,/	t	<div class = centerbox2><div class = fixation>+</div></div>	none	500.0	test	n/a	n/a	n/a	n/a	n/a	n/a	n/a	n/a	n/a	n/a	n/a	n/a	n/a	n/a	n/a	n/a	n/a	n/a	fixation
205496.42718775733	2750	n/a	1707	89	2750	223.572812243	stim	stop-signal	482	1346778	0.0-19.45-1.45	beast_fmri_test	388	1344427,/,1345107,/,1345786,/,1346467,/	t,t,t,t	<img class = center src='/static/experiments/beast_fmri_test/images/P.png'></img>	71,89	2750.0	test	<img class = center src='/static/experiments/beast_fmri_test/images/redP.png'></img>	go	1650.0	2.0	45.0	go	non-target	P	71,Index Finger	89,Middle Finger	950.0	1100.0	1800.0	1650.0	1.0	1100.0	n/a	1.0	go_stim
208246.42718775733	223.57281224270588	n/a	1707	89	2750	223.572812243	stim	stop-signal	482	1346778	0.0-19.45-1.45	beast_fmri_test	388	1344427,/,1345107,/,1345786,/,1346467,/	t,t,t,t	<img class = center src='/static/experiments/beast_fmri_test/images/P.png'></img>	71,89	2750.0	test	<img class = center src='/static/experiments/beast_fmri_test/images/redP.png'></img>	go	1650.0	2.0	45.0	go	non-target	P	71,Index Finger	89,Middle Finger	950.0	1100.0	1800.0	1650.0	1.0	1100.0	n/a	1.0	ITI
209245	500	n/a	-1	-1	500	0.0	fixation	poldrack-single-stim	483	1347553	0.0-19.46-0.46	beast_fmri_test	388	1347147,/	t	<div class = centerbox2><div class = fixation>+</div></div>	none	500.0	test	n/a	n/a	n/a	n/a	n/a	n/a	n/a	n/a	n/a	n/a	n/a	n/a	n/a	n/a	n/a	n/a	n/a	n/a	fixation
209104.90266077942	2750	n/a	839	89	2750	146.097339221	stim	stop-signal	484	1350309	0.0-19.46-1.46	beast_fmri_test	388	1347827,/,1348507,/,1349187,/,1349871,/	t,t,t,t	<img class = center src='/static/experiments/beast_fmri_test/images/V.png'></img>	71,89	2750.0	test	<img class = center src='/static/experiments/beast_fmri_test/images/redV.png'></img>	go	1650.0	2.0	46.0	go	non-target	V	71,Index Finger	89,Middle Finger	950.0	1100.0	1800.0	1650.0	1.0	1100.0	n/a	1.0	go_stim
211854.90266077942	146.09733922057262	n/a	839	89	2750	146.097339221	stim	stop-signal	484	1350309	0.0-19.46-1.46	beast_fmri_test	388	1347827,/,1348507,/,1349187,/,1349871,/	t,t,t,t	<img class = center src='/static/experiments/beast_fmri_test/images/V.png'></img>	71,89	2750.0	test	<img class = center src='/static/experiments/beast_fmri_test/images/redV.png'></img>	go	1650.0	2.0	46.0	go	non-target	V	71,Index Finger	89,Middle Finger	950.0	1100.0	1800.0	1650.0	1.0	1100.0	n/a	1.0	ITI
227198	15000	n/a	-1	-1	15000	0.0	practice-no-stop-feedback	poldrack-single-stim	485	1365506	0.0-20.0	beast_fmri_test	388	1350551,/,1351232,/,1351912,/,1352592,/,1353272,/,1353952,/,1354631,/,1355313,/,1355992,/,1356672,/,1357352,/,1358031,/,1358712,/,1359392,/,1360073,/,1360753,/,1361433,/,1362112,/,1362793,/,1363472,/,1364151,/,1364831,/	t,t,t,t,t,t,t,t,t,t,t,t,t,t,t,t,t,t,t,t,t,t	"<div class = ""centerbox2_2""><p class = ""block-text2"">Your delay is 3 trials.</p><p class = block-text2>Please wait for the scanner to start the block</p></div>"	77	15000.0	n/a	n/a	n/a	n/a	n/a	n/a	n/a	n/a	n/a	n/a	n/a	n/a	n/a	n/a	n/a	n/a	n/a	n/a	n/a	practice-no-stop-feedback
227701	500	n/a	-1	-1	500	0.0	fixation	poldrack-single-stim	486	1366009	0.0-21.0-0.0	beast_fmri_test	388	1365513,/	t	<div class = centerbox2><div class = fixation>+</div></div>	none	500.0	test	n/a	n/a	n/a	n/a	n/a	n/a	n/a	n/a	n/a	n/a	n/a	n/a	n/a	n/a	n/a	n/a	n/a	n/a	fixation
227539.15441381442	2750	n/a	-1	-1	2750	164.845586186	stim	stop-signal	487	1368762	0.0-21.0-1.0	beast_fmri_test	388	1366192,/,1366871,/,1367552,/,1368231,/,1368912,/	t,t,t,t,t	<img class = center src='/static/experiments/beast_fmri_test/images/V.png'></img>	71,89	2750.0	test	<img class = center src='/static/experiments/beast_fmri_test/images/redV.png'></img>	go	-1.0	3.0	0.0	go	temp-non-target	V	71,Index Finger	89,Middle Finger	950.0	1100.0	1800.0	1650.0	0.0	n/a	n/a	n/a	go_stim
230289.15441381442	164.84558618552268	n/a	-1	-1	2750	164.845586186	stim	stop-signal	487	1368762	0.0-21.0-1.0	beast_fmri_test	388	1366192,/,1366871,/,1367552,/,1368231,/,1368912,/	t,t,t,t,t	<img class = center src='/static/experiments/beast_fmri_test/images/V.png'></img>	71,89	2750.0	test	<img class = center src='/static/experiments/beast_fmri_test/images/redV.png'></img>	go	-1.0	3.0	0.0	go	temp-non-target	V	71,Index Finger	89,Middle Finger	950.0	1100.0	1800.0	1650.0	0.0	n/a	n/a	n/a	ITI
231173	500	n/a	-1	-1	500	0.0	fixation	poldrack-single-stim	488	1369481	0.0-21.1-0.1	beast_fmri_test	388	n/a	n/a	<div class = centerbox2><div class = fixation>+</div></div>	none	500.0	test	n/a	n/a	n/a	n/a	n/a	n/a	n/a	n/a	n/a	n/a	n/a	n/a	n/a	n/a	n/a	n/a	n/a	n/a	fixation
231144.55168740172	2750	n/a	942	89	2750	34.4483125984	stim	stop-signal	489	1372237	0.0-21.1-1.1	beast_fmri_test	388	1369593,/,1370276,/,1370956,/,1371635,/	t,t,t,t	<img class = center src='/static/experiments/beast_fmri_test/images/D.png'></img>	71,89	2750.0	test	<img class = center src='/static/experiments/beast_fmri_test/images/redD.png'></img>	go	-1.0	3.0	1.0	go	temp-non-target	D	71,Index Finger	89,Middle Finger	950.0	1100.0	1800.0	1650.0	0.0	n/a	n/a	n/a	go_stim
233894.55168740172	34.44831259837197	n/a	942	89	2750	34.4483125984	stim	stop-signal	489	1372237	0.0-21.1-1.1	beast_fmri_test	388	1369593,/,1370276,/,1370956,/,1371635,/	t,t,t,t	<img class = center src='/static/experiments/beast_fmri_test/images/D.png'></img>	71,89	2750.0	test	<img class = center src='/static/experiments/beast_fmri_test/images/redD.png'></img>	go	-1.0	3.0	1.0	go	temp-non-target	D	71,Index Finger	89,Middle Finger	950.0	1100.0	1800.0	1650.0	0.0	n/a	n/a	n/a	ITI
234511	500	n/a	-1	-1	500	0.0	fixation	poldrack-single-stim	490	1372819	0.0-21.2-0.2	beast_fmri_test	388	1372319,/	t	<div class = centerbox2><div class = fixation>+</div></div>	none	500.0	test	n/a	n/a	n/a	n/a	n/a	n/a	n/a	n/a	n/a	n/a	n/a	n/a	n/a	n/a	n/a	n/a	n/a	n/a	fixation
234224.76952568279	temp_go_duration	n/a	1574	89	2750	289.230474317	stim	stop-signal	491	1375572	0.0-21.2-1.2	beast_fmri_test	388	1372996,/,1373676,/,1374356,/,1375036,/,1375716,/	t,t,t,t,t	<img class = center src='/static/experiments/beast_fmri_test/images/B.png'></img>	71,89	2750.0	test	<img class = center src='/static/experiments/beast_fmri_test/images/redB.png'></img>	stop	-1.0	3.0	2.0	stop	temp-non-target	B	71,Index Finger	89,Middle Finger	950.0	1100.0	1800.0	1650.0	0.0	n/a	0.0	n/a	go_stim
temp-non-target	temp_stop_duration	n/a	1574	89	2750	289.230474317	stim	stop-signal	491	1375572	0.0-21.2-1.2	beast_fmri_test	388	1372996,/,1373676,/,1374356,/,1375036,/,1375716,/	t,t,t,t,t	<img class = center src='/static/experiments/beast_fmri_test/images/B.png'></img>	71,89	2750.0	test	<img class = center src='/static/experiments/beast_fmri_test/images/redB.png'></img>	stop	-1.0	3.0	2.0	stop	temp-non-target	B	71,Index Finger	89,Middle Finger	950.0	1100.0	1800.0	1650.0	0.0	n/a	0.0	n/a	stop_stim
236974.76952568279	289.23047431714247	n/a	1574	89	2750	289.230474317	stim	stop-signal	491	1375572	0.0-21.2-1.2	beast_fmri_test	388	1372996,/,1373676,/,1374356,/,1375036,/,1375716,/	t,t,t,t,t	<img class = center src='/static/experiments/beast_fmri_test/images/B.png'></img>	71,89	2750.0	test	<img class = center src='/static/experiments/beast_fmri_test/images/redB.png'></img>	stop	-1.0	3.0	2.0	stop	temp-non-target	B	71,Index Finger	89,Middle Finger	950.0	1100.0	1800.0	1650.0	0.0	n/a	0.0	n/a	ITI
238103	500	n/a	-1	-1	500	0.0	fixation	poldrack-single-stim	492	1376411	0.0-21.3-0.3	beast_fmri_test	388	1376397,/	t	<div class = centerbox2><div class = fixation>+</div></div>	none	500.0	test	n/a	n/a	n/a	n/a	n/a	n/a	n/a	n/a	n/a	n/a	n/a	n/a	n/a	n/a	n/a	n/a	n/a	n/a	fixation
237158.89224283793	2750	n/a	812	71	2750	947.107757162	stim	stop-signal	493	1379164	0.0-21.3-1.3	beast_fmri_test	388	1377077,/,1377757,/,1378436,/,1379116,/,1379800,/	t,t,t,t,t	<img class = center src='/static/experiments/beast_fmri_test/images/V.png'></img>	71,89	2750.0	test	<img class = center src='/static/experiments/beast_fmri_test/images/redV.png'></img>	go	1800.0	3.0	3.0	go	target	V	71,Index Finger	89,Middle Finger	950.0	1100.0	1800.0	1650.0	1.0	950.0	n/a	1.0	go_stim
239908.89224283793	947.10775716204466	n/a	812	71	2750	947.107757162	stim	stop-signal	493	1379164	0.0-21.3-1.3	beast_fmri_test	388	1377077,/,1377757,/,1378436,/,1379116,/,1379800,/	t,t,t,t,t	<img class = center src='/static/experiments/beast_fmri_test/images/V.png'></img>	71,89	2750.0	test	<img class = center src='/static/experiments/beast_fmri_test/images/redV.png'></img>	go	1800.0	3.0	3.0	go	target	V	71,Index Finger	89,Middle Finger	950.0	1100.0	1800.0	1650.0	1.0	950.0	n/a	1.0	ITI
242360	500	n/a	-1	-1	500	0.0	fixation	poldrack-single-stim	494	1380668	0.0-21.4-0.4	beast_fmri_test	388	1380481,/	t	<div class = centerbox2><div class = fixation>+</div></div>	none	500.0	test	n/a	n/a	n/a	n/a	n/a	n/a	n/a	n/a	n/a	n/a	n/a	n/a	n/a	n/a	n/a	n/a	n/a	n/a	fixation
242332.99207328865	2750	n/a	1305	89	2750	31.0079267114	stim	stop-signal	495	1383422	0.0-21.4-1.4	beast_fmri_test	388	1381161,/,1381841,/,1382520,/,1383200,/	t,t,t,t	<img class = center src='/static/experiments/beast_fmri_test/images/B.png'></img>	71,89	2750.0	test	<img class = center src='/static/experiments/beast_fmri_test/images/redB.png'></img>	go	1650.0	3.0	4.0	go	non-target	B	71,Index Finger	89,Middle Finger	950.0	1100.0	1800.0	1650.0	1.0	1100.0	n/a	1.0	go_stim
245082.99207328865	31.007926711414104	n/a	1305	89	2750	31.0079267114	stim	stop-signal	495	1383422	0.0-21.4-1.4	beast_fmri_test	388	1381161,/,1381841,/,1382520,/,1383200,/	t,t,t,t	<img class = center src='/static/experiments/beast_fmri_test/images/B.png'></img>	71,89	2750.0	test	<img class = center src='/static/experiments/beast_fmri_test/images/redB.png'></img>	go	1650.0	3.0	4.0	go	non-target	B	71,Index Finger	89,Middle Finger	950.0	1100.0	1800.0	1650.0	1.0	1100.0	n/a	1.0	ITI
245695	500	n/a	-1	-1	500	0.0	fixation	poldrack-single-stim	496	1384003	0.0-21.5-0.5	beast_fmri_test	388	1383881,/	t	<div class = centerbox2><div class = fixation>+</div></div>	none	500.0	test	n/a	n/a	n/a	n/a	n/a	n/a	n/a	n/a	n/a	n/a	n/a	n/a	n/a	n/a	n/a	n/a	n/a	n/a	fixation
245046.87583592813	2750	n/a	2109	89	2750	651.124164072	stim	stop-signal	497	1386756	0.0-21.5-1.5	beast_fmri_test	388	1384562,/,1385240,/,1385922,/,1386601,/,1387280,/	t,t,t,t,t	<img class = center src='/static/experiments/beast_fmri_test/images/B.png'></img>	71,89	2750.0	test	<img class = center src='/static/experiments/beast_fmri_test/images/redB.png'></img>	go	1800.0	3.0	5.0	go	target	B	71,Index Finger	89,Middle Finger	950.0	1100.0	1800.0	1650.0	0.0	950.0	n/a	0.0	go_stim
247796.87583592813	651.12416407185367	n/a	2109	89	2750	651.124164072	stim	stop-signal	497	1386756	0.0-21.5-1.5	beast_fmri_test	388	1384562,/,1385240,/,1385922,/,1386601,/,1387280,/	t,t,t,t,t	<img class = center src='/static/experiments/beast_fmri_test/images/B.png'></img>	71,89	2750.0	test	<img class = center src='/static/experiments/beast_fmri_test/images/redB.png'></img>	go	1800.0	3.0	5.0	go	target	B	71,Index Finger	89,Middle Finger	950.0	1100.0	1800.0	1650.0	0.0	950.0	n/a	0.0	ITI
249664	500	n/a	-1	-1	500	0.0	fixation	poldrack-single-stim	498	1387972	0.0-21.6-0.6	beast_fmri_test	388	1387962,/	t	<div class = centerbox2><div class = fixation>+</div></div>	none	500.0	test	n/a	n/a	n/a	n/a	n/a	n/a	n/a	n/a	n/a	n/a	n/a	n/a	n/a	n/a	n/a	n/a	n/a	n/a	fixation
247926.94760120008	1100.0	n/a	1121	71	2750	1745.0523988	stim	stop-signal	499	1390730	0.0-21.6-1.6	beast_fmri_test	388	1388642,/,1389322,/,1390005,/,1390685,/,1391365,/,1392045,/	t,t,t,t,t,t	<img class = center src='/static/experiments/beast_fmri_test/images/D.png'></img>	71,89	2750.0	test	<img class = center src='/static/experiments/beast_fmri_test/images/redD.png'></img>	stop	1650.0	3.0	6.0	stop	non-target	D	71,Index Finger	89,Middle Finger	950.0	1100.0	1800.0	1650.0	0.0	1100.0	0.0	n/a	go_stim
249576.94760120008	1650.0	n/a	1121	71	2750	1745.0523988	stim	stop-signal	499	1390730	0.0-21.6-1.6	beast_fmri_test	388	1388642,/,1389322,/,1390005,/,1390685,/,1391365,/,1392045,/	t,t,t,t,t,t	<img class = center src='/static/experiments/beast_fmri_test/images/D.png'></img>	71,89	2750.0	test	<img class = center src='/static/experiments/beast_fmri_test/images/redD.png'></img>	stop	1650.0	3.0	6.0	stop	non-target	D	71,Index Finger	89,Middle Finger	950.0	1100.0	1800.0	1650.0	0.0	1100.0	0.0	n/a	stop_stim
250676.94760120008	1745.052398799909	n/a	1121	71	2750	1745.0523988	stim	stop-signal	499	1390730	0.0-21.6-1.6	beast_fmri_test	388	1388642,/,1389322,/,1390005,/,1390685,/,1391365,/,1392045,/	t,t,t,t,t,t	<img class = center src='/static/experiments/beast_fmri_test/images/D.png'></img>	71,89	2750.0	test	<img class = center src='/static/experiments/beast_fmri_test/images/redD.png'></img>	stop	1650.0	3.0	6.0	stop	non-target	D	71,Index Finger	89,Middle Finger	950.0	1100.0	1800.0	1650.0	0.0	1100.0	0.0	n/a	ITI
254720	500	n/a	-1	-1	500	0.0	fixation	poldrack-single-stim	500	1393028	0.0-21.7-0.7	beast_fmri_test	388	1392728,/	t	<div class = centerbox2><div class = fixation>+</div></div>	none	500.0	test	n/a	n/a	n/a	n/a	n/a	n/a	n/a	n/a	n/a	n/a	n/a	n/a	n/a	n/a	n/a	n/a	n/a	n/a	fixation
254383.83582364884	1050.0	n/a	1220	89	2750	341.164176351	stim	stop-signal	501	1395783	0.0-21.7-1.7	beast_fmri_test	388	1393407,/,1394086,/,1394765,/,1395444,/,1396125,/	t,t,t,t,t	<img class = center src='/static/experiments/beast_fmri_test/images/P.png'></img>	71,89	2750.0	test	<img class = center src='/static/experiments/beast_fmri_test/images/redP.png'></img>	stop	1700.0	3.0	7.0	stop	non-target	P	71,Index Finger	89,Middle Finger	950.0	1050.0	1800.0	1700.0	0.0	1050.0	0.0	n/a	go_stim
256083.83582364884	1700.0	n/a	1220	89	2750	341.164176351	stim	stop-signal	501	1395783	0.0-21.7-1.7	beast_fmri_test	388	1393407,/,1394086,/,1394765,/,1395444,/,1396125,/	t,t,t,t,t	<img class = center src='/static/experiments/beast_fmri_test/images/P.png'></img>	71,89	2750.0	test	<img class = center src='/static/experiments/beast_fmri_test/images/redP.png'></img>	stop	1700.0	3.0	7.0	stop	non-target	P	71,Index Finger	89,Middle Finger	950.0	1050.0	1800.0	1700.0	0.0	1050.0	0.0	n/a	stop_stim
257133.83582364884	341.1641763511434	n/a	1220	89	2750	341.164176351	stim	stop-signal	501	1395783	0.0-21.7-1.7	beast_fmri_test	388	1393407,/,1394086,/,1394765,/,1395444,/,1396125,/	t,t,t,t,t	<img class = center src='/static/experiments/beast_fmri_test/images/P.png'></img>	71,89	2750.0	test	<img class = center src='/static/experiments/beast_fmri_test/images/redP.png'></img>	stop	1700.0	3.0	7.0	stop	non-target	P	71,Index Finger	89,Middle Finger	950.0	1050.0	1800.0	1700.0	0.0	1050.0	0.0	n/a	ITI
258369	500	n/a	-1	-1	500	0.0	fixation	poldrack-single-stim	502	1396677	0.0-21.8-0.8	beast_fmri_test	388	n/a	n/a	<div class = centerbox2><div class = fixation>+</div></div>	none	500.0	test	n/a	n/a	n/a	n/a	n/a	n/a	n/a	n/a	n/a	n/a	n/a	n/a	n/a	n/a	n/a	n/a	n/a	n/a	fixation
258243.13907519332	2750	n/a	2096	89	2750	129.860924807	stim	stop-signal	503	1399431	0.0-21.8-1.8	beast_fmri_test	388	1396805,/,1397485,/,1398166,/,1398846,/,1399527,/	t,t,t,t,t	<img class = center src='/static/experiments/beast_fmri_test/images/P.png'></img>	71,89	2750.0	test	<img class = center src='/static/experiments/beast_fmri_test/images/redP.png'></img>	go	1750.0	3.0	8.0	go	non-target	P	71,Index Finger	89,Middle Finger	950.0	1000.0	1800.0	1750.0	1.0	1000.0	n/a	1.0	go_stim
260993.13907519332	129.86092480666557	n/a	2096	89	2750	129.860924807	stim	stop-signal	503	1399431	0.0-21.8-1.8	beast_fmri_test	388	1396805,/,1397485,/,1398166,/,1398846,/,1399527,/	t,t,t,t,t	<img class = center src='/static/experiments/beast_fmri_test/images/P.png'></img>	71,89	2750.0	test	<img class = center src='/static/experiments/beast_fmri_test/images/redP.png'></img>	go	1750.0	3.0	8.0	go	non-target	P	71,Index Finger	89,Middle Finger	950.0	1000.0	1800.0	1750.0	1.0	1000.0	n/a	1.0	ITI
261810	500	n/a	-1	-1	500	0.0	fixation	poldrack-single-stim	504	1400118	0.0-21.9-0.9	beast_fmri_test	388	n/a	n/a	<div class = centerbox2><div class = fixation>+</div></div>	none	500.0	test	n/a	n/a	n/a	n/a	n/a	n/a	n/a	n/a	n/a	n/a	n/a	n/a	n/a	n/a	n/a	n/a	n/a	n/a	fixation
261089.60979874525	2750	n/a	-1	-1	2750	724.390201255	stim	stop-signal	505	1402872	0.0-21.9-1.9	beast_fmri_test	388	1400209,/,1400890,/,1401568,/,1402250,/,1402930,/	t,t,t,t,t	<img class = center src='/static/experiments/beast_fmri_test/images/B.png'></img>	71,89	2750.0	test	<img class = center src='/static/experiments/beast_fmri_test/images/redB.png'></img>	go	1750.0	3.0	9.0	go	non-target	B	71,Index Finger	89,Middle Finger	950.0	1000.0	1800.0	1750.0	0.0	1000.0	n/a	0.0	go_stim
263839.60979874525	724.39020125476043	n/a	-1	-1	2750	724.390201255	stim	stop-signal	505	1402872	0.0-21.9-1.9	beast_fmri_test	388	1400209,/,1400890,/,1401568,/,1402250,/,1402930,/	t,t,t,t,t	<img class = center src='/static/experiments/beast_fmri_test/images/B.png'></img>	71,89	2750.0	test	<img class = center src='/static/experiments/beast_fmri_test/images/redB.png'></img>	go	1750.0	3.0	9.0	go	non-target	B	71,Index Finger	89,Middle Finger	950.0	1000.0	1800.0	1750.0	0.0	1000.0	n/a	0.0	ITI
265847	500	n/a	-1	-1	500	0.0	fixation	poldrack-single-stim	506	1404155	0.0-21.10-0.10	beast_fmri_test	388	1403653,/	t	<div class = centerbox2><div class = fixation>+</div></div>	none	500.0	test	n/a	n/a	n/a	n/a	n/a	n/a	n/a	n/a	n/a	n/a	n/a	n/a	n/a	n/a	n/a	n/a	n/a	n/a	fixation
265839.63744939934	2750	n/a	1363	89	2750	11.3625506006	stim	stop-signal	507	1406909	0.0-21.10-1.10	beast_fmri_test	388	1404290,/,1404969,/,1405649,/,1406330,/	t,t,t,t	<img class = center src='/static/experiments/beast_fmri_test/images/T.png'></img>	71,89	2750.0	test	<img class = center src='/static/experiments/beast_fmri_test/images/redT.png'></img>	go	1750.0	3.0	10.0	go	non-target	T	71,Index Finger	89,Middle Finger	950.0	1000.0	1800.0	1750.0	1.0	1000.0	n/a	1.0	go_stim
268589.63744939934	11.362550600602187	n/a	1363	89	2750	11.3625506006	stim	stop-signal	507	1406909	0.0-21.10-1.10	beast_fmri_test	388	1404290,/,1404969,/,1405649,/,1406330,/	t,t,t,t	<img class = center src='/static/experiments/beast_fmri_test/images/T.png'></img>	71,89	2750.0	test	<img class = center src='/static/experiments/beast_fmri_test/images/redT.png'></img>	go	1750.0	3.0	10.0	go	non-target	T	71,Index Finger	89,Middle Finger	950.0	1000.0	1800.0	1750.0	1.0	1000.0	n/a	1.0	ITI
269162	500	n/a	-1	-1	500	0.0	fixation	poldrack-single-stim	508	1407470	0.0-21.11-0.11	beast_fmri_test	388	1407008,/	t	<div class = centerbox2><div class = fixation>+</div></div>	none	500.0	test	n/a	n/a	n/a	n/a	n/a	n/a	n/a	n/a	n/a	n/a	n/a	n/a	n/a	n/a	n/a	n/a	n/a	n/a	fixation
268844.39046043111	2750	n/a	1011	71	2750	324.609539569	stim	stop-signal	509	1410227	0.0-21.11-1.11	beast_fmri_test	388	1407691,/,1408371,/,1409050,/,1409732,/,1410414,/	t,t,t,t,t	<img class = center src='/static/experiments/beast_fmri_test/images/B.png'></img>	71,89	2750.0	test	<img class = center src='/static/experiments/beast_fmri_test/images/redB.png'></img>	go	1750.0	3.0	11.0	go	non-target	B	71,Index Finger	89,Middle Finger	950.0	1000.0	1800.0	1750.0	0.0	1000.0	n/a	0.0	go_stim
271594.39046043111	324.60953956879018	n/a	1011	71	2750	324.609539569	stim	stop-signal	509	1410227	0.0-21.11-1.11	beast_fmri_test	388	1407691,/,1408371,/,1409050,/,1409732,/,1410414,/	t,t,t,t,t	<img class = center src='/static/experiments/beast_fmri_test/images/B.png'></img>	71,89	2750.0	test	<img class = center src='/static/experiments/beast_fmri_test/images/redB.png'></img>	go	1750.0	3.0	11.0	go	non-target	B	71,Index Finger	89,Middle Finger	950.0	1000.0	1800.0	1750.0	0.0	1000.0	n/a	0.0	ITI
272796	500	n/a	-1	-1	500	0.0	fixation	poldrack-single-stim	510	1411104	0.0-21.12-0.12	beast_fmri_test	388	1411094,/	t	<div class = centerbox2><div class = fixation>+</div></div>	none	500.0	test	n/a	n/a	n/a	n/a	n/a	n/a	n/a	n/a	n/a	n/a	n/a	n/a	n/a	n/a	n/a	n/a	n/a	n/a	fixation
271707.39915235224	2750	n/a	2401	89	2750	1091.60084765	stim	stop-signal	511	1413857	0.0-21.12-1.12	beast_fmri_test	388	1411773,/,1412454,/,1413135,/,1413815,/,1414495,/	t,t,t,t,t	<img class = center src='/static/experiments/beast_fmri_test/images/B.png'></img>	71,89	2750.0	test	<img class = center src='/static/experiments/beast_fmri_test/images/redB.png'></img>	go	1800.0	3.0	12.0	go	target	B	71,Index Finger	89,Middle Finger	950.0	1000.0	1800.0	1750.0	0.0	950.0	n/a	0.0	go_stim
274457.39915235224	1091.600847647685	n/a	2401	89	2750	1091.60084765	stim	stop-signal	511	1413857	0.0-21.12-1.12	beast_fmri_test	388	1411773,/,1412454,/,1413135,/,1413815,/,1414495,/	t,t,t,t,t	<img class = center src='/static/experiments/beast_fmri_test/images/B.png'></img>	71,89	2750.0	test	<img class = center src='/static/experiments/beast_fmri_test/images/redB.png'></img>	go	1800.0	3.0	12.0	go	target	B	71,Index Finger	89,Middle Finger	950.0	1000.0	1800.0	1750.0	0.0	950.0	n/a	0.0	ITI
277194	500	n/a	-1	-1	500	0.0	fixation	poldrack-single-stim	512	1415502	0.0-21.13-0.13	beast_fmri_test	388	1415175,/	t	<div class = centerbox2><div class = fixation>+</div></div>	none	500.0	test	n/a	n/a	n/a	n/a	n/a	n/a	n/a	n/a	n/a	n/a	n/a	n/a	n/a	n/a	n/a	n/a	n/a	n/a	fixation
276402.79657525336	2750	n/a	2097	71	2750	793.203424747	stim	stop-signal	513	1418254	0.0-21.13-1.13	beast_fmri_test	388	1415855,/,1416535,/,1417214,/,1417895,/,1418575,/	t,t,t,t,t	<img class = center src='/static/experiments/beast_fmri_test/images/B.png'></img>	71,89	2750.0	test	<img class = center src='/static/experiments/beast_fmri_test/images/redB.png'></img>	go	1750.0	3.0	13.0	go	non-target	B	71,Index Finger	89,Middle Finger	950.0	1000.0	1800.0	1750.0	0.0	1000.0	n/a	0.0	go_stim
279152.79657525336	793.20342474659412	n/a	2097	71	2750	793.203424747	stim	stop-signal	513	1418254	0.0-21.13-1.13	beast_fmri_test	388	1415855,/,1416535,/,1417214,/,1417895,/,1418575,/	t,t,t,t,t	<img class = center src='/static/experiments/beast_fmri_test/images/B.png'></img>	71,89	2750.0	test	<img class = center src='/static/experiments/beast_fmri_test/images/redB.png'></img>	go	1750.0	3.0	13.0	go	non-target	B	71,Index Finger	89,Middle Finger	950.0	1000.0	1800.0	1750.0	0.0	1000.0	n/a	0.0	ITI
281295	500	n/a	-1	-1	500	0.0	fixation	poldrack-single-stim	514	1419603	0.0-21.14-0.14	beast_fmri_test	388	1419255,/	t	<div class = centerbox2><div class = fixation>+</div></div>	none	500.0	test	n/a	n/a	n/a	n/a	n/a	n/a	n/a	n/a	n/a	n/a	n/a	n/a	n/a	n/a	n/a	n/a	n/a	n/a	fixation
281036.16015150584	950.0	n/a	999	71	2750	262.839848494	stim	stop-signal	515	1422357	0.0-21.14-1.14	beast_fmri_test	388	1419935,/,1420613,/,1421295,/,1421975,/	t,t,t,t	<img class = center src='/static/experiments/beast_fmri_test/images/B.png'></img>	71,89	2750.0	test	<img class = center src='/static/experiments/beast_fmri_test/images/redB.png'></img>	stop	1800.0	3.0	14.0	stop	target	B	71,Index Finger	89,Middle Finger	950.0	1000.0	1800.0	1750.0	0.0	950.0	0.0	n/a	go_stim
282836.16015150584	1800.0	n/a	999	71	2750	262.839848494	stim	stop-signal	515	1422357	0.0-21.14-1.14	beast_fmri_test	388	1419935,/,1420613,/,1421295,/,1421975,/	t,t,t,t	<img class = center src='/static/experiments/beast_fmri_test/images/B.png'></img>	71,89	2750.0	test	<img class = center src='/static/experiments/beast_fmri_test/images/redB.png'></img>	stop	1800.0	3.0	14.0	stop	target	B	71,Index Finger	89,Middle Finger	950.0	1000.0	1800.0	1750.0	0.0	950.0	0.0	n/a	stop_stim
283786.16015150584	262.83984849420079	n/a	999	71	2750	262.839848494	stim	stop-signal	515	1422357	0.0-21.14-1.14	beast_fmri_test	388	1419935,/,1420613,/,1421295,/,1421975,/	t,t,t,t	<img class = center src='/static/experiments/beast_fmri_test/images/B.png'></img>	71,89	2750.0	test	<img class = center src='/static/experiments/beast_fmri_test/images/redB.png'></img>	stop	1800.0	3.0	14.0	stop	target	B	71,Index Finger	89,Middle Finger	950.0	1000.0	1800.0	1750.0	0.0	950.0	0.0	n/a	ITI
284869	500	n/a	-1	-1	500	0.0	fixation	poldrack-single-stim	516	1423177	0.0-21.15-0.15	beast_fmri_test	388	1422674,/	t	<div class = centerbox2><div class = fixation>+</div></div>	none	500.0	test	n/a	n/a	n/a	n/a	n/a	n/a	n/a	n/a	n/a	n/a	n/a	n/a	n/a	n/a	n/a	n/a	n/a	n/a	fixation
283921.88376139407	1000.0	n/a	1255	89	2750	950.116238606	stim	stop-signal	517	1425930	0.0-21.15-1.15	beast_fmri_test	388	1423333,/,1424014,/,1424694,/,1425373,/,1426055,/,1426735,/	t,t,t,t,t,t	<img class = center src='/static/experiments/beast_fmri_test/images/T.png'></img>	71,89	2750.0	test	<img class = center src='/static/experiments/beast_fmri_test/images/redT.png'></img>	stop	1750.0	3.0	15.0	stop	non-target	T	71,Index Finger	89,Middle Finger	900.0	1000.0	1800.0	1750.0	0.0	1000.0	0.0	n/a	go_stim
285671.88376139407	1750.0	n/a	1255	89	2750	950.116238606	stim	stop-signal	517	1425930	0.0-21.15-1.15	beast_fmri_test	388	1423333,/,1424014,/,1424694,/,1425373,/,1426055,/,1426735,/	t,t,t,t,t,t	<img class = center src='/static/experiments/beast_fmri_test/images/T.png'></img>	71,89	2750.0	test	<img class = center src='/static/experiments/beast_fmri_test/images/redT.png'></img>	stop	1750.0	3.0	15.0	stop	non-target	T	71,Index Finger	89,Middle Finger	900.0	1000.0	1800.0	1750.0	0.0	1000.0	0.0	n/a	stop_stim
286671.88376139407	950.11623860603277	n/a	1255	89	2750	950.116238606	stim	stop-signal	517	1425930	0.0-21.15-1.15	beast_fmri_test	388	1423333,/,1424014,/,1424694,/,1425373,/,1426055,/,1426735,/	t,t,t,t,t,t	<img class = center src='/static/experiments/beast_fmri_test/images/T.png'></img>	71,89	2750.0	test	<img class = center src='/static/experiments/beast_fmri_test/images/redT.png'></img>	stop	1750.0	3.0	15.0	stop	non-target	T	71,Index Finger	89,Middle Finger	900.0	1000.0	1800.0	1750.0	0.0	1000.0	0.0	n/a	ITI
289126	500	n/a	-1	-1	500	0.0	fixation	poldrack-single-stim	518	1427434	0.0-21.16-0.16	beast_fmri_test	388	1427415,/	t	<div class = centerbox2><div class = fixation>+</div></div>	none	500.0	test	n/a	n/a	n/a	n/a	n/a	n/a	n/a	n/a	n/a	n/a	n/a	n/a	n/a	n/a	n/a	n/a	n/a	n/a	fixation
287376.95915942988	2750	n/a	2627	71	2750	1757.04084057	stim	stop-signal	519	1430192	0.0-21.16-1.16	beast_fmri_test	388	1428095,/,1428775,/,1429454,/,1430138,/,1430819,/,1431500,/	t,t,t,t,t,t	<img class = center src='/static/experiments/beast_fmri_test/images/B.png'></img>	71,89	2750.0	test	<img class = center src='/static/experiments/beast_fmri_test/images/redB.png'></img>	go	1850.0	3.0	16.0	go	target	B	71,Index Finger	89,Middle Finger	900.0	950.0	1850.0	1750.0	1.0	900.0	n/a	1.0	go_stim
290126.95915942988	1757.0408405700055	n/a	2627	71	2750	1757.04084057	stim	stop-signal	519	1430192	0.0-21.16-1.16	beast_fmri_test	388	1428095,/,1428775,/,1429454,/,1430138,/,1430819,/,1431500,/	t,t,t,t,t,t	<img class = center src='/static/experiments/beast_fmri_test/images/B.png'></img>	71,89	2750.0	test	<img class = center src='/static/experiments/beast_fmri_test/images/redB.png'></img>	go	1850.0	3.0	16.0	go	target	B	71,Index Finger	89,Middle Finger	900.0	950.0	1850.0	1750.0	1.0	900.0	n/a	1.0	ITI
294199	500	n/a	-1	-1	500	0.0	fixation	poldrack-single-stim	520	1432507	0.0-21.17-0.17	beast_fmri_test	388	1432179,/	t	<div class = centerbox2><div class = fixation>+</div></div>	none	500.0	test	n/a	n/a	n/a	n/a	n/a	n/a	n/a	n/a	n/a	n/a	n/a	n/a	n/a	n/a	n/a	n/a	n/a	n/a	fixation
294030.36068904726	2750	n/a	1894	89	2750	171.639310953	stim	stop-signal	521	1435260	0.0-21.17-1.17	beast_fmri_test	388	1432859,/,1433539,/,1434220,/,1434900,/	t,t,t,t	<img class = center src='/static/experiments/beast_fmri_test/images/D.png'></img>	71,89	2750.0	test	<img class = center src='/static/experiments/beast_fmri_test/images/redD.png'></img>	go	1800.0	3.0	17.0	go	non-target	D	71,Index Finger	89,Middle Finger	900.0	950.0	1850.0	1800.0	1.0	950.0	n/a	1.0	go_stim
296780.36068904726	171.63931095276115	n/a	1894	89	2750	171.639310953	stim	stop-signal	521	1435260	0.0-21.17-1.17	beast_fmri_test	388	1432859,/,1433539,/,1434220,/,1434900,/	t,t,t,t	<img class = center src='/static/experiments/beast_fmri_test/images/D.png'></img>	71,89	2750.0	test	<img class = center src='/static/experiments/beast_fmri_test/images/redD.png'></img>	go	1800.0	3.0	17.0	go	non-target	D	71,Index Finger	89,Middle Finger	900.0	950.0	1850.0	1800.0	1.0	950.0	n/a	1.0	ITI
297691	500	n/a	-1	-1	500	0.0	fixation	poldrack-single-stim	522	1435999	0.0-21.18-0.18	beast_fmri_test	388	1435581,/	t	<div class = centerbox2><div class = fixation>+</div></div>	none	500.0	test	n/a	n/a	n/a	n/a	n/a	n/a	n/a	n/a	n/a	n/a	n/a	n/a	n/a	n/a	n/a	n/a	n/a	n/a	fixation
296608.25858280947	2750	n/a	1937	89	2750	1086.74141719	stim	stop-signal	523	1438753	0.0-21.18-1.18	beast_fmri_test	388	1436260,/,1436940,/,1437620,/,1438299,/,1438980,/,1439662,/	t,t,t,t,t,t	<img class = center src='/static/experiments/beast_fmri_test/images/D.png'></img>	71,89	2750.0	test	<img class = center src='/static/experiments/beast_fmri_test/images/redD.png'></img>	go	1800.0	3.0	18.0	go	non-target	D	71,Index Finger	89,Middle Finger	900.0	950.0	1850.0	1800.0	1.0	950.0	n/a	1.0	go_stim
299358.25858280947	1086.7414171905657	n/a	1937	89	2750	1086.74141719	stim	stop-signal	523	1438753	0.0-21.18-1.18	beast_fmri_test	388	1436260,/,1436940,/,1437620,/,1438299,/,1438980,/,1439662,/	t,t,t,t,t,t	<img class = center src='/static/experiments/beast_fmri_test/images/D.png'></img>	71,89	2750.0	test	<img class = center src='/static/experiments/beast_fmri_test/images/redD.png'></img>	go	1800.0	3.0	18.0	go	non-target	D	71,Index Finger	89,Middle Finger	900.0	950.0	1850.0	1800.0	1.0	950.0	n/a	1.0	ITI
302088	500	n/a	-1	-1	500	0.0	fixation	poldrack-single-stim	524	1440396	0.0-21.19-0.19	beast_fmri_test	388	1440344,/	t	<div class = centerbox2><div class = fixation>+</div></div>	none	500.0	test	n/a	n/a	n/a	n/a	n/a	n/a	n/a	n/a	n/a	n/a	n/a	n/a	n/a	n/a	n/a	n/a	n/a	n/a	fixation
301288.00623806752	2750	n/a	2174	89	2750	803.993761932	stim	stop-signal	525	1443150	0.0-21.19-1.19	beast_fmri_test	388	1441024,/,1441703,/,1442384,/,1443063,/,1443742,/	t,t,t,t,t	<img class = center src='/static/experiments/beast_fmri_test/images/V.png'></img>	71,89	2750.0	test	<img class = center src='/static/experiments/beast_fmri_test/images/redV.png'></img>	go	1800.0	3.0	19.0	go	non-target	V	71,Index Finger	89,Middle Finger	900.0	950.0	1850.0	1800.0	1.0	950.0	n/a	1.0	go_stim
304038.00623806752	803.99376193247349	n/a	2174	89	2750	803.993761932	stim	stop-signal	525	1443150	0.0-21.19-1.19	beast_fmri_test	388	1441024,/,1441703,/,1442384,/,1443063,/,1443742,/	t,t,t,t,t	<img class = center src='/static/experiments/beast_fmri_test/images/V.png'></img>	71,89	2750.0	test	<img class = center src='/static/experiments/beast_fmri_test/images/redV.png'></img>	go	1800.0	3.0	19.0	go	non-target	V	71,Index Finger	89,Middle Finger	900.0	950.0	1850.0	1800.0	1.0	950.0	n/a	1.0	ITI
306199	500	n/a	-1	-1	500	0.0	fixation	poldrack-single-stim	526	1444507	0.0-21.20-0.20	beast_fmri_test	388	1444424,/	t	<div class = centerbox2><div class = fixation>+</div></div>	none	500.0	test	n/a	n/a	n/a	n/a	n/a	n/a	n/a	n/a	n/a	n/a	n/a	n/a	n/a	n/a	n/a	n/a	n/a	n/a	fixation
303731.1658477576	2750	n/a	1754	71	2750	2470.83415224	stim	stop-signal	527	1447260	0.0-21.20-1.20	beast_fmri_test	388	1445104,/,1445784,/,1446464,/,1447144,/,1447823,/,1448504,/,1449184,/	t,t,t,t,t,t,t	<img class = center src='/static/experiments/beast_fmri_test/images/D.png'></img>	71,89	2750.0	test	<img class = center src='/static/experiments/beast_fmri_test/images/redD.png'></img>	go	1850.0	3.0	20.0	go	target	D	71,Index Finger	89,Middle Finger	900.0	950.0	1850.0	1800.0	1.0	900.0	n/a	1.0	go_stim
306481.1658477576	2470.834152242493	n/a	1754	71	2750	2470.83415224	stim	stop-signal	527	1447260	0.0-21.20-1.20	beast_fmri_test	388	1445104,/,1445784,/,1446464,/,1447144,/,1447823,/,1448504,/,1449184,/	t,t,t,t,t,t,t	<img class = center src='/static/experiments/beast_fmri_test/images/D.png'></img>	71,89	2750.0	test	<img class = center src='/static/experiments/beast_fmri_test/images/redD.png'></img>	go	1850.0	3.0	20.0	go	target	D	71,Index Finger	89,Middle Finger	900.0	950.0	1850.0	1800.0	1.0	900.0	n/a	1.0	ITI
311981	500	n/a	-1	-1	500	0.0	fixation	poldrack-single-stim	528	1450289	0.0-21.21-0.21	beast_fmri_test	388	1449867,/	t	<div class = centerbox2><div class = fixation>+</div></div>	none	500.0	test	n/a	n/a	n/a	n/a	n/a	n/a	n/a	n/a	n/a	n/a	n/a	n/a	n/a	n/a	n/a	n/a	n/a	n/a	fixation
311649.03311332571	900.0	n/a	-1	-1	2750	334.966886674	stim	stop-signal	529	1453042	0.0-21.21-1.21	beast_fmri_test	388	1450547,/,1451227,/,1451908,/,1452588,/,1453268,/	t,t,t,t,t	<img class = center src='/static/experiments/beast_fmri_test/images/D.png'></img>	71,89	2750.0	test	<img class = center src='/static/experiments/beast_fmri_test/images/redD.png'></img>	stop	1850.0	3.0	21.0	stop	target	D	71,Index Finger	89,Middle Finger	900.0	950.0	1850.0	1800.0	0.0	900.0	1.0	n/a	go_stim
313499.03311332571	1850.0	n/a	-1	-1	2750	334.966886674	stim	stop-signal	529	1453042	0.0-21.21-1.21	beast_fmri_test	388	1450547,/,1451227,/,1451908,/,1452588,/,1453268,/	t,t,t,t,t	<img class = center src='/static/experiments/beast_fmri_test/images/D.png'></img>	71,89	2750.0	test	<img class = center src='/static/experiments/beast_fmri_test/images/redD.png'></img>	stop	1850.0	3.0	21.0	stop	target	D	71,Index Finger	89,Middle Finger	900.0	950.0	1850.0	1800.0	0.0	900.0	1.0	n/a	stop_stim
314399.03311332571	334.96688667435831	n/a	-1	-1	2750	334.966886674	stim	stop-signal	529	1453042	0.0-21.21-1.21	beast_fmri_test	388	1450547,/,1451227,/,1451908,/,1452588,/,1453268,/	t,t,t,t,t	<img class = center src='/static/experiments/beast_fmri_test/images/D.png'></img>	71,89	2750.0	test	<img class = center src='/static/experiments/beast_fmri_test/images/redD.png'></img>	stop	1850.0	3.0	21.0	stop	target	D	71,Index Finger	89,Middle Finger	900.0	950.0	1850.0	1800.0	0.0	900.0	1.0	n/a	ITI
315626	500	n/a	-1	-1	500	0.0	fixation	poldrack-single-stim	530	1453934	0.0-21.22-0.22	beast_fmri_test	388	n/a	n/a	<div class = centerbox2><div class = fixation>+</div></div>	none	500.0	test	n/a	n/a	n/a	n/a	n/a	n/a	n/a	n/a	n/a	n/a	n/a	n/a	n/a	n/a	n/a	n/a	n/a	n/a	fixation
