onset	duration	text	rt	key_press	block_duration	timing_post_trial	trial_id	trial_type	trial_index	time_elapsed	internal_node_id	exp_id	subject_id	trigger_times	triggers	stimulus	possible_responses	stim_duration	exp_stage	SS_stimulus	SS_trial_type	SS_duration	load	trial_num	stop_trial_type	adaptive_trial_type	stim	yes_response_key	no_response_key	SSD_target	SSD_non_target	SSTarget	SSNonTarget	go_acc	SS_delay	stop_acc	adaptive_acc	new_trial_type
test	10880.0	n/a	-1	-1	10880	0.0	practice-no-stop-feedback	poldrack-single-stim	6	109750	0.0-6.0	beast_fmri_test	388	98861,/,99540,/,100221,/,100902,/,101581,/,102262,/,102941,/,103622,/,104302,/,104983,/,105663,/,106343,/,107023,/,107703,/,108382,/,109063,/,109747,/	t,t,t,t,t,t,t,t,t,t,t,t,t,t,t,t,t	"<div class = ""centerbox2_2""><p class = ""block-text2"">Your delay is 2 trials.</p><p class = block-text2>Please wait for the scanner to start the block</p></div>"	77	10880.0	n/a	n/a	n/a	n/a	n/a	n/a	n/a	n/a	n/a	n/a	n/a	n/a	n/a	n/a	n/a	n/a	n/a	n/a	n/a	start_functional_block
11392	500.0	n/a	-1	-1	500	0.0	fixation	poldrack-single-stim	7	110253	0.0-7.0-0.0	beast_fmri_test	388	n/a	n/a	<div class = centerbox2><div class = fixation>+</div></div>	none	500.0	test	n/a	n/a	n/a	n/a	n/a	n/a	n/a	n/a	n/a	n/a	n/a	n/a	n/a	n/a	n/a	n/a	n/a	n/a	fixation
11091.07110860222	2750.0	n/a	2285	89	2750	307.928891398	stim	stop-signal	8	113010	0.0-7.0-1.0	beast_fmri_test	388	110427,/,111107,/,111787,/,112467,/,113145,/	t,t,t,t,t	<img class = center src='/static/experiments/beast_fmri_test/images/V.png'></img>	71,89	2750.0	test	<img class = center src='/static/experiments/beast_fmri_test/images/redV.png'></img>	go	-1.0	2.0	0.0	go	temp-non-target	V	71,Index Finger	89,Middle Finger	500.0	500.0	0.0	0.0	0.0	n/a	n/a	n/a	go_stim
13841.07110860222	307.928891398	n/a	2285	89	2750	307.928891398	stim	stop-signal	8	113010	0.0-7.0-1.0	beast_fmri_test	388	110427,/,111107,/,111787,/,112467,/,113145,/	t,t,t,t,t	<img class = center src='/static/experiments/beast_fmri_test/images/V.png'></img>	71,89	2750.0	test	<img class = center src='/static/experiments/beast_fmri_test/images/redV.png'></img>	go	-1.0	2.0	0.0	go	temp-non-target	V	71,Index Finger	89,Middle Finger	500.0	500.0	0.0	0.0	0.0	n/a	n/a	n/a	ITI
14967	500.0	n/a	-1	-1	500	0.0	fixation	poldrack-single-stim	9	113828	0.0-7.1-0.1	beast_fmri_test	388	113827,/	t	<div class = centerbox2><div class = fixation>+</div></div>	none	500.0	test	n/a	n/a	n/a	n/a	n/a	n/a	n/a	n/a	n/a	n/a	n/a	n/a	n/a	n/a	n/a	n/a	n/a	n/a	fixation
13151.685632661422	2750.0	n/a	1702	89	2750	1820.31436734	stim	stop-signal	10	116583	0.0-7.1-1.1	beast_fmri_test	388	114506,/,115187,/,115867,/,116546,/,117225,/,117906,/	t,t,t,t,t,t	<img class = center src='/static/experiments/beast_fmri_test/images/P.png'></img>	71,89	2750.0	test	<img class = center src='/static/experiments/beast_fmri_test/images/redP.png'></img>	go	-1.0	2.0	1.0	go	temp-non-target	P	71,Index Finger	89,Middle Finger	500.0	500.0	0.0	0.0	0.0	n/a	n/a	n/a	go_stim
15901.685632661422	1820.31436734	n/a	1702	89	2750	1820.31436734	stim	stop-signal	10	116583	0.0-7.1-1.1	beast_fmri_test	388	114506,/,115187,/,115867,/,116546,/,117225,/,117906,/	t,t,t,t,t,t	<img class = center src='/static/experiments/beast_fmri_test/images/P.png'></img>	71,89	2750.0	test	<img class = center src='/static/experiments/beast_fmri_test/images/redP.png'></img>	go	-1.0	2.0	1.0	go	temp-non-target	P	71,Index Finger	89,Middle Finger	500.0	500.0	0.0	0.0	0.0	n/a	n/a	n/a	ITI
20050	500.0	n/a	-1	-1	500	0.0	fixation	poldrack-single-stim	11	118911	0.0-7.2-0.2	beast_fmri_test	388	118585,/	t	<div class = centerbox2><div class = fixation>+</div></div>	none	500.0	test	n/a	n/a	n/a	n/a	n/a	n/a	n/a	n/a	n/a	n/a	n/a	n/a	n/a	n/a	n/a	n/a	n/a	n/a	fixation
19345.231979956079	500.0	n/a	786	71	2750	712.768020044	stim	stop-signal	12	121669	0.0-7.2-1.2	beast_fmri_test	388	119269,/,119951,/,120631,/,121311,/,121990,/	t,t,t,t,t	<img class = center src='/static/experiments/beast_fmri_test/images/V.png'></img>	71,89	2750.0	test	<img class = center src='/static/experiments/beast_fmri_test/images/redV.png'></img>	stop	2250.0	2.0	2.0	stop	target	V	71,Index Finger	89,Middle Finger	500.0	500.0	2250.0	0.0	0.0	500.0	0.0	n/a	go_stim
21595.231979956079	2250.0	n/a	786	71	2750	712.768020044	stim	stop-signal	12	121669	0.0-7.2-1.2	beast_fmri_test	388	119269,/,119951,/,120631,/,121311,/,121990,/	t,t,t,t,t	<img class = center src='/static/experiments/beast_fmri_test/images/V.png'></img>	71,89	2750.0	test	<img class = center src='/static/experiments/beast_fmri_test/images/redV.png'></img>	stop	2250.0	2.0	2.0	stop	target	V	71,Index Finger	89,Middle Finger	500.0	500.0	2250.0	0.0	0.0	500.0	0.0	n/a	stop_stim
22095.231979956079	712.768020044	n/a	786	71	2750	712.768020044	stim	stop-signal	12	121669	0.0-7.2-1.2	beast_fmri_test	388	119269,/,119951,/,120631,/,121311,/,121990,/	t,t,t,t,t	<img class = center src='/static/experiments/beast_fmri_test/images/V.png'></img>	71,89	2750.0	test	<img class = center src='/static/experiments/beast_fmri_test/images/redV.png'></img>	stop	2250.0	2.0	2.0	stop	target	V	71,Index Finger	89,Middle Finger	500.0	500.0	2250.0	0.0	0.0	500.0	0.0	n/a	ITI
24027	500.0	n/a	-1	-1	500	0.0	fixation	poldrack-single-stim	13	122888	0.0-7.3-0.3	beast_fmri_test	388	122670,/	t	<div class = centerbox2><div class = fixation>+</div></div>	none	500.0	test	n/a	n/a	n/a	n/a	n/a	n/a	n/a	n/a	n/a	n/a	n/a	n/a	n/a	n/a	n/a	n/a	n/a	n/a	fixation
22928.61366698386	2750.0	n/a	1557	89	2750	1102.38633302	stim	stop-signal	14	125642	0.0-7.3-1.3	beast_fmri_test	388	123349,/,124031,/,124711,/,125391,/,126069,/	t,t,t,t,t	<img class = center src='/static/experiments/beast_fmri_test/images/V.png'></img>	71,89	2750.0	test	<img class = center src='/static/experiments/beast_fmri_test/images/redV.png'></img>	go	2250.0	2.0	3.0	go	non-target	V	71,Index Finger	89,Middle Finger	450.0	500.0	2250.0	2250.0	1.0	500.0	n/a	1.0	go_stim
25678.61366698386	1102.38633302	n/a	1557	89	2750	1102.38633302	stim	stop-signal	14	125642	0.0-7.3-1.3	beast_fmri_test	388	123349,/,124031,/,124711,/,125391,/,126069,/	t,t,t,t,t	<img class = center src='/static/experiments/beast_fmri_test/images/V.png'></img>	71,89	2750.0	test	<img class = center src='/static/experiments/beast_fmri_test/images/redV.png'></img>	go	2250.0	2.0	3.0	go	non-target	V	71,Index Finger	89,Middle Finger	450.0	500.0	2250.0	2250.0	1.0	500.0	n/a	1.0	ITI
28390	500.0	n/a	-1	-1	500	0.0	fixation	poldrack-single-stim	15	127251	0.0-7.4-0.4	beast_fmri_test	388	126751,/	t	<div class = centerbox2><div class = fixation>+</div></div>	none	500.0	test	n/a	n/a	n/a	n/a	n/a	n/a	n/a	n/a	n/a	n/a	n/a	n/a	n/a	n/a	n/a	n/a	n/a	n/a	fixation
27830.840619687573	450.0	n/a	-1	-1	2750	566.159380312	stim	stop-signal	16	130008	0.0-7.4-1.4	beast_fmri_test	388	127430,/,128110,/,128791,/,129474,/,130154,/	t,t,t,t,t	<img class = center src='/static/experiments/beast_fmri_test/images/V.png'></img>	71,89	2750.0	test	<img class = center src='/static/experiments/beast_fmri_test/images/redV.png'></img>	stop	2300.0	2.0	4.0	stop	target	V	71,Index Finger	89,Middle Finger	450.0	500.0	2300.0	2250.0	0.0	450.0	1.0	n/a	go_stim
30130.840619687573	2300.0	n/a	-1	-1	2750	566.159380312	stim	stop-signal	16	130008	0.0-7.4-1.4	beast_fmri_test	388	127430,/,128110,/,128791,/,129474,/,130154,/	t,t,t,t,t	<img class = center src='/static/experiments/beast_fmri_test/images/V.png'></img>	71,89	2750.0	test	<img class = center src='/static/experiments/beast_fmri_test/images/redV.png'></img>	stop	2300.0	2.0	4.0	stop	target	V	71,Index Finger	89,Middle Finger	450.0	500.0	2300.0	2250.0	0.0	450.0	1.0	n/a	stop_stim
30580.840619687573	566.159380312	n/a	-1	-1	2750	566.159380312	stim	stop-signal	16	130008	0.0-7.4-1.4	beast_fmri_test	388	127430,/,128110,/,128791,/,129474,/,130154,/	t,t,t,t,t	<img class = center src='/static/experiments/beast_fmri_test/images/V.png'></img>	71,89	2750.0	test	<img class = center src='/static/experiments/beast_fmri_test/images/redV.png'></img>	stop	2300.0	2.0	4.0	stop	target	V	71,Index Finger	89,Middle Finger	450.0	500.0	2300.0	2250.0	0.0	450.0	1.0	n/a	ITI
32221	500.0	n/a	-1	-1	500	0.0	fixation	poldrack-single-stim	17	131082	0.0-7.5-0.5	beast_fmri_test	388	130835,/	t	<div class = centerbox2><div class = fixation>+</div></div>	none	500.0	test	n/a	n/a	n/a	n/a	n/a	n/a	n/a	n/a	n/a	n/a	n/a	n/a	n/a	n/a	n/a	n/a	n/a	n/a	fixation
31368.655137612659	500.0	n/a	-1	-1	2750	855.344862387	stim	stop-signal	18	133835	0.0-7.5-1.5	beast_fmri_test	388	131515,/,132195,/,132876,/,133556,/,134236,/	t,t,t,t,t	<img class = center src='/static/experiments/beast_fmri_test/images/P.png'></img>	71,89	2750.0	test	<img class = center src='/static/experiments/beast_fmri_test/images/redP.png'></img>	stop	2250.0	2.0	5.0	stop	non-target	P	71,Index Finger	89,Middle Finger	500.0	500.0	2300.0	2250.0	0.0	500.0	1.0	n/a	go_stim
33618.655137612659	2250.0	n/a	-1	-1	2750	855.344862387	stim	stop-signal	18	133835	0.0-7.5-1.5	beast_fmri_test	388	131515,/,132195,/,132876,/,133556,/,134236,/	t,t,t,t,t	<img class = center src='/static/experiments/beast_fmri_test/images/P.png'></img>	71,89	2750.0	test	<img class = center src='/static/experiments/beast_fmri_test/images/redP.png'></img>	stop	2250.0	2.0	5.0	stop	non-target	P	71,Index Finger	89,Middle Finger	500.0	500.0	2300.0	2250.0	0.0	500.0	1.0	n/a	stop_stim
34118.655137612659	855.344862387	n/a	-1	-1	2750	855.344862387	stim	stop-signal	18	133835	0.0-7.5-1.5	beast_fmri_test	388	131515,/,132195,/,132876,/,133556,/,134236,/	t,t,t,t,t	<img class = center src='/static/experiments/beast_fmri_test/images/P.png'></img>	71,89	2750.0	test	<img class = center src='/static/experiments/beast_fmri_test/images/redP.png'></img>	stop	2250.0	2.0	5.0	stop	non-target	P	71,Index Finger	89,Middle Finger	500.0	500.0	2300.0	2250.0	0.0	500.0	1.0	n/a	ITI
36338	500.0	n/a	-1	-1	500	0.0	fixation	poldrack-single-stim	19	135199	0.0-7.6-0.6	beast_fmri_test	388	134916,/	t	<div class = centerbox2><div class = fixation>+</div></div>	none	500.0	test	n/a	n/a	n/a	n/a	n/a	n/a	n/a	n/a	n/a	n/a	n/a	n/a	n/a	n/a	n/a	n/a	n/a	n/a	fixation
34703.712368639623	2750.0	n/a	1170	89	2750	1636.28763136	stim	stop-signal	20	137951	0.0-7.6-1.6	beast_fmri_test	388	135596,/,136276,/,136955,/,137636,/,138316,/,138996,/	t,t,t,t,t,t	<img class = center src='/static/experiments/beast_fmri_test/images/D.png'></img>	71,89	2750.0	test	<img class = center src='/static/experiments/beast_fmri_test/images/redD.png'></img>	go	2200.0	2.0	6.0	go	non-target	D	71,Index Finger	89,Middle Finger	500.0	550.0	2300.0	2200.0	1.0	550.0	n/a	1.0	go_stim
37453.712368639623	1636.28763136	n/a	1170	89	2750	1636.28763136	stim	stop-signal	20	137951	0.0-7.6-1.6	beast_fmri_test	388	135596,/,136276,/,136955,/,137636,/,138316,/,138996,/	t,t,t,t,t,t	<img class = center src='/static/experiments/beast_fmri_test/images/D.png'></img>	71,89	2750.0	test	<img class = center src='/static/experiments/beast_fmri_test/images/redD.png'></img>	go	2200.0	2.0	6.0	go	non-target	D	71,Index Finger	89,Middle Finger	500.0	550.0	2300.0	2200.0	1.0	550.0	n/a	1.0	ITI
41238	500.0	n/a	-1	-1	500	0.0	fixation	poldrack-single-stim	21	140099	0.0-7.7-0.7	beast_fmri_test	388	139678,/	t	<div class = centerbox2><div class = fixation>+</div></div>	none	500.0	test	n/a	n/a	n/a	n/a	n/a	n/a	n/a	n/a	n/a	n/a	n/a	n/a	n/a	n/a	n/a	n/a	n/a	n/a	fixation
39833.657144380413	2750.0	n/a	1094	71	2750	1408.34285562	stim	stop-signal	22	142853	0.0-7.7-1.7	beast_fmri_test	388	140361,/,141040,/,141720,/,142398,/,143078,/,143759,/	t,t,t,t,t,t	<img class = center src='/static/experiments/beast_fmri_test/images/P.png'></img>	71,89	2750.0	test	<img class = center src='/static/experiments/beast_fmri_test/images/redP.png'></img>	go	2250.0	2.0	7.0	go	target	P	71,Index Finger	89,Middle Finger	500.0	550.0	2250.0	2200.0	1.0	500.0	n/a	1.0	go_stim
42583.657144380413	1408.34285562	n/a	1094	71	2750	1408.34285562	stim	stop-signal	22	142853	0.0-7.7-1.7	beast_fmri_test	388	140361,/,141040,/,141720,/,142398,/,143078,/,143759,/	t,t,t,t,t,t	<img class = center src='/static/experiments/beast_fmri_test/images/P.png'></img>	71,89	2750.0	test	<img class = center src='/static/experiments/beast_fmri_test/images/redP.png'></img>	go	2250.0	2.0	7.0	go	target	P	71,Index Finger	89,Middle Finger	500.0	550.0	2250.0	2200.0	1.0	500.0	n/a	1.0	ITI
45909	500.0	n/a	-1	-1	500	0.0	fixation	poldrack-single-stim	23	144770	0.0-7.8-0.8	beast_fmri_test	388	144440,/	t	<div class = centerbox2><div class = fixation>+</div></div>	none	500.0	test	n/a	n/a	n/a	n/a	n/a	n/a	n/a	n/a	n/a	n/a	n/a	n/a	n/a	n/a	n/a	n/a	n/a	n/a	fixation
43132.194813324779	2750.0	n/a	1280	71	2750	2779.80518668	stim	stop-signal	24	147523	0.0-7.8-1.8	beast_fmri_test	388	145119,/,145799,/,146479,/,147160,/,147840,/,148520,/,149202,/,149883,/	t,t,t,t,t,t,t,t	<img class = center src='/static/experiments/beast_fmri_test/images/D.png'></img>	71,89	2750.0	test	<img class = center src='/static/experiments/beast_fmri_test/images/redD.png'></img>	go	2250.0	2.0	8.0	go	target	D	71,Index Finger	89,Middle Finger	500.0	550.0	2250.0	2200.0	1.0	500.0	n/a	1.0	go_stim
45882.194813324779	2779.80518668	n/a	1280	71	2750	2779.80518668	stim	stop-signal	24	147523	0.0-7.8-1.8	beast_fmri_test	388	145119,/,145799,/,146479,/,147160,/,147840,/,148520,/,149202,/,149883,/	t,t,t,t,t,t,t,t	<img class = center src='/static/experiments/beast_fmri_test/images/D.png'></img>	71,89	2750.0	test	<img class = center src='/static/experiments/beast_fmri_test/images/redD.png'></img>	go	2250.0	2.0	8.0	go	target	D	71,Index Finger	89,Middle Finger	500.0	550.0	2250.0	2200.0	1.0	500.0	n/a	1.0	ITI
51953	500.0	n/a	-1	-1	500	0.0	fixation	poldrack-single-stim	25	150814	0.0-7.9-0.9	beast_fmri_test	388	150563,/	t	<div class = centerbox2><div class = fixation>+</div></div>	none	500.0	test	n/a	n/a	n/a	n/a	n/a	n/a	n/a	n/a	n/a	n/a	n/a	n/a	n/a	n/a	n/a	n/a	n/a	n/a	fixation
51584.203293666069	2750.0	n/a	945	71	2750	372.796706334	stim	stop-signal	26	153568	0.0-7.9-1.9	beast_fmri_test	388	151244,/,151924,/,152604,/,153284,/	t,t,t,t	<img class = center src='/static/experiments/beast_fmri_test/images/P.png'></img>	71,89	2750.0	test	<img class = center src='/static/experiments/beast_fmri_test/images/redP.png'></img>	go	2250.0	2.0	9.0	go	target	P	71,Index Finger	89,Middle Finger	500.0	550.0	2250.0	2200.0	1.0	500.0	n/a	1.0	go_stim
54334.203293666069	372.796706334	n/a	945	71	2750	372.796706334	stim	stop-signal	26	153568	0.0-7.9-1.9	beast_fmri_test	388	151244,/,151924,/,152604,/,153284,/	t,t,t,t	<img class = center src='/static/experiments/beast_fmri_test/images/P.png'></img>	71,89	2750.0	test	<img class = center src='/static/experiments/beast_fmri_test/images/redP.png'></img>	go	2250.0	2.0	9.0	go	target	P	71,Index Finger	89,Middle Finger	500.0	550.0	2250.0	2200.0	1.0	500.0	n/a	1.0	ITI
55587	500.0	n/a	-1	-1	500	0.0	fixation	poldrack-single-stim	27	154448	0.0-7.10-0.10	beast_fmri_test	388	153964,/	t	<div class = centerbox2><div class = fixation>+</div></div>	none	500.0	test	n/a	n/a	n/a	n/a	n/a	n/a	n/a	n/a	n/a	n/a	n/a	n/a	n/a	n/a	n/a	n/a	n/a	n/a	fixation
51976.282429120794	2750.0	n/a	1374	71	2750	3614.71757088	stim	stop-signal	28	157202	0.0-7.10-1.10	beast_fmri_test	388	154644,/,155324,/,156004,/,156684,/,157364,/,158044,/,158724,/,159406,/,160088,/,160767,/	t,t,t,t,t,t,t,t,t,t	<img class = center src='/static/experiments/beast_fmri_test/images/D.png'></img>	71,89	2750.0	test	<img class = center src='/static/experiments/beast_fmri_test/images/redD.png'></img>	go	2250.0	2.0	10.0	go	target	D	71,Index Finger	89,Middle Finger	500.0	550.0	2250.0	2200.0	1.0	500.0	n/a	1.0	go_stim
54726.282429120794	3614.71757088	n/a	1374	71	2750	3614.71757088	stim	stop-signal	28	157202	0.0-7.10-1.10	beast_fmri_test	388	154644,/,155324,/,156004,/,156684,/,157364,/,158044,/,158724,/,159406,/,160088,/,160767,/	t,t,t,t,t,t,t,t,t,t	<img class = center src='/static/experiments/beast_fmri_test/images/D.png'></img>	71,89	2750.0	test	<img class = center src='/static/experiments/beast_fmri_test/images/redD.png'></img>	go	2250.0	2.0	10.0	go	target	D	71,Index Finger	89,Middle Finger	500.0	550.0	2250.0	2200.0	1.0	500.0	n/a	1.0	ITI
62467	500.0	n/a	-1	-1	500	0.0	fixation	poldrack-single-stim	29	161328	0.0-7.11-0.11	beast_fmri_test	388	n/a	n/a	<div class = centerbox2><div class = fixation>+</div></div>	none	500.0	test	n/a	n/a	n/a	n/a	n/a	n/a	n/a	n/a	n/a	n/a	n/a	n/a	n/a	n/a	n/a	n/a	n/a	n/a	fixation
62457.213697875675	2750.0	n/a	1204	89	2750	12.7863021243	stim	stop-signal	30	164081	0.0-7.11-1.11	beast_fmri_test	388	161447,/,162129,/,162808,/,163489,/	t,t,t,t	<img class = center src='/static/experiments/beast_fmri_test/images/B.png'></img>	71,89	2750.0	test	<img class = center src='/static/experiments/beast_fmri_test/images/redB.png'></img>	go	2200.0	2.0	11.0	go	non-target	B	71,Index Finger	89,Middle Finger	500.0	550.0	2250.0	2200.0	1.0	550.0	n/a	1.0	go_stim
65207.213697875675	12.7863021243	n/a	1204	89	2750	12.7863021243	stim	stop-signal	30	164081	0.0-7.11-1.11	beast_fmri_test	388	161447,/,162129,/,162808,/,163489,/	t,t,t,t	<img class = center src='/static/experiments/beast_fmri_test/images/B.png'></img>	71,89	2750.0	test	<img class = center src='/static/experiments/beast_fmri_test/images/redB.png'></img>	go	2200.0	2.0	11.0	go	non-target	B	71,Index Finger	89,Middle Finger	500.0	550.0	2250.0	2200.0	1.0	550.0	n/a	1.0	ITI
65740	500.0	n/a	-1	-1	500	0.0	fixation	poldrack-single-stim	31	164601	0.0-7.12-0.12	beast_fmri_test	388	164167,/	t	<div class = centerbox2><div class = fixation>+</div></div>	none	500.0	test	n/a	n/a	n/a	n/a	n/a	n/a	n/a	n/a	n/a	n/a	n/a	n/a	n/a	n/a	n/a	n/a	n/a	n/a	fixation
65488.574316919578	550.0	n/a	-1	-1	2750	254.42568308	stim	stop-signal	32	167354	0.0-7.12-1.12	beast_fmri_test	388	164849,/,165529,/,166209,/,166889,/,167569,/	t,t,t,t,t	<img class = center src='/static/experiments/beast_fmri_test/images/V.png'></img>	71,89	2750.0	test	<img class = center src='/static/experiments/beast_fmri_test/images/redV.png'></img>	stop	2200.0	2.0	12.0	stop	non-target	V	71,Index Finger	89,Middle Finger	500.0	550.0	2250.0	2200.0	0.0	550.0	1.0	n/a	go_stim
67688.574316919578	2200.0	n/a	-1	-1	2750	254.42568308	stim	stop-signal	32	167354	0.0-7.12-1.12	beast_fmri_test	388	164849,/,165529,/,166209,/,166889,/,167569,/	t,t,t,t,t	<img class = center src='/static/experiments/beast_fmri_test/images/V.png'></img>	71,89	2750.0	test	<img class = center src='/static/experiments/beast_fmri_test/images/redV.png'></img>	stop	2200.0	2.0	12.0	stop	non-target	V	71,Index Finger	89,Middle Finger	500.0	550.0	2250.0	2200.0	0.0	550.0	1.0	n/a	stop_stim
68238.574316919578	254.42568308	n/a	-1	-1	2750	254.42568308	stim	stop-signal	32	167354	0.0-7.12-1.12	beast_fmri_test	388	164849,/,165529,/,166209,/,166889,/,167569,/	t,t,t,t,t	<img class = center src='/static/experiments/beast_fmri_test/images/V.png'></img>	71,89	2750.0	test	<img class = center src='/static/experiments/beast_fmri_test/images/redV.png'></img>	stop	2200.0	2.0	12.0	stop	non-target	V	71,Index Finger	89,Middle Finger	500.0	550.0	2250.0	2200.0	0.0	550.0	1.0	n/a	ITI
69258	500.0	n/a	-1	-1	500	0.0	fixation	poldrack-single-stim	33	168119	0.0-7.13-0.13	beast_fmri_test	388	n/a	n/a	<div class = centerbox2><div class = fixation>+</div></div>	none	500.0	test	n/a	n/a	n/a	n/a	n/a	n/a	n/a	n/a	n/a	n/a	n/a	n/a	n/a	n/a	n/a	n/a	n/a	n/a	fixation
69186.300863324286	2750.0	n/a	1258	89	2750	78.6991366757	stim	stop-signal	34	170876	0.0-7.13-1.13	beast_fmri_test	388	168249,/,168930,/,169612,/,170293,/	t,t,t,t	<img class = center src='/static/experiments/beast_fmri_test/images/D.png'></img>	71,89	2750.0	test	<img class = center src='/static/experiments/beast_fmri_test/images/redD.png'></img>	go	2150.0	2.0	13.0	go	non-target	D	71,Index Finger	89,Middle Finger	500.0	600.0	2250.0	2150.0	1.0	600.0	n/a	1.0	go_stim
71936.300863324286	78.6991366757	n/a	1258	89	2750	78.6991366757	stim	stop-signal	34	170876	0.0-7.13-1.13	beast_fmri_test	388	168249,/,168930,/,169612,/,170293,/	t,t,t,t	<img class = center src='/static/experiments/beast_fmri_test/images/D.png'></img>	71,89	2750.0	test	<img class = center src='/static/experiments/beast_fmri_test/images/redD.png'></img>	go	2150.0	2.0	13.0	go	non-target	D	71,Index Finger	89,Middle Finger	500.0	600.0	2250.0	2150.0	1.0	600.0	n/a	1.0	ITI
72601	500.0	n/a	-1	-1	500	0.0	fixation	poldrack-single-stim	35	171462	0.0-7.14-0.14	beast_fmri_test	388	170972,/	t	<div class = centerbox2><div class = fixation>+</div></div>	none	500.0	test	n/a	n/a	n/a	n/a	n/a	n/a	n/a	n/a	n/a	n/a	n/a	n/a	n/a	n/a	n/a	n/a	n/a	n/a	fixation
70297.45544693261	2750.0	n/a	2587	89	2750	2307.54455307	stim	stop-signal	36	174216	0.0-7.14-1.14	beast_fmri_test	388	171654,/,172333,/,173013,/,173693,/,174373,/,175052,/,175733,/,176413,/	t,t,t,t,t,t,t,t	<img class = center src='/static/experiments/beast_fmri_test/images/B.png'></img>	71,89	2750.0	test	<img class = center src='/static/experiments/beast_fmri_test/images/redB.png'></img>	go	2150.0	2.0	14.0	go	non-target	B	71,Index Finger	89,Middle Finger	500.0	600.0	2250.0	2150.0	1.0	600.0	n/a	1.0	go_stim
73047.45544693261	2307.54455307	n/a	2587	89	2750	2307.54455307	stim	stop-signal	36	174216	0.0-7.14-1.14	beast_fmri_test	388	171654,/,172333,/,173013,/,173693,/,174373,/,175052,/,175733,/,176413,/	t,t,t,t,t,t,t,t	<img class = center src='/static/experiments/beast_fmri_test/images/B.png'></img>	71,89	2750.0	test	<img class = center src='/static/experiments/beast_fmri_test/images/redB.png'></img>	go	2150.0	2.0	14.0	go	non-target	B	71,Index Finger	89,Middle Finger	500.0	600.0	2250.0	2150.0	1.0	600.0	n/a	1.0	ITI
78172	500.0	n/a	-1	-1	500	0.0	fixation	poldrack-single-stim	37	177033	0.0-7.15-0.15	beast_fmri_test	388	n/a	n/a	<div class = centerbox2><div class = fixation>+</div></div>	none	500.0	test	n/a	n/a	n/a	n/a	n/a	n/a	n/a	n/a	n/a	n/a	n/a	n/a	n/a	n/a	n/a	n/a	n/a	n/a	fixation
74752.834140676103	2750.0	n/a	1528	89	2750	3427.16585932	stim	stop-signal	38	179791	0.0-7.15-1.15	beast_fmri_test	388	177093,/,177773,/,178453,/,179134,/,179815,/,180497,/,181177,/,181857,/,182537,/,183217,/	t,t,t,t,t,t,t,t,t,t	<img class = center src='/static/experiments/beast_fmri_test/images/B.png'></img>	71,89	2750.0	test	<img class = center src='/static/experiments/beast_fmri_test/images/redB.png'></img>	go	2150.0	2.0	15.0	go	non-target	B	71,Index Finger	89,Middle Finger	500.0	600.0	2250.0	2150.0	1.0	600.0	n/a	1.0	go_stim
77502.834140676103	3427.16585932	n/a	1528	89	2750	3427.16585932	stim	stop-signal	38	179791	0.0-7.15-1.15	beast_fmri_test	388	177093,/,177773,/,178453,/,179134,/,179815,/,180497,/,181177,/,181857,/,182537,/,183217,/	t,t,t,t,t,t,t,t,t,t	<img class = center src='/static/experiments/beast_fmri_test/images/B.png'></img>	71,89	2750.0	test	<img class = center src='/static/experiments/beast_fmri_test/images/redB.png'></img>	go	2150.0	2.0	15.0	go	non-target	B	71,Index Finger	89,Middle Finger	500.0	600.0	2250.0	2150.0	1.0	600.0	n/a	1.0	ITI
84865	500.0	n/a	-1	-1	500	0.0	fixation	poldrack-single-stim	39	183726	0.0-7.16-0.16	beast_fmri_test	388	n/a	n/a	<div class = centerbox2><div class = fixation>+</div></div>	none	500.0	test	n/a	n/a	n/a	n/a	n/a	n/a	n/a	n/a	n/a	n/a	n/a	n/a	n/a	n/a	n/a	n/a	n/a	n/a	fixation
84859.302125013463	600.0	n/a	-1	-1	2750	9.69787498654	stim	stop-signal	40	186480	0.0-7.16-1.16	beast_fmri_test	388	183897,/,184577,/,185257,/,185937,/	t,t,t,t	<img class = center src='/static/experiments/beast_fmri_test/images/P.png'></img>	71,89	2750.0	test	<img class = center src='/static/experiments/beast_fmri_test/images/redP.png'></img>	stop	2150.0	2.0	16.0	stop	non-target	P	71,Index Finger	89,Middle Finger	500.0	600.0	2250.0	2150.0	0.0	600.0	1.0	n/a	go_stim
87009.302125013463	2150.0	n/a	-1	-1	2750	9.69787498654	stim	stop-signal	40	186480	0.0-7.16-1.16	beast_fmri_test	388	183897,/,184577,/,185257,/,185937,/	t,t,t,t	<img class = center src='/static/experiments/beast_fmri_test/images/P.png'></img>	71,89	2750.0	test	<img class = center src='/static/experiments/beast_fmri_test/images/redP.png'></img>	stop	2150.0	2.0	16.0	stop	non-target	P	71,Index Finger	89,Middle Finger	500.0	600.0	2250.0	2150.0	0.0	600.0	1.0	n/a	stop_stim
87609.302125013463	9.69787498654	n/a	-1	-1	2750	9.69787498654	stim	stop-signal	40	186480	0.0-7.16-1.16	beast_fmri_test	388	183897,/,184577,/,185257,/,185937,/	t,t,t,t	<img class = center src='/static/experiments/beast_fmri_test/images/P.png'></img>	71,89	2750.0	test	<img class = center src='/static/experiments/beast_fmri_test/images/redP.png'></img>	stop	2150.0	2.0	16.0	stop	non-target	P	71,Index Finger	89,Middle Finger	500.0	600.0	2250.0	2150.0	0.0	600.0	1.0	n/a	ITI
88136	500.0	n/a	-1	-1	500	0.0	fixation	poldrack-single-stim	41	186997	0.0-7.17-0.17	beast_fmri_test	388	186618,/	t	<div class = centerbox2><div class = fixation>+</div></div>	none	500.0	test	n/a	n/a	n/a	n/a	n/a	n/a	n/a	n/a	n/a	n/a	n/a	n/a	n/a	n/a	n/a	n/a	n/a	n/a	fixation
86985.077323598089	2750.0	n/a	1350	89	2750	1157.9226764	stim	stop-signal	42	189754	0.0-7.17-1.17	beast_fmri_test	388	187298,/,187978,/,188658,/,189340,/,190023,/,190702,/	t,t,t,t,t,t	<img class = center src='/static/experiments/beast_fmri_test/images/V.png'></img>	71,89	2750.0	test	<img class = center src='/static/experiments/beast_fmri_test/images/redV.png'></img>	go	2100.0	2.0	17.0	go	non-target	V	71,Index Finger	89,Middle Finger	500.0	650.0	2250.0	2100.0	1.0	650.0	n/a	1.0	go_stim
89735.077323598089	1157.9226764	n/a	1350	89	2750	1157.9226764	stim	stop-signal	42	189754	0.0-7.17-1.17	beast_fmri_test	388	187298,/,187978,/,188658,/,189340,/,190023,/,190702,/	t,t,t,t,t,t	<img class = center src='/static/experiments/beast_fmri_test/images/V.png'></img>	71,89	2750.0	test	<img class = center src='/static/experiments/beast_fmri_test/images/redV.png'></img>	go	2100.0	2.0	17.0	go	non-target	V	71,Index Finger	89,Middle Finger	500.0	650.0	2250.0	2100.0	1.0	650.0	n/a	1.0	ITI
92561	500.0	n/a	-1	-1	500	0.0	fixation	poldrack-single-stim	43	191422	0.0-7.18-0.18	beast_fmri_test	388	191382,/	t	<div class = centerbox2><div class = fixation>+</div></div>	none	500.0	test	n/a	n/a	n/a	n/a	n/a	n/a	n/a	n/a	n/a	n/a	n/a	n/a	n/a	n/a	n/a	n/a	n/a	n/a	fixation
91759.382915192982	2750.0	n/a	1193	89	2750	805.617084807	stim	stop-signal	44	194176	0.0-7.18-1.18	beast_fmri_test	388	192062,/,192742,/,193420,/,194104,/,194786,/	t,t,t,t,t	<img class = center src='/static/experiments/beast_fmri_test/images/D.png'></img>	71,89	2750.0	test	<img class = center src='/static/experiments/beast_fmri_test/images/redD.png'></img>	go	2100.0	2.0	18.0	go	non-target	D	71,Index Finger	89,Middle Finger	500.0	650.0	2250.0	2100.0	1.0	650.0	n/a	1.0	go_stim
94509.382915192982	805.617084807	n/a	1193	89	2750	805.617084807	stim	stop-signal	44	194176	0.0-7.18-1.18	beast_fmri_test	388	192062,/,192742,/,193420,/,194104,/,194786,/	t,t,t,t,t	<img class = center src='/static/experiments/beast_fmri_test/images/D.png'></img>	71,89	2750.0	test	<img class = center src='/static/experiments/beast_fmri_test/images/redD.png'></img>	go	2100.0	2.0	18.0	go	non-target	D	71,Index Finger	89,Middle Finger	500.0	650.0	2250.0	2100.0	1.0	650.0	n/a	1.0	ITI
96633	500.0	n/a	-1	-1	500	0.0	fixation	poldrack-single-stim	45	195494	0.0-7.19-0.19	beast_fmri_test	388	195467,/	t	<div class = centerbox2><div class = fixation>+</div></div>	none	500.0	test	n/a	n/a	n/a	n/a	n/a	n/a	n/a	n/a	n/a	n/a	n/a	n/a	n/a	n/a	n/a	n/a	n/a	n/a	fixation
95745.13438641961	2750.0	n/a	1819	89	2750	890.86561358	stim	stop-signal	46	198247	0.0-7.19-1.19	beast_fmri_test	388	196146,/,196827,/,197506,/,198186,/,198867,/	t,t,t,t,t	<img class = center src='/static/experiments/beast_fmri_test/images/T.png'></img>	71,89	2750.0	test	<img class = center src='/static/experiments/beast_fmri_test/images/redT.png'></img>	go	2100.0	2.0	19.0	go	non-target	T	71,Index Finger	89,Middle Finger	500.0	650.0	2250.0	2100.0	1.0	650.0	n/a	1.0	go_stim
98495.13438641961	890.86561358	n/a	1819	89	2750	890.86561358	stim	stop-signal	46	198247	0.0-7.19-1.19	beast_fmri_test	388	196146,/,196827,/,197506,/,198186,/,198867,/	t,t,t,t,t	<img class = center src='/static/experiments/beast_fmri_test/images/T.png'></img>	71,89	2750.0	test	<img class = center src='/static/experiments/beast_fmri_test/images/redT.png'></img>	go	2100.0	2.0	19.0	go	non-target	T	71,Index Finger	89,Middle Finger	500.0	650.0	2250.0	2100.0	1.0	650.0	n/a	1.0	ITI
100793	500.0	n/a	-1	-1	500	0.0	fixation	poldrack-single-stim	47	199654	0.0-7.20-0.20	beast_fmri_test	388	199547,/	t	<div class = centerbox2><div class = fixation>+</div></div>	none	500.0	test	n/a	n/a	n/a	n/a	n/a	n/a	n/a	n/a	n/a	n/a	n/a	n/a	n/a	n/a	n/a	n/a	n/a	n/a	fixation
100645.88570772446	2750.0	n/a	1114	71	2750	151.114292276	stim	stop-signal	48	202408	0.0-7.20-1.20	beast_fmri_test	388	200226,/,200906,/,201587,/,202266,/	t,t,t,t	<img class = center src='/static/experiments/beast_fmri_test/images/D.png'></img>	71,89	2750.0	test	<img class = center src='/static/experiments/beast_fmri_test/images/redD.png'></img>	go	2250.0	2.0	20.0	go	target	D	71,Index Finger	89,Middle Finger	500.0	650.0	2250.0	2100.0	1.0	500.0	n/a	1.0	go_stim
103395.88570772446	151.114292276	n/a	1114	71	2750	151.114292276	stim	stop-signal	48	202408	0.0-7.20-1.20	beast_fmri_test	388	200226,/,200906,/,201587,/,202266,/	t,t,t,t	<img class = center src='/static/experiments/beast_fmri_test/images/D.png'></img>	71,89	2750.0	test	<img class = center src='/static/experiments/beast_fmri_test/images/redD.png'></img>	go	2250.0	2.0	20.0	go	target	D	71,Index Finger	89,Middle Finger	500.0	650.0	2250.0	2100.0	1.0	500.0	n/a	1.0	ITI
104210	500.0	n/a	-1	-1	500	0.0	fixation	poldrack-single-stim	49	203071	0.0-7.21-0.21	beast_fmri_test	388	202946,/	t	<div class = centerbox2><div class = fixation>+</div></div>	none	500.0	test	n/a	n/a	n/a	n/a	n/a	n/a	n/a	n/a	n/a	n/a	n/a	n/a	n/a	n/a	n/a	n/a	n/a	n/a	fixation
104094.21642445819	2750.0	n/a	1523	89	2750	118.783575542	stim	stop-signal	50	205824	0.0-7.21-1.21	beast_fmri_test	388	203626,/,204307,/,204986,/,205666,/	t,t,t,t	<img class = center src='/static/experiments/beast_fmri_test/images/D.png'></img>	71,89	2750.0	test	<img class = center src='/static/experiments/beast_fmri_test/images/redD.png'></img>	go	2100.0	2.0	21.0	go	non-target	D	71,Index Finger	89,Middle Finger	500.0	650.0	2250.0	2100.0	1.0	650.0	n/a	1.0	go_stim
106844.21642445819	118.783575542	n/a	1523	89	2750	118.783575542	stim	stop-signal	50	205824	0.0-7.21-1.21	beast_fmri_test	388	203626,/,204307,/,204986,/,205666,/	t,t,t,t	<img class = center src='/static/experiments/beast_fmri_test/images/D.png'></img>	71,89	2750.0	test	<img class = center src='/static/experiments/beast_fmri_test/images/redD.png'></img>	go	2100.0	2.0	21.0	go	non-target	D	71,Index Finger	89,Middle Finger	500.0	650.0	2250.0	2100.0	1.0	650.0	n/a	1.0	ITI
107590	500.0	n/a	-1	-1	500	0.0	fixation	poldrack-single-stim	51	206451	0.0-7.22-0.22	beast_fmri_test	388	206347,/	t	<div class = centerbox2><div class = fixation>+</div></div>	none	500.0	test	n/a	n/a	n/a	n/a	n/a	n/a	n/a	n/a	n/a	n/a	n/a	n/a	n/a	n/a	n/a	n/a	n/a	n/a	fixation
106776.65982410533	2750.0	n/a	1477	71	2750	817.340175895	stim	stop-signal	52	209205	0.0-7.22-1.22	beast_fmri_test	388	207025,/,207706,/,208385,/,209068,/,209750,/	t,t,t,t,t	<img class = center src='/static/experiments/beast_fmri_test/images/D.png'></img>	71,89	2750.0	test	<img class = center src='/static/experiments/beast_fmri_test/images/redD.png'></img>	go	2250.0	2.0	22.0	go	target	D	71,Index Finger	89,Middle Finger	500.0	650.0	2250.0	2100.0	1.0	500.0	n/a	1.0	go_stim
109526.65982410533	817.340175895	n/a	1477	71	2750	817.340175895	stim	stop-signal	52	209205	0.0-7.22-1.22	beast_fmri_test	388	207025,/,207706,/,208385,/,209068,/,209750,/	t,t,t,t,t	<img class = center src='/static/experiments/beast_fmri_test/images/D.png'></img>	71,89	2750.0	test	<img class = center src='/static/experiments/beast_fmri_test/images/redD.png'></img>	go	2250.0	2.0	22.0	go	target	D	71,Index Finger	89,Middle Finger	500.0	650.0	2250.0	2100.0	1.0	500.0	n/a	1.0	ITI
111678	500.0	n/a	-1	-1	500	0.0	fixation	poldrack-single-stim	53	210539	0.0-7.23-0.23	beast_fmri_test	388	210431,/	t	<div class = centerbox2><div class = fixation>+</div></div>	none	500.0	test	n/a	n/a	n/a	n/a	n/a	n/a	n/a	n/a	n/a	n/a	n/a	n/a	n/a	n/a	n/a	n/a	n/a	n/a	fixation
109939.23055100589	2750.0	n/a	1511	89	2750	1741.76944899	stim	stop-signal	54	213292	0.0-7.23-1.23	beast_fmri_test	388	211109,/,211790,/,212470,/,213150,/,213830,/,214511,/	t,t,t,t,t,t	<img class = center src='/static/experiments/beast_fmri_test/images/P.png'></img>	71,89	2750.0	test	<img class = center src='/static/experiments/beast_fmri_test/images/redP.png'></img>	go	2100.0	2.0	23.0	go	non-target	P	71,Index Finger	89,Middle Finger	500.0	650.0	2250.0	2100.0	1.0	650.0	n/a	1.0	go_stim
112689.23055100589	1741.76944899	n/a	1511	89	2750	1741.76944899	stim	stop-signal	54	213292	0.0-7.23-1.23	beast_fmri_test	388	211109,/,211790,/,212470,/,213150,/,213830,/,214511,/	t,t,t,t,t,t	<img class = center src='/static/experiments/beast_fmri_test/images/P.png'></img>	71,89	2750.0	test	<img class = center src='/static/experiments/beast_fmri_test/images/redP.png'></img>	go	2100.0	2.0	23.0	go	non-target	P	71,Index Finger	89,Middle Finger	500.0	650.0	2250.0	2100.0	1.0	650.0	n/a	1.0	ITI
116683	500.0	n/a	-1	-1	500	0.0	fixation	poldrack-single-stim	55	215544	0.0-7.24-0.24	beast_fmri_test	388	215191,/	t	<div class = centerbox2><div class = fixation>+</div></div>	none	500.0	test	n/a	n/a	n/a	n/a	n/a	n/a	n/a	n/a	n/a	n/a	n/a	n/a	n/a	n/a	n/a	n/a	n/a	n/a	fixation
116146.31070286015	2750.0	n/a	1206	89	2750	539.68929714	stim	stop-signal	56	218297	0.0-7.24-1.24	beast_fmri_test	388	215871,/,216551,/,217232,/,217910,/,218592,/	t,t,t,t,t	<img class = center src='/static/experiments/beast_fmri_test/images/V.png'></img>	71,89	2750.0	test	<img class = center src='/static/experiments/beast_fmri_test/images/redV.png'></img>	go	2100.0	2.0	24.0	go	non-target	V	71,Index Finger	89,Middle Finger	500.0	650.0	2250.0	2100.0	1.0	650.0	n/a	1.0	go_stim
118896.31070286015	539.68929714	n/a	1206	89	2750	539.68929714	stim	stop-signal	56	218297	0.0-7.24-1.24	beast_fmri_test	388	215871,/,216551,/,217232,/,217910,/,218592,/	t,t,t,t,t	<img class = center src='/static/experiments/beast_fmri_test/images/V.png'></img>	71,89	2750.0	test	<img class = center src='/static/experiments/beast_fmri_test/images/redV.png'></img>	go	2100.0	2.0	24.0	go	non-target	V	71,Index Finger	89,Middle Finger	500.0	650.0	2250.0	2100.0	1.0	650.0	n/a	1.0	ITI
120489	500.0	n/a	-1	-1	500	0.0	fixation	poldrack-single-stim	57	219350	0.0-7.25-0.25	beast_fmri_test	388	219274,/	t	<div class = centerbox2><div class = fixation>+</div></div>	none	500.0	test	n/a	n/a	n/a	n/a	n/a	n/a	n/a	n/a	n/a	n/a	n/a	n/a	n/a	n/a	n/a	n/a	n/a	n/a	fixation
119736.28094497387	650.0	n/a	-1	-1	2750	757.719055026	stim	stop-signal	58	222105	0.0-7.25-1.25	beast_fmri_test	388	219956,/,220636,/,221315,/,221996,/,222676,/	t,t,t,t,t	<img class = center src='/static/experiments/beast_fmri_test/images/B.png'></img>	71,89	2750.0	test	<img class = center src='/static/experiments/beast_fmri_test/images/redB.png'></img>	stop	2100.0	2.0	25.0	stop	non-target	B	71,Index Finger	89,Middle Finger	500.0	650.0	2250.0	2100.0	0.0	650.0	1.0	n/a	go_stim
121836.28094497387	2100.0	n/a	-1	-1	2750	757.719055026	stim	stop-signal	58	222105	0.0-7.25-1.25	beast_fmri_test	388	219956,/,220636,/,221315,/,221996,/,222676,/	t,t,t,t,t	<img class = center src='/static/experiments/beast_fmri_test/images/B.png'></img>	71,89	2750.0	test	<img class = center src='/static/experiments/beast_fmri_test/images/redB.png'></img>	stop	2100.0	2.0	25.0	stop	non-target	B	71,Index Finger	89,Middle Finger	500.0	650.0	2250.0	2100.0	0.0	650.0	1.0	n/a	stop_stim
122486.28094497387	757.719055026	n/a	-1	-1	2750	757.719055026	stim	stop-signal	58	222105	0.0-7.25-1.25	beast_fmri_test	388	219956,/,220636,/,221315,/,221996,/,222676,/	t,t,t,t,t	<img class = center src='/static/experiments/beast_fmri_test/images/B.png'></img>	71,89	2750.0	test	<img class = center src='/static/experiments/beast_fmri_test/images/redB.png'></img>	stop	2100.0	2.0	25.0	stop	non-target	B	71,Index Finger	89,Middle Finger	500.0	650.0	2250.0	2100.0	0.0	650.0	1.0	n/a	ITI
124513	500.0	n/a	-1	-1	500	0.0	fixation	poldrack-single-stim	59	223374	0.0-7.26-0.26	beast_fmri_test	388	223355,/	t	<div class = centerbox2><div class = fixation>+</div></div>	none	500.0	test	n/a	n/a	n/a	n/a	n/a	n/a	n/a	n/a	n/a	n/a	n/a	n/a	n/a	n/a	n/a	n/a	n/a	n/a	fixation
124258.4676628593	700.0	n/a	-1	-1	2750	258.532337141	stim	stop-signal	60	226128	0.0-7.26-1.26	beast_fmri_test	388	224036,/,224716,/,225395,/,226075,/	t,t,t,t	<img class = center src='/static/experiments/beast_fmri_test/images/D.png'></img>	71,89	2750.0	test	<img class = center src='/static/experiments/beast_fmri_test/images/redD.png'></img>	stop	2050.0	2.0	26.0	stop	non-target	D	71,Index Finger	89,Middle Finger	500.0	700.0	2250.0	2050.0	0.0	700.0	1.0	n/a	go_stim
126308.4676628593	2050.0	n/a	-1	-1	2750	258.532337141	stim	stop-signal	60	226128	0.0-7.26-1.26	beast_fmri_test	388	224036,/,224716,/,225395,/,226075,/	t,t,t,t	<img class = center src='/static/experiments/beast_fmri_test/images/D.png'></img>	71,89	2750.0	test	<img class = center src='/static/experiments/beast_fmri_test/images/redD.png'></img>	stop	2050.0	2.0	26.0	stop	non-target	D	71,Index Finger	89,Middle Finger	500.0	700.0	2250.0	2050.0	0.0	700.0	1.0	n/a	stop_stim
127008.4676628593	258.532337141	n/a	-1	-1	2750	258.532337141	stim	stop-signal	60	226128	0.0-7.26-1.26	beast_fmri_test	388	224036,/,224716,/,225395,/,226075,/	t,t,t,t	<img class = center src='/static/experiments/beast_fmri_test/images/D.png'></img>	71,89	2750.0	test	<img class = center src='/static/experiments/beast_fmri_test/images/redD.png'></img>	stop	2050.0	2.0	26.0	stop	non-target	D	71,Index Finger	89,Middle Finger	500.0	700.0	2250.0	2050.0	0.0	700.0	1.0	n/a	ITI
128039	500.0	n/a	-1	-1	500	0.0	fixation	poldrack-single-stim	61	226900	0.0-7.27-0.27	beast_fmri_test	388	226754,/	t	<div class = centerbox2><div class = fixation>+</div></div>	none	500.0	test	n/a	n/a	n/a	n/a	n/a	n/a	n/a	n/a	n/a	n/a	n/a	n/a	n/a	n/a	n/a	n/a	n/a	n/a	fixation
126720.25927405828	500.0	n/a	-1	-1	2750	1324.74072594	stim	stop-signal	62	229656	0.0-7.27-1.27	beast_fmri_test	388	227434,/,228115,/,228796,/,229478,/,230160,/,230838,/	t,t,t,t,t,t	<img class = center src='/static/experiments/beast_fmri_test/images/B.png'></img>	71,89	2750.0	test	<img class = center src='/static/experiments/beast_fmri_test/images/redB.png'></img>	stop	2250.0	2.0	27.0	stop	target	B	71,Index Finger	89,Middle Finger	500.0	750.0	2250.0	2050.0	0.0	500.0	1.0	n/a	go_stim
128970.25927405828	2250.0	n/a	-1	-1	2750	1324.74072594	stim	stop-signal	62	229656	0.0-7.27-1.27	beast_fmri_test	388	227434,/,228115,/,228796,/,229478,/,230160,/,230838,/	t,t,t,t,t,t	<img class = center src='/static/experiments/beast_fmri_test/images/B.png'></img>	71,89	2750.0	test	<img class = center src='/static/experiments/beast_fmri_test/images/redB.png'></img>	stop	2250.0	2.0	27.0	stop	target	B	71,Index Finger	89,Middle Finger	500.0	750.0	2250.0	2050.0	0.0	500.0	1.0	n/a	stop_stim
129470.25927405828	1324.74072594	n/a	-1	-1	2750	1324.74072594	stim	stop-signal	62	229656	0.0-7.27-1.27	beast_fmri_test	388	227434,/,228115,/,228796,/,229478,/,230160,/,230838,/	t,t,t,t,t,t	<img class = center src='/static/experiments/beast_fmri_test/images/B.png'></img>	71,89	2750.0	test	<img class = center src='/static/experiments/beast_fmri_test/images/redB.png'></img>	stop	2250.0	2.0	27.0	stop	target	B	71,Index Finger	89,Middle Finger	500.0	750.0	2250.0	2050.0	0.0	500.0	1.0	n/a	ITI
132630	500.0	n/a	-1	-1	500	0.0	fixation	poldrack-single-stim	63	231491	0.0-7.28-0.28	beast_fmri_test	388	n/a	n/a	<div class = centerbox2><div class = fixation>+</div></div>	none	500.0	test	n/a	n/a	n/a	n/a	n/a	n/a	n/a	n/a	n/a	n/a	n/a	n/a	n/a	n/a	n/a	n/a	n/a	n/a	fixation
132451.33781888167	2750.0	n/a	1298	89	2750	182.662181118	stim	stop-signal	64	234245	0.0-7.28-1.28	beast_fmri_test	388	231518,/,232200,/,232880,/,233560,/,234241,/	t,t,t,t,t	<img class = center src='/static/experiments/beast_fmri_test/images/D.png'></img>	71,89	2750.0	test	<img class = center src='/static/experiments/beast_fmri_test/images/redD.png'></img>	go	2200.0	2.0	28.0	go	target	D	71,Index Finger	89,Middle Finger	550.0	750.0	2200.0	2050.0	0.0	550.0	n/a	0.0	go_stim
135201.33781888167	182.662181118	n/a	1298	89	2750	182.662181118	stim	stop-signal	64	234245	0.0-7.28-1.28	beast_fmri_test	388	231518,/,232200,/,232880,/,233560,/,234241,/	t,t,t,t,t	<img class = center src='/static/experiments/beast_fmri_test/images/D.png'></img>	71,89	2750.0	test	<img class = center src='/static/experiments/beast_fmri_test/images/redD.png'></img>	go	2200.0	2.0	28.0	go	target	D	71,Index Finger	89,Middle Finger	550.0	750.0	2200.0	2050.0	0.0	550.0	n/a	0.0	ITI
136081	500.0	n/a	-1	-1	500	0.0	fixation	poldrack-single-stim	65	234942	0.0-7.29-0.29	beast_fmri_test	388	234924,/	t	<div class = centerbox2><div class = fixation>+</div></div>	none	500.0	test	n/a	n/a	n/a	n/a	n/a	n/a	n/a	n/a	n/a	n/a	n/a	n/a	n/a	n/a	n/a	n/a	n/a	n/a	fixation
136018.17883464982	2750.0	n/a	1948	89	2750	65.8211653502	stim	stop-signal	66	237695	0.0-7.29-1.29	beast_fmri_test	388	235604,/,236284,/,236962,/,237644,/	t,t,t,t	<img class = center src='/static/experiments/beast_fmri_test/images/V.png'></img>	71,89	2750.0	test	<img class = center src='/static/experiments/beast_fmri_test/images/redV.png'></img>	go	2000.0	2.0	29.0	go	non-target	V	71,Index Finger	89,Middle Finger	550.0	750.0	2200.0	2000.0	1.0	750.0	n/a	1.0	go_stim
138768.17883464982	65.8211653502	n/a	1948	89	2750	65.8211653502	stim	stop-signal	66	237695	0.0-7.29-1.29	beast_fmri_test	388	235604,/,236284,/,236962,/,237644,/	t,t,t,t	<img class = center src='/static/experiments/beast_fmri_test/images/V.png'></img>	71,89	2750.0	test	<img class = center src='/static/experiments/beast_fmri_test/images/redV.png'></img>	go	2000.0	2.0	29.0	go	non-target	V	71,Index Finger	89,Middle Finger	550.0	750.0	2200.0	2000.0	1.0	750.0	n/a	1.0	ITI
139410	500.0	n/a	-1	-1	500	0.0	fixation	poldrack-single-stim	67	238271	0.0-7.30-0.30	beast_fmri_test	388	n/a	n/a	<div class = centerbox2><div class = fixation>+</div></div>	none	500.0	test	n/a	n/a	n/a	n/a	n/a	n/a	n/a	n/a	n/a	n/a	n/a	n/a	n/a	n/a	n/a	n/a	n/a	n/a	fixation
137158.08652373479	2750.0	n/a	1697	89	2750	2254.91347627	stim	stop-signal	68	241024	0.0-7.30-1.30	beast_fmri_test	388	238324,/,239004,/,239683,/,240363,/,241042,/,241724,/,242405,/,243084,/	t,t,t,t,t,t,t,t	<img class = center src='/static/experiments/beast_fmri_test/images/T.png'></img>	71,89	2750.0	test	<img class = center src='/static/experiments/beast_fmri_test/images/redT.png'></img>	go	2000.0	2.0	30.0	go	non-target	T	71,Index Finger	89,Middle Finger	550.0	750.0	2200.0	2000.0	1.0	750.0	n/a	1.0	go_stim
139908.08652373479	2254.91347627	n/a	1697	89	2750	2254.91347627	stim	stop-signal	68	241024	0.0-7.30-1.30	beast_fmri_test	388	238324,/,239004,/,239683,/,240363,/,241042,/,241724,/,242405,/,243084,/	t,t,t,t,t,t,t,t	<img class = center src='/static/experiments/beast_fmri_test/images/T.png'></img>	71,89	2750.0	test	<img class = center src='/static/experiments/beast_fmri_test/images/redT.png'></img>	go	2000.0	2.0	30.0	go	non-target	T	71,Index Finger	89,Middle Finger	550.0	750.0	2200.0	2000.0	1.0	750.0	n/a	1.0	ITI
144929	500.0	n/a	-1	-1	500	0.0	fixation	poldrack-single-stim	69	243790	0.0-7.31-0.31	beast_fmri_test	388	243764,/	t	<div class = centerbox2><div class = fixation>+</div></div>	none	500.0	test	n/a	n/a	n/a	n/a	n/a	n/a	n/a	n/a	n/a	n/a	n/a	n/a	n/a	n/a	n/a	n/a	n/a	n/a	fixation
144778.16477033196	750.0	n/a	-1	-1	2750	153.835229668	stim	stop-signal	70	246543	0.0-7.31-1.31	beast_fmri_test	388	244445,/,245123,/,245805,/,246484,/	t,t,t,t	<img class = center src='/static/experiments/beast_fmri_test/images/D.png'></img>	71,89	2750.0	test	<img class = center src='/static/experiments/beast_fmri_test/images/redD.png'></img>	stop	2000.0	2.0	31.0	stop	non-target	D	71,Index Finger	89,Middle Finger	550.0	750.0	2200.0	2000.0	0.0	750.0	1.0	n/a	go_stim
146778.16477033196	2000.0	n/a	-1	-1	2750	153.835229668	stim	stop-signal	70	246543	0.0-7.31-1.31	beast_fmri_test	388	244445,/,245123,/,245805,/,246484,/	t,t,t,t	<img class = center src='/static/experiments/beast_fmri_test/images/D.png'></img>	71,89	2750.0	test	<img class = center src='/static/experiments/beast_fmri_test/images/redD.png'></img>	stop	2000.0	2.0	31.0	stop	non-target	D	71,Index Finger	89,Middle Finger	550.0	750.0	2200.0	2000.0	0.0	750.0	1.0	n/a	stop_stim
147528.16477033196	153.835229668	n/a	-1	-1	2750	153.835229668	stim	stop-signal	70	246543	0.0-7.31-1.31	beast_fmri_test	388	244445,/,245123,/,245805,/,246484,/	t,t,t,t	<img class = center src='/static/experiments/beast_fmri_test/images/D.png'></img>	71,89	2750.0	test	<img class = center src='/static/experiments/beast_fmri_test/images/redD.png'></img>	stop	2000.0	2.0	31.0	stop	non-target	D	71,Index Finger	89,Middle Finger	550.0	750.0	2200.0	2000.0	0.0	750.0	1.0	n/a	ITI
148348	500.0	n/a	-1	-1	500	0.0	fixation	poldrack-single-stim	71	247209	0.0-7.32-0.32	beast_fmri_test	388	247165,/	t	<div class = centerbox2><div class = fixation>+</div></div>	none	500.0	test	n/a	n/a	n/a	n/a	n/a	n/a	n/a	n/a	n/a	n/a	n/a	n/a	n/a	n/a	n/a	n/a	n/a	n/a	fixation
145386.18466964629	550.0	n/a	-1	-1	2750	2968.81533035	stim	stop-signal	72	249966	0.0-7.32-1.32	beast_fmri_test	388	247845,/,248525,/,249206,/,249887,/,250569,/,251249,/,251929,/,252609,/	t,t,t,t,t,t,t,t	<img class = center src='/static/experiments/beast_fmri_test/images/T.png'></img>	71,89	2750.0	test	<img class = center src='/static/experiments/beast_fmri_test/images/redT.png'></img>	stop	2200.0	2.0	32.0	stop	target	T	71,Index Finger	89,Middle Finger	550.0	800.0	2200.0	2000.0	0.0	550.0	1.0	n/a	go_stim
147586.18466964629	2200.0	n/a	-1	-1	2750	2968.81533035	stim	stop-signal	72	249966	0.0-7.32-1.32	beast_fmri_test	388	247845,/,248525,/,249206,/,249887,/,250569,/,251249,/,251929,/,252609,/	t,t,t,t,t,t,t,t	<img class = center src='/static/experiments/beast_fmri_test/images/T.png'></img>	71,89	2750.0	test	<img class = center src='/static/experiments/beast_fmri_test/images/redT.png'></img>	stop	2200.0	2.0	32.0	stop	target	T	71,Index Finger	89,Middle Finger	550.0	800.0	2200.0	2000.0	0.0	550.0	1.0	n/a	stop_stim
148136.18466964629	2968.81533035	n/a	-1	-1	2750	2968.81533035	stim	stop-signal	72	249966	0.0-7.32-1.32	beast_fmri_test	388	247845,/,248525,/,249206,/,249887,/,250569,/,251249,/,251929,/,252609,/	t,t,t,t,t,t,t,t	<img class = center src='/static/experiments/beast_fmri_test/images/T.png'></img>	71,89	2750.0	test	<img class = center src='/static/experiments/beast_fmri_test/images/redT.png'></img>	stop	2200.0	2.0	32.0	stop	target	T	71,Index Finger	89,Middle Finger	550.0	800.0	2200.0	2000.0	0.0	550.0	1.0	n/a	ITI
154588	500.0	n/a	-1	-1	500	0.0	fixation	poldrack-single-stim	73	253449	0.0-7.33-0.33	beast_fmri_test	388	253289,/	t	<div class = centerbox2><div class = fixation>+</div></div>	none	500.0	test	n/a	n/a	n/a	n/a	n/a	n/a	n/a	n/a	n/a	n/a	n/a	n/a	n/a	n/a	n/a	n/a	n/a	n/a	fixation
153766.57983001883	800.0	n/a	-1	-1	2750	824.420169981	stim	stop-signal	74	256202	0.0-7.33-1.33	beast_fmri_test	388	253969,/,254649,/,255329,/,256009,/,256689,/	t,t,t,t,t	<img class = center src='/static/experiments/beast_fmri_test/images/P.png'></img>	71,89	2750.0	test	<img class = center src='/static/experiments/beast_fmri_test/images/redP.png'></img>	stop	1950.0	2.0	33.0	stop	non-target	P	71,Index Finger	89,Middle Finger	600.0	800.0	2200.0	1950.0	0.0	800.0	1.0	n/a	go_stim
155716.57983001883	1950.0	n/a	-1	-1	2750	824.420169981	stim	stop-signal	74	256202	0.0-7.33-1.33	beast_fmri_test	388	253969,/,254649,/,255329,/,256009,/,256689,/	t,t,t,t,t	<img class = center src='/static/experiments/beast_fmri_test/images/P.png'></img>	71,89	2750.0	test	<img class = center src='/static/experiments/beast_fmri_test/images/redP.png'></img>	stop	1950.0	2.0	33.0	stop	non-target	P	71,Index Finger	89,Middle Finger	600.0	800.0	2200.0	1950.0	0.0	800.0	1.0	n/a	stop_stim
156516.57983001883	824.420169981	n/a	-1	-1	2750	824.420169981	stim	stop-signal	74	256202	0.0-7.33-1.33	beast_fmri_test	388	253969,/,254649,/,255329,/,256009,/,256689,/	t,t,t,t,t	<img class = center src='/static/experiments/beast_fmri_test/images/P.png'></img>	71,89	2750.0	test	<img class = center src='/static/experiments/beast_fmri_test/images/redP.png'></img>	stop	1950.0	2.0	33.0	stop	non-target	P	71,Index Finger	89,Middle Finger	600.0	800.0	2200.0	1950.0	0.0	800.0	1.0	n/a	ITI
158683	500.0	n/a	-1	-1	500	0.0	fixation	poldrack-single-stim	75	257544	0.0-7.34-0.34	beast_fmri_test	388	257369,/	t	<div class = centerbox2><div class = fixation>+</div></div>	none	500.0	test	n/a	n/a	n/a	n/a	n/a	n/a	n/a	n/a	n/a	n/a	n/a	n/a	n/a	n/a	n/a	n/a	n/a	n/a	fixation
158478.32590517902	600.0	n/a	-1	-1	2750	212.674094821	stim	stop-signal	76	260302	0.0-7.34-1.34	beast_fmri_test	388	258048,/,258729,/,259411,/,260093,/	t,t,t,t	<img class = center src='/static/experiments/beast_fmri_test/images/T.png'></img>	71,89	2750.0	test	<img class = center src='/static/experiments/beast_fmri_test/images/redT.png'></img>	stop	2150.0	2.0	34.0	stop	target	T	71,Index Finger	89,Middle Finger	600.0	850.0	2150.0	1950.0	0.0	600.0	1.0	n/a	go_stim
160628.32590517902	2150.0	n/a	-1	-1	2750	212.674094821	stim	stop-signal	76	260302	0.0-7.34-1.34	beast_fmri_test	388	258048,/,258729,/,259411,/,260093,/	t,t,t,t	<img class = center src='/static/experiments/beast_fmri_test/images/T.png'></img>	71,89	2750.0	test	<img class = center src='/static/experiments/beast_fmri_test/images/redT.png'></img>	stop	2150.0	2.0	34.0	stop	target	T	71,Index Finger	89,Middle Finger	600.0	850.0	2150.0	1950.0	0.0	600.0	1.0	n/a	stop_stim
161228.32590517902	212.674094821	n/a	-1	-1	2750	212.674094821	stim	stop-signal	76	260302	0.0-7.34-1.34	beast_fmri_test	388	258048,/,258729,/,259411,/,260093,/	t,t,t,t	<img class = center src='/static/experiments/beast_fmri_test/images/T.png'></img>	71,89	2750.0	test	<img class = center src='/static/experiments/beast_fmri_test/images/redT.png'></img>	stop	2150.0	2.0	34.0	stop	target	T	71,Index Finger	89,Middle Finger	600.0	850.0	2150.0	1950.0	0.0	600.0	1.0	n/a	ITI
162168	500.0	n/a	-1	-1	500	0.0	fixation	poldrack-single-stim	77	261029	0.0-7.35-0.35	beast_fmri_test	388	260773,/	t	<div class = centerbox2><div class = fixation>+</div></div>	none	500.0	test	n/a	n/a	n/a	n/a	n/a	n/a	n/a	n/a	n/a	n/a	n/a	n/a	n/a	n/a	n/a	n/a	n/a	n/a	fixation
162075.39745226083	2750.0	n/a	2687	89	2750	96.6025477392	stim	stop-signal	78	263783	0.0-7.35-1.35	beast_fmri_test	388	261453,/,262132,/,262813,/,263496,/	t,t,t,t	<img class = center src='/static/experiments/beast_fmri_test/images/V.png'></img>	71,89	2750.0	test	<img class = center src='/static/experiments/beast_fmri_test/images/redV.png'></img>	go	1900.0	2.0	35.0	go	non-target	V	71,Index Finger	89,Middle Finger	650.0	850.0	2150.0	1900.0	1.0	850.0	n/a	1.0	go_stim
164825.39745226083	96.6025477392	n/a	2687	89	2750	96.6025477392	stim	stop-signal	78	263783	0.0-7.35-1.35	beast_fmri_test	388	261453,/,262132,/,262813,/,263496,/	t,t,t,t	<img class = center src='/static/experiments/beast_fmri_test/images/V.png'></img>	71,89	2750.0	test	<img class = center src='/static/experiments/beast_fmri_test/images/redV.png'></img>	go	1900.0	2.0	35.0	go	non-target	V	71,Index Finger	89,Middle Finger	650.0	850.0	2150.0	1900.0	1.0	850.0	n/a	1.0	ITI
165535	500.0	n/a	-1	-1	500	0.0	fixation	poldrack-single-stim	79	264396	0.0-7.36-0.36	beast_fmri_test	388	264173,/	t	<div class = centerbox2><div class = fixation>+</div></div>	none	500.0	test	n/a	n/a	n/a	n/a	n/a	n/a	n/a	n/a	n/a	n/a	n/a	n/a	n/a	n/a	n/a	n/a	n/a	n/a	fixation
164065.43345772615	2750.0	n/a	1505	89	2750	1472.56654227	stim	stop-signal	80	267149	0.0-7.36-1.36	beast_fmri_test	388	264853,/,265533,/,266213,/,266893,/,267573,/,268252,/	t,t,t,t,t,t	<img class = center src='/static/experiments/beast_fmri_test/images/V.png'></img>	71,89	2750.0	test	<img class = center src='/static/experiments/beast_fmri_test/images/redV.png'></img>	go	1900.0	2.0	36.0	go	non-target	V	71,Index Finger	89,Middle Finger	650.0	850.0	2150.0	1900.0	1.0	850.0	n/a	1.0	go_stim
166815.43345772615	1472.56654227	n/a	1505	89	2750	1472.56654227	stim	stop-signal	80	267149	0.0-7.36-1.36	beast_fmri_test	388	264853,/,265533,/,266213,/,266893,/,267573,/,268252,/	t,t,t,t,t,t	<img class = center src='/static/experiments/beast_fmri_test/images/V.png'></img>	71,89	2750.0	test	<img class = center src='/static/experiments/beast_fmri_test/images/redV.png'></img>	go	1900.0	2.0	36.0	go	non-target	V	71,Index Finger	89,Middle Finger	650.0	850.0	2150.0	1900.0	1.0	850.0	n/a	1.0	ITI
170278	500.0	n/a	-1	-1	500	0.0	fixation	poldrack-single-stim	81	269139	0.0-7.37-0.37	beast_fmri_test	388	268935,/	t	<div class = centerbox2><div class = fixation>+</div></div>	none	500.0	test	n/a	n/a	n/a	n/a	n/a	n/a	n/a	n/a	n/a	n/a	n/a	n/a	n/a	n/a	n/a	n/a	n/a	n/a	fixation
169354.83260400599	850.0	n/a	856	71	2750	928.167395994	stim	stop-signal	82	271894	0.0-7.37-1.37	beast_fmri_test	388	269617,/,270297,/,270978,/,271657,/,272338,/	t,t,t,t,t	<img class = center src='/static/experiments/beast_fmri_test/images/T.png'></img>	71,89	2750.0	test	<img class = center src='/static/experiments/beast_fmri_test/images/redT.png'></img>	stop	1900.0	2.0	37.0	stop	non-target	T	71,Index Finger	89,Middle Finger	650.0	850.0	2150.0	1900.0	0.0	850.0	0.0	n/a	go_stim
171254.83260400599	1900.0	n/a	856	71	2750	928.167395994	stim	stop-signal	82	271894	0.0-7.37-1.37	beast_fmri_test	388	269617,/,270297,/,270978,/,271657,/,272338,/	t,t,t,t,t	<img class = center src='/static/experiments/beast_fmri_test/images/T.png'></img>	71,89	2750.0	test	<img class = center src='/static/experiments/beast_fmri_test/images/redT.png'></img>	stop	1900.0	2.0	37.0	stop	non-target	T	71,Index Finger	89,Middle Finger	650.0	850.0	2150.0	1900.0	0.0	850.0	0.0	n/a	stop_stim
172104.83260400599	928.167395994	n/a	856	71	2750	928.167395994	stim	stop-signal	82	271894	0.0-7.37-1.37	beast_fmri_test	388	269617,/,270297,/,270978,/,271657,/,272338,/	t,t,t,t,t	<img class = center src='/static/experiments/beast_fmri_test/images/T.png'></img>	71,89	2750.0	test	<img class = center src='/static/experiments/beast_fmri_test/images/redT.png'></img>	stop	1900.0	2.0	37.0	stop	non-target	T	71,Index Finger	89,Middle Finger	650.0	850.0	2150.0	1900.0	0.0	850.0	0.0	n/a	ITI
174475	500.0	n/a	-1	-1	500	0.0	fixation	poldrack-single-stim	83	273336	0.0-7.38-0.38	beast_fmri_test	388	273018,/	t	<div class = centerbox2><div class = fixation>+</div></div>	none	500.0	test	n/a	n/a	n/a	n/a	n/a	n/a	n/a	n/a	n/a	n/a	n/a	n/a	n/a	n/a	n/a	n/a	n/a	n/a	fixation
173646.32642690517	2750.0	n/a	1722	89	2750	833.673573095	stim	stop-signal	84	276091	0.0-7.38-1.38	beast_fmri_test	388	273698,/,274377,/,275059,/,275738,/,276418,/	t,t,t,t,t	<img class = center src='/static/experiments/beast_fmri_test/images/T.png'></img>	71,89	2750.0	test	<img class = center src='/static/experiments/beast_fmri_test/images/redT.png'></img>	go	1950.0	2.0	38.0	go	non-target	T	71,Index Finger	89,Middle Finger	650.0	800.0	2150.0	1950.0	1.0	800.0	n/a	1.0	go_stim
176396.32642690517	833.673573095	n/a	1722	89	2750	833.673573095	stim	stop-signal	84	276091	0.0-7.38-1.38	beast_fmri_test	388	273698,/,274377,/,275059,/,275738,/,276418,/	t,t,t,t,t	<img class = center src='/static/experiments/beast_fmri_test/images/T.png'></img>	71,89	2750.0	test	<img class = center src='/static/experiments/beast_fmri_test/images/redT.png'></img>	go	1950.0	2.0	38.0	go	non-target	T	71,Index Finger	89,Middle Finger	650.0	800.0	2150.0	1950.0	1.0	800.0	n/a	1.0	ITI
178577	500.0	n/a	-1	-1	500	0.0	fixation	poldrack-single-stim	85	277438	0.0-7.39-0.39	beast_fmri_test	388	277097,/	t	<div class = centerbox2><div class = fixation>+</div></div>	none	500.0	test	n/a	n/a	n/a	n/a	n/a	n/a	n/a	n/a	n/a	n/a	n/a	n/a	n/a	n/a	n/a	n/a	n/a	n/a	fixation
178275.0029424486	2750.0	n/a	1456	89	2750	308.997057551	stim	stop-signal	86	280195	0.0-7.39-1.39	beast_fmri_test	388	277778,/,278458,/,279139,/,279822,/,280502,/	t,t,t,t,t	<img class = center src='/static/experiments/beast_fmri_test/images/B.png'></img>	71,89	2750.0	test	<img class = center src='/static/experiments/beast_fmri_test/images/redB.png'></img>	go	1950.0	2.0	39.0	go	non-target	B	71,Index Finger	89,Middle Finger	650.0	800.0	2150.0	1950.0	1.0	800.0	n/a	1.0	go_stim
181025.0029424486	308.997057551	n/a	1456	89	2750	308.997057551	stim	stop-signal	86	280195	0.0-7.39-1.39	beast_fmri_test	388	277778,/,278458,/,279139,/,279822,/,280502,/	t,t,t,t,t	<img class = center src='/static/experiments/beast_fmri_test/images/B.png'></img>	71,89	2750.0	test	<img class = center src='/static/experiments/beast_fmri_test/images/redB.png'></img>	go	1950.0	2.0	39.0	go	non-target	B	71,Index Finger	89,Middle Finger	650.0	800.0	2150.0	1950.0	1.0	800.0	n/a	1.0	ITI
182156	500.0	n/a	-1	-1	500	0.0	fixation	poldrack-single-stim	87	281017	0.0-7.40-0.40	beast_fmri_test	388	n/a	n/a	<div class = centerbox2><div class = fixation>+</div></div>	none	500.0	test	n/a	n/a	n/a	n/a	n/a	n/a	n/a	n/a	n/a	n/a	n/a	n/a	n/a	n/a	n/a	n/a	n/a	n/a	fixation
181865.18417490518	2750.0	n/a	1758	89	2750	293.815825095	stim	stop-signal	88	283770	0.0-7.40-1.40	beast_fmri_test	388	281182,/,281862,/,282542,/,283222,/,283901,/	t,t,t,t,t	<img class = center src='/static/experiments/beast_fmri_test/images/B.png'></img>	71,89	2750.0	test	<img class = center src='/static/experiments/beast_fmri_test/images/redB.png'></img>	go	1950.0	2.0	40.0	go	non-target	B	71,Index Finger	89,Middle Finger	650.0	800.0	2150.0	1950.0	1.0	800.0	n/a	1.0	go_stim
184615.18417490518	293.815825095	n/a	1758	89	2750	293.815825095	stim	stop-signal	88	283770	0.0-7.40-1.40	beast_fmri_test	388	281182,/,281862,/,282542,/,283222,/,283901,/	t,t,t,t,t	<img class = center src='/static/experiments/beast_fmri_test/images/B.png'></img>	71,89	2750.0	test	<img class = center src='/static/experiments/beast_fmri_test/images/redB.png'></img>	go	1950.0	2.0	40.0	go	non-target	B	71,Index Finger	89,Middle Finger	650.0	800.0	2150.0	1950.0	1.0	800.0	n/a	1.0	ITI
185718	500.0	n/a	-1	-1	500	0.0	fixation	poldrack-single-stim	89	284579	0.0-7.41-0.41	beast_fmri_test	388	n/a	n/a	<div class = centerbox2><div class = fixation>+</div></div>	none	500.0	test	n/a	n/a	n/a	n/a	n/a	n/a	n/a	n/a	n/a	n/a	n/a	n/a	n/a	n/a	n/a	n/a	n/a	n/a	fixation
185718.80273592111	2750.0	n/a	1678	89	2750	1.1972640789	stim	stop-signal	90	287331	0.0-7.41-1.41	beast_fmri_test	388	284582,/,285266,/,285942,/,286621,/,287302,/	t,t,t,t,t	<img class = center src='/static/experiments/beast_fmri_test/images/V.png'></img>	71,89	2750.0	test	<img class = center src='/static/experiments/beast_fmri_test/images/redV.png'></img>	go	1950.0	2.0	41.0	go	non-target	V	71,Index Finger	89,Middle Finger	650.0	800.0	2150.0	1950.0	1.0	800.0	n/a	1.0	go_stim
188468.80273592111	1.1972640789	n/a	1678	89	2750	1.1972640789	stim	stop-signal	90	287331	0.0-7.41-1.41	beast_fmri_test	388	284582,/,285266,/,285942,/,286621,/,287302,/	t,t,t,t,t	<img class = center src='/static/experiments/beast_fmri_test/images/V.png'></img>	71,89	2750.0	test	<img class = center src='/static/experiments/beast_fmri_test/images/redV.png'></img>	go	1950.0	2.0	41.0	go	non-target	V	71,Index Finger	89,Middle Finger	650.0	800.0	2150.0	1950.0	1.0	800.0	n/a	1.0	ITI
188989	500.0	n/a	-1	-1	500	0.0	fixation	poldrack-single-stim	91	287850	0.0-7.42-0.42	beast_fmri_test	388	n/a	n/a	<div class = centerbox2><div class = fixation>+</div></div>	none	500.0	test	n/a	n/a	n/a	n/a	n/a	n/a	n/a	n/a	n/a	n/a	n/a	n/a	n/a	n/a	n/a	n/a	n/a	n/a	fixation
188322.96122762799	800.0	n/a	-1	-1	2750	674.038772372	stim	stop-signal	92	290608	0.0-7.42-1.42	beast_fmri_test	388	287983,/,288662,/,289345,/,290025,/,290706,/	t,t,t,t,t	<img class = center src='/static/experiments/beast_fmri_test/images/P.png'></img>	71,89	2750.0	test	<img class = center src='/static/experiments/beast_fmri_test/images/redP.png'></img>	stop	1950.0	2.0	42.0	stop	non-target	P	71,Index Finger	89,Middle Finger	650.0	800.0	2150.0	1950.0	0.0	800.0	1.0	n/a	go_stim
190272.96122762799	1950.0	n/a	-1	-1	2750	674.038772372	stim	stop-signal	92	290608	0.0-7.42-1.42	beast_fmri_test	388	287983,/,288662,/,289345,/,290025,/,290706,/	t,t,t,t,t	<img class = center src='/static/experiments/beast_fmri_test/images/P.png'></img>	71,89	2750.0	test	<img class = center src='/static/experiments/beast_fmri_test/images/redP.png'></img>	stop	1950.0	2.0	42.0	stop	non-target	P	71,Index Finger	89,Middle Finger	650.0	800.0	2150.0	1950.0	0.0	800.0	1.0	n/a	stop_stim
191072.96122762799	674.038772372	n/a	-1	-1	2750	674.038772372	stim	stop-signal	92	290608	0.0-7.42-1.42	beast_fmri_test	388	287983,/,288662,/,289345,/,290025,/,290706,/	t,t,t,t,t	<img class = center src='/static/experiments/beast_fmri_test/images/P.png'></img>	71,89	2750.0	test	<img class = center src='/static/experiments/beast_fmri_test/images/redP.png'></img>	stop	1950.0	2.0	42.0	stop	non-target	P	71,Index Finger	89,Middle Finger	650.0	800.0	2150.0	1950.0	0.0	800.0	1.0	n/a	ITI
192935	500.0	n/a	-1	-1	500	0.0	fixation	poldrack-single-stim	93	291796	0.0-7.43-0.43	beast_fmri_test	388	291386,/	t	<div class = centerbox2><div class = fixation>+</div></div>	none	500.0	test	n/a	n/a	n/a	n/a	n/a	n/a	n/a	n/a	n/a	n/a	n/a	n/a	n/a	n/a	n/a	n/a	n/a	n/a	fixation
187939.0	2750.0	n/a	1938	89	2750	5000.0	stim	stop-signal	94	294550	0.0-7.43-1.43	beast_fmri_test	388	292066,/,292746,/,293426,/,294106,/,294786,/,295466,/,296146,/,296826,/,297507,/,298186,/,298867,/,299550,/	t,t,t,t,t,t,t,t,t,t,t,t	<img class = center src='/static/experiments/beast_fmri_test/images/V.png'></img>	71,89	2750.0	test	<img class = center src='/static/experiments/beast_fmri_test/images/redV.png'></img>	go	2100.0	2.0	43.0	go	target	V	71,Index Finger	89,Middle Finger	650.0	850.0	2100.0	1950.0	0.0	650.0	n/a	0.0	go_stim
190689.0	5000.0	n/a	1938	89	2750	5000.0	stim	stop-signal	94	294550	0.0-7.43-1.43	beast_fmri_test	388	292066,/,292746,/,293426,/,294106,/,294786,/,295466,/,296146,/,296826,/,297507,/,298186,/,298867,/,299550,/	t,t,t,t,t,t,t,t,t,t,t,t	<img class = center src='/static/experiments/beast_fmri_test/images/V.png'></img>	71,89	2750.0	test	<img class = center src='/static/experiments/beast_fmri_test/images/redV.png'></img>	go	2100.0	2.0	43.0	go	target	V	71,Index Finger	89,Middle Finger	650.0	850.0	2100.0	1950.0	0.0	650.0	n/a	0.0	ITI
201206	500.0	n/a	-1	-1	500	0.0	fixation	poldrack-single-stim	95	300067	0.0-7.44-0.44	beast_fmri_test	388	n/a	n/a	<div class = centerbox2><div class = fixation>+</div></div>	none	500.0	test	n/a	n/a	n/a	n/a	n/a	n/a	n/a	n/a	n/a	n/a	n/a	n/a	n/a	n/a	n/a	n/a	n/a	n/a	fixation
201106.09612414037	2750.0	n/a	1708	89	2750	102.90387586	stim	stop-signal	96	302820	0.0-7.44-1.44	beast_fmri_test	388	300231,/,300911,/,301591,/,302272,/	t,t,t,t	<img class = center src='/static/experiments/beast_fmri_test/images/P.png'></img>	71,89	2750.0	test	<img class = center src='/static/experiments/beast_fmri_test/images/redP.png'></img>	go	2100.0	2.0	44.0	go	target	P	71,Index Finger	89,Middle Finger	650.0	850.0	2100.0	1950.0	0.0	650.0	n/a	0.0	go_stim
203856.09612414037	102.90387586	n/a	1708	89	2750	102.90387586	stim	stop-signal	96	302820	0.0-7.44-1.44	beast_fmri_test	388	300231,/,300911,/,301591,/,302272,/	t,t,t,t	<img class = center src='/static/experiments/beast_fmri_test/images/P.png'></img>	71,89	2750.0	test	<img class = center src='/static/experiments/beast_fmri_test/images/redP.png'></img>	go	2100.0	2.0	44.0	go	target	P	71,Index Finger	89,Middle Finger	650.0	850.0	2100.0	1950.0	0.0	650.0	n/a	0.0	ITI
204573	500.0	n/a	-1	-1	500	0.0	fixation	poldrack-single-stim	97	303434	0.0-7.45-0.45	beast_fmri_test	388	302951,/	t	<div class = centerbox2><div class = fixation>+</div></div>	none	500.0	test	n/a	n/a	n/a	n/a	n/a	n/a	n/a	n/a	n/a	n/a	n/a	n/a	n/a	n/a	n/a	n/a	n/a	n/a	fixation
203835.01343977958	850.0	n/a	-1	-1	2750	744.98656022	stim	stop-signal	98	306191	0.0-7.45-1.45	beast_fmri_test	388	303631,/,304312,/,304995,/,305674,/,306355,/	t,t,t,t,t	<img class = center src='/static/experiments/beast_fmri_test/images/T.png'></img>	71,89	2750.0	test	<img class = center src='/static/experiments/beast_fmri_test/images/redT.png'></img>	stop	1900.0	2.0	45.0	stop	non-target	T	71,Index Finger	89,Middle Finger	650.0	850.0	2100.0	1900.0	0.0	850.0	1.0	n/a	go_stim
205735.01343977958	1900.0	n/a	-1	-1	2750	744.98656022	stim	stop-signal	98	306191	0.0-7.45-1.45	beast_fmri_test	388	303631,/,304312,/,304995,/,305674,/,306355,/	t,t,t,t,t	<img class = center src='/static/experiments/beast_fmri_test/images/T.png'></img>	71,89	2750.0	test	<img class = center src='/static/experiments/beast_fmri_test/images/redT.png'></img>	stop	1900.0	2.0	45.0	stop	non-target	T	71,Index Finger	89,Middle Finger	650.0	850.0	2100.0	1900.0	0.0	850.0	1.0	n/a	stop_stim
206585.01343977958	744.98656022	n/a	-1	-1	2750	744.98656022	stim	stop-signal	98	306191	0.0-7.45-1.45	beast_fmri_test	388	303631,/,304312,/,304995,/,305674,/,306355,/	t,t,t,t,t	<img class = center src='/static/experiments/beast_fmri_test/images/T.png'></img>	71,89	2750.0	test	<img class = center src='/static/experiments/beast_fmri_test/images/redT.png'></img>	stop	1900.0	2.0	45.0	stop	non-target	T	71,Index Finger	89,Middle Finger	650.0	850.0	2100.0	1900.0	0.0	850.0	1.0	n/a	ITI
208591	500.0	n/a	-1	-1	500	0.0	fixation	poldrack-single-stim	99	307452	0.0-7.46-0.46	beast_fmri_test	388	307036,/	t	<div class = centerbox2><div class = fixation>+</div></div>	none	500.0	test	n/a	n/a	n/a	n/a	n/a	n/a	n/a	n/a	n/a	n/a	n/a	n/a	n/a	n/a	n/a	n/a	n/a	n/a	fixation
208121.43072854722	2750.0	n/a	900	71	2750	472.569271453	stim	stop-signal	100	310205	0.0-7.46-1.46	beast_fmri_test	388	307716,/,308396,/,309075,/,309755,/,310435,/	t,t,t,t,t	<img class = center src='/static/experiments/beast_fmri_test/images/P.png'></img>	71,89	2750.0	test	<img class = center src='/static/experiments/beast_fmri_test/images/redP.png'></img>	go	2100.0	2.0	46.0	go	target	P	71,Index Finger	89,Middle Finger	650.0	900.0	2100.0	1900.0	1.0	650.0	n/a	1.0	go_stim
210871.43072854722	472.569271453	n/a	900	71	2750	472.569271453	stim	stop-signal	100	310205	0.0-7.46-1.46	beast_fmri_test	388	307716,/,308396,/,309075,/,309755,/,310435,/	t,t,t,t,t	<img class = center src='/static/experiments/beast_fmri_test/images/P.png'></img>	71,89	2750.0	test	<img class = center src='/static/experiments/beast_fmri_test/images/redP.png'></img>	go	2100.0	2.0	46.0	go	target	P	71,Index Finger	89,Middle Finger	650.0	900.0	2100.0	1900.0	1.0	650.0	n/a	1.0	ITI
226838	15000.0	n/a	-1	-1	15000	0.0	practice-no-stop-feedback	poldrack-single-stim	101	325699	0.0-8.0	beast_fmri_test	388	311115,/,311796,/,312475,/,313156,/,313835,/,314515,/,315195,/,315875,/,316555,/,317235,/,317916,/,318595,/,319276,/,319959,/,320639,/,321320,/,321999,/,322680,/,323360,/,324039,/,324719,/,325401,/	t,t,t,t,t,t,t,t,t,t,t,t,t,t,t,t,t,t,t,t,t,t	"<div class = ""centerbox2_2""><p class = ""block-text2"">Your delay is 2 trials.</p><p class = block-text2>Please wait for the scanner to start the block</p></div>"	77	15000.0	n/a	n/a	n/a	n/a	n/a	n/a	n/a	n/a	n/a	n/a	n/a	n/a	n/a	n/a	n/a	n/a	n/a	n/a	n/a	practice-no-stop-feedback
227342	500.0	n/a	-1	-1	500	0.0	fixation	poldrack-single-stim	102	326203	0.0-9.0-0.0	beast_fmri_test	388	326079,/	t	<div class = centerbox2><div class = fixation>+</div></div>	none	500.0	test	n/a	n/a	n/a	n/a	n/a	n/a	n/a	n/a	n/a	n/a	n/a	n/a	n/a	n/a	n/a	n/a	n/a	n/a	fixation
227141.35266513604	2750.0	n/a	1082	89	2750	203.647334864	stim	stop-signal	103	328956	0.0-9.0-1.0	beast_fmri_test	388	326760,/,327440,/,328121,/,328799,/	t,t,t,t	<img class = center src='/static/experiments/beast_fmri_test/images/V.png'></img>	71,89	2750.0	test	<img class = center src='/static/experiments/beast_fmri_test/images/redV.png'></img>	go	-1.0	2.0	0.0	go	temp-non-target	V	71,Index Finger	89,Middle Finger	650.0	900.0	2100.0	1900.0	0.0	n/a	n/a	n/a	go_stim
229891.35266513604	203.647334864	n/a	1082	89	2750	203.647334864	stim	stop-signal	103	328956	0.0-9.0-1.0	beast_fmri_test	388	326760,/,327440,/,328121,/,328799,/	t,t,t,t	<img class = center src='/static/experiments/beast_fmri_test/images/V.png'></img>	71,89	2750.0	test	<img class = center src='/static/experiments/beast_fmri_test/images/redV.png'></img>	go	-1.0	2.0	0.0	go	temp-non-target	V	71,Index Finger	89,Middle Finger	650.0	900.0	2100.0	1900.0	0.0	n/a	n/a	n/a	ITI
230818	500.0	n/a	-1	-1	500	0.0	fixation	poldrack-single-stim	104	329679	0.0-9.1-0.1	beast_fmri_test	388	329483,/	t	<div class = centerbox2><div class = fixation>+</div></div>	none	500.0	test	n/a	n/a	n/a	n/a	n/a	n/a	n/a	n/a	n/a	n/a	n/a	n/a	n/a	n/a	n/a	n/a	n/a	n/a	fixation
230341.42454291449	2750.0	n/a	1145	89	2750	480.575457086	stim	stop-signal	105	332433	0.0-9.1-1.1	beast_fmri_test	388	330165,/,330844,/,331525,/,332205,/,332884,/	t,t,t,t,t	<img class = center src='/static/experiments/beast_fmri_test/images/V.png'></img>	71,89	2750.0	test	<img class = center src='/static/experiments/beast_fmri_test/images/redV.png'></img>	go	-1.0	2.0	1.0	go	temp-non-target	V	71,Index Finger	89,Middle Finger	650.0	900.0	2100.0	1900.0	0.0	n/a	n/a	n/a	go_stim
233091.42454291449	480.575457086	n/a	1145	89	2750	480.575457086	stim	stop-signal	105	332433	0.0-9.1-1.1	beast_fmri_test	388	330165,/,330844,/,331525,/,332205,/,332884,/	t,t,t,t,t	<img class = center src='/static/experiments/beast_fmri_test/images/V.png'></img>	71,89	2750.0	test	<img class = center src='/static/experiments/beast_fmri_test/images/redV.png'></img>	go	-1.0	2.0	1.0	go	temp-non-target	V	71,Index Finger	89,Middle Finger	650.0	900.0	2100.0	1900.0	0.0	n/a	n/a	n/a	ITI
234568	500.0	n/a	-1	-1	500	0.0	fixation	poldrack-single-stim	106	333429	0.0-9.2-0.2	beast_fmri_test	388	n/a	n/a	<div class = centerbox2><div class = fixation>+</div></div>	none	500.0	test	n/a	n/a	n/a	n/a	n/a	n/a	n/a	n/a	n/a	n/a	n/a	n/a	n/a	n/a	n/a	n/a	n/a	n/a	fixation
233749.92632073438	2750.0	n/a	877	71	2750	821.073679266	stim	stop-signal	107	336182	0.0-9.2-1.2	beast_fmri_test	388	333564,/,334244,/,334925,/,335604,/,336284,/,336964,/	t,t,t,t,t,t	<img class = center src='/static/experiments/beast_fmri_test/images/V.png'></img>	71,89	2750.0	test	<img class = center src='/static/experiments/beast_fmri_test/images/redV.png'></img>	go	2100.0	2.0	2.0	go	target	V	71,Index Finger	89,Middle Finger	650.0	900.0	2100.0	1900.0	1.0	650.0	n/a	1.0	go_stim
236499.92632073438	821.073679266	n/a	877	71	2750	821.073679266	stim	stop-signal	107	336182	0.0-9.2-1.2	beast_fmri_test	388	333564,/,334244,/,334925,/,335604,/,336284,/,336964,/	t,t,t,t,t,t	<img class = center src='/static/experiments/beast_fmri_test/images/V.png'></img>	71,89	2750.0	test	<img class = center src='/static/experiments/beast_fmri_test/images/redV.png'></img>	go	2100.0	2.0	2.0	go	target	V	71,Index Finger	89,Middle Finger	650.0	900.0	2100.0	1900.0	1.0	650.0	n/a	1.0	ITI
238660	500.0	n/a	-1	-1	500	0.0	fixation	poldrack-single-stim	108	337521	0.0-9.3-0.3	beast_fmri_test	388	n/a	n/a	<div class = centerbox2><div class = fixation>+</div></div>	none	500.0	test	n/a	n/a	n/a	n/a	n/a	n/a	n/a	n/a	n/a	n/a	n/a	n/a	n/a	n/a	n/a	n/a	n/a	n/a	fixation
237449.50593201845	2750.0	n/a	1137	89	2750	1217.49406798	stim	stop-signal	109	340278	0.0-9.3-1.3	beast_fmri_test	388	337645,/,338324,/,339005,/,339688,/,340369,/,341049,/	t,t,t,t,t,t	<img class = center src='/static/experiments/beast_fmri_test/images/P.png'></img>	71,89	2750.0	test	<img class = center src='/static/experiments/beast_fmri_test/images/redP.png'></img>	go	1850.0	2.0	3.0	go	non-target	P	71,Index Finger	89,Middle Finger	650.0	900.0	2100.0	1850.0	1.0	900.0	n/a	1.0	go_stim
240199.50593201845	1217.49406798	n/a	1137	89	2750	1217.49406798	stim	stop-signal	109	340278	0.0-9.3-1.3	beast_fmri_test	388	337645,/,338324,/,339005,/,339688,/,340369,/,341049,/	t,t,t,t,t,t	<img class = center src='/static/experiments/beast_fmri_test/images/P.png'></img>	71,89	2750.0	test	<img class = center src='/static/experiments/beast_fmri_test/images/redP.png'></img>	go	1850.0	2.0	3.0	go	non-target	P	71,Index Finger	89,Middle Finger	650.0	900.0	2100.0	1850.0	1.0	900.0	n/a	1.0	ITI
243151	500.0	n/a	-1	-1	500	0.0	fixation	poldrack-single-stim	110	342012	0.0-9.4-0.4	beast_fmri_test	388	341729,/	t	<div class = centerbox2><div class = fixation>+</div></div>	none	500.0	test	n/a	n/a	n/a	n/a	n/a	n/a	n/a	n/a	n/a	n/a	n/a	n/a	n/a	n/a	n/a	n/a	n/a	n/a	fixation
242349.14401054196	900.0	n/a	1072	89	2750	804.855989458	stim	stop-signal	111	344765	0.0-9.4-1.4	beast_fmri_test	388	342409,/,343087,/,343768,/,344448,/,345129,/	t,t,t,t,t	<img class = center src='/static/experiments/beast_fmri_test/images/B.png'></img>	71,89	2750.0	test	<img class = center src='/static/experiments/beast_fmri_test/images/redB.png'></img>	stop	1850.0	2.0	4.0	stop	non-target	B	71,Index Finger	89,Middle Finger	650.0	900.0	2100.0	1850.0	0.0	900.0	0.0	n/a	go_stim
244199.14401054196	1850.0	n/a	1072	89	2750	804.855989458	stim	stop-signal	111	344765	0.0-9.4-1.4	beast_fmri_test	388	342409,/,343087,/,343768,/,344448,/,345129,/	t,t,t,t,t	<img class = center src='/static/experiments/beast_fmri_test/images/B.png'></img>	71,89	2750.0	test	<img class = center src='/static/experiments/beast_fmri_test/images/redB.png'></img>	stop	1850.0	2.0	4.0	stop	non-target	B	71,Index Finger	89,Middle Finger	650.0	900.0	2100.0	1850.0	0.0	900.0	0.0	n/a	stop_stim
245099.14401054196	804.855989458	n/a	1072	89	2750	804.855989458	stim	stop-signal	111	344765	0.0-9.4-1.4	beast_fmri_test	388	342409,/,343087,/,343768,/,344448,/,345129,/	t,t,t,t,t	<img class = center src='/static/experiments/beast_fmri_test/images/B.png'></img>	71,89	2750.0	test	<img class = center src='/static/experiments/beast_fmri_test/images/redB.png'></img>	stop	1850.0	2.0	4.0	stop	non-target	B	71,Index Finger	89,Middle Finger	650.0	900.0	2100.0	1850.0	0.0	900.0	0.0	n/a	ITI
247226	500.0	n/a	-1	-1	500	0.0	fixation	poldrack-single-stim	112	346087	0.0-9.5-0.5	beast_fmri_test	388	345809,/	t	<div class = centerbox2><div class = fixation>+</div></div>	none	500.0	test	n/a	n/a	n/a	n/a	n/a	n/a	n/a	n/a	n/a	n/a	n/a	n/a	n/a	n/a	n/a	n/a	n/a	n/a	fixation
245885.17782816762	850.0	n/a	-1	-1	2750	1343.82217183	stim	stop-signal	113	348840	0.0-9.5-1.5	beast_fmri_test	388	346489,/,347169,/,347848,/,348527,/,349210,/,349893,/	t,t,t,t,t,t	<img class = center src='/static/experiments/beast_fmri_test/images/D.png'></img>	71,89	2750.0	test	<img class = center src='/static/experiments/beast_fmri_test/images/redD.png'></img>	stop	1900.0	2.0	5.0	stop	non-target	D	71,Index Finger	89,Middle Finger	650.0	850.0	2100.0	1900.0	0.0	850.0	1.0	n/a	go_stim
247785.17782816762	1900.0	n/a	-1	-1	2750	1343.82217183	stim	stop-signal	113	348840	0.0-9.5-1.5	beast_fmri_test	388	346489,/,347169,/,347848,/,348527,/,349210,/,349893,/	t,t,t,t,t,t	<img class = center src='/static/experiments/beast_fmri_test/images/D.png'></img>	71,89	2750.0	test	<img class = center src='/static/experiments/beast_fmri_test/images/redD.png'></img>	stop	1900.0	2.0	5.0	stop	non-target	D	71,Index Finger	89,Middle Finger	650.0	850.0	2100.0	1900.0	0.0	850.0	1.0	n/a	stop_stim
248635.17782816762	1343.82217183	n/a	-1	-1	2750	1343.82217183	stim	stop-signal	113	348840	0.0-9.5-1.5	beast_fmri_test	388	346489,/,347169,/,347848,/,348527,/,349210,/,349893,/	t,t,t,t,t,t	<img class = center src='/static/experiments/beast_fmri_test/images/D.png'></img>	71,89	2750.0	test	<img class = center src='/static/experiments/beast_fmri_test/images/redD.png'></img>	stop	1900.0	2.0	5.0	stop	non-target	D	71,Index Finger	89,Middle Finger	650.0	850.0	2100.0	1900.0	0.0	850.0	1.0	n/a	ITI
251845	500.0	n/a	-1	-1	500	0.0	fixation	poldrack-single-stim	114	350706	0.0-9.6-0.6	beast_fmri_test	388	350573,/	t	<div class = centerbox2><div class = fixation>+</div></div>	none	500.0	test	n/a	n/a	n/a	n/a	n/a	n/a	n/a	n/a	n/a	n/a	n/a	n/a	n/a	n/a	n/a	n/a	n/a	n/a	fixation
250793.37469616806	2750.0	n/a	971	71	2750	1055.62530383	stim	stop-signal	115	353460	0.0-9.6-1.6	beast_fmri_test	388	351253,/,351933,/,352612,/,353293,/,353974,/	t,t,t,t,t	<img class = center src='/static/experiments/beast_fmri_test/images/V.png'></img>	71,89	2750.0	test	<img class = center src='/static/experiments/beast_fmri_test/images/redV.png'></img>	go	1850.0	2.0	6.0	go	non-target	V	71,Index Finger	89,Middle Finger	650.0	900.0	2100.0	1850.0	0.0	900.0	n/a	0.0	go_stim
253543.37469616806	1055.62530383	n/a	971	71	2750	1055.62530383	stim	stop-signal	115	353460	0.0-9.6-1.6	beast_fmri_test	388	351253,/,351933,/,352612,/,353293,/,353974,/	t,t,t,t,t	<img class = center src='/static/experiments/beast_fmri_test/images/V.png'></img>	71,89	2750.0	test	<img class = center src='/static/experiments/beast_fmri_test/images/redV.png'></img>	go	1850.0	2.0	6.0	go	non-target	V	71,Index Finger	89,Middle Finger	650.0	900.0	2100.0	1850.0	0.0	900.0	n/a	0.0	ITI
256174	500.0	n/a	-1	-1	500	0.0	fixation	poldrack-single-stim	116	355035	0.0-9.7-0.7	beast_fmri_test	388	354654,/	t	<div class = centerbox2><div class = fixation>+</div></div>	none	500.0	test	n/a	n/a	n/a	n/a	n/a	n/a	n/a	n/a	n/a	n/a	n/a	n/a	n/a	n/a	n/a	n/a	n/a	n/a	fixation
255773.82880223857	2750.0	n/a	1527	89	2750	404.171197761	stim	stop-signal	117	357789	0.0-9.7-1.7	beast_fmri_test	388	355334,/,356014,/,356694,/,357373,/,358053,/	t,t,t,t,t	<img class = center src='/static/experiments/beast_fmri_test/images/V.png'></img>	71,89	2750.0	test	<img class = center src='/static/experiments/beast_fmri_test/images/redV.png'></img>	go	1850.0	2.0	7.0	go	non-target	V	71,Index Finger	89,Middle Finger	650.0	900.0	2100.0	1850.0	1.0	900.0	n/a	1.0	go_stim
258523.82880223857	404.171197761	n/a	1527	89	2750	404.171197761	stim	stop-signal	117	357789	0.0-9.7-1.7	beast_fmri_test	388	355334,/,356014,/,356694,/,357373,/,358053,/	t,t,t,t,t	<img class = center src='/static/experiments/beast_fmri_test/images/V.png'></img>	71,89	2750.0	test	<img class = center src='/static/experiments/beast_fmri_test/images/redV.png'></img>	go	1850.0	2.0	7.0	go	non-target	V	71,Index Finger	89,Middle Finger	650.0	900.0	2100.0	1850.0	1.0	900.0	n/a	1.0	ITI
259848	500.0	n/a	-1	-1	500	0.0	fixation	poldrack-single-stim	118	358709	0.0-9.8-0.8	beast_fmri_test	388	n/a	n/a	<div class = centerbox2><div class = fixation>+</div></div>	none	500.0	test	n/a	n/a	n/a	n/a	n/a	n/a	n/a	n/a	n/a	n/a	n/a	n/a	n/a	n/a	n/a	n/a	n/a	n/a	fixation
259591.72418820974	2750.0	n/a	1951	71	2750	264.27581179	stim	stop-signal	119	361467	0.0-9.8-1.8	beast_fmri_test	388	358732,/,359416,/,360098,/,360778,/,361458,/	t,t,t,t,t	<img class = center src='/static/experiments/beast_fmri_test/images/V.png'></img>	71,89	2750.0	test	<img class = center src='/static/experiments/beast_fmri_test/images/redV.png'></img>	go	2100.0	2.0	8.0	go	target	V	71,Index Finger	89,Middle Finger	650.0	900.0	2100.0	1850.0	1.0	650.0	n/a	1.0	go_stim
262341.72418820974	264.27581179	n/a	1951	71	2750	264.27581179	stim	stop-signal	119	361467	0.0-9.8-1.8	beast_fmri_test	388	358732,/,359416,/,360098,/,360778,/,361458,/	t,t,t,t,t	<img class = center src='/static/experiments/beast_fmri_test/images/V.png'></img>	71,89	2750.0	test	<img class = center src='/static/experiments/beast_fmri_test/images/redV.png'></img>	go	2100.0	2.0	8.0	go	target	V	71,Index Finger	89,Middle Finger	650.0	900.0	2100.0	1850.0	1.0	650.0	n/a	1.0	ITI
263384	500.0	n/a	-1	-1	500	0.0	fixation	poldrack-single-stim	120	362245	0.0-9.9-0.9	beast_fmri_test	388	362137,/	t	<div class = centerbox2><div class = fixation>+</div></div>	none	500.0	test	n/a	n/a	n/a	n/a	n/a	n/a	n/a	n/a	n/a	n/a	n/a	n/a	n/a	n/a	n/a	n/a	n/a	n/a	fixation
263302.12944791577	2750.0	n/a	1651	71	2750	84.8705520842	stim	stop-signal	121	364998	0.0-9.9-1.9	beast_fmri_test	388	362818,/,363498,/,364178,/,364858,/	t,t,t,t	<img class = center src='/static/experiments/beast_fmri_test/images/V.png'></img>	71,89	2750.0	test	<img class = center src='/static/experiments/beast_fmri_test/images/redV.png'></img>	go	2100.0	2.0	9.0	go	target	V	71,Index Finger	89,Middle Finger	650.0	900.0	2100.0	1850.0	1.0	650.0	n/a	1.0	go_stim
266052.12944791577	84.8705520842	n/a	1651	71	2750	84.8705520842	stim	stop-signal	121	364998	0.0-9.9-1.9	beast_fmri_test	388	362818,/,363498,/,364178,/,364858,/	t,t,t,t	<img class = center src='/static/experiments/beast_fmri_test/images/V.png'></img>	71,89	2750.0	test	<img class = center src='/static/experiments/beast_fmri_test/images/redV.png'></img>	go	2100.0	2.0	9.0	go	target	V	71,Index Finger	89,Middle Finger	650.0	900.0	2100.0	1850.0	1.0	650.0	n/a	1.0	ITI
266737	500.0	n/a	-1	-1	500	0.0	fixation	poldrack-single-stim	122	365598	0.0-9.10-0.10	beast_fmri_test	388	365538,/	t	<div class = centerbox2><div class = fixation>+</div></div>	none	500.0	test	n/a	n/a	n/a	n/a	n/a	n/a	n/a	n/a	n/a	n/a	n/a	n/a	n/a	n/a	n/a	n/a	n/a	n/a	fixation
266021.98845852405	2750.0	n/a	1549	89	2750	718.011541476	stim	stop-signal	123	368351	0.0-9.10-1.10	beast_fmri_test	388	366218,/,366897,/,367577,/,368258,/,368938,/	t,t,t,t,t	<img class = center src='/static/experiments/beast_fmri_test/images/D.png'></img>	71,89	2750.0	test	<img class = center src='/static/experiments/beast_fmri_test/images/redD.png'></img>	go	1850.0	2.0	10.0	go	non-target	D	71,Index Finger	89,Middle Finger	650.0	900.0	2100.0	1850.0	1.0	900.0	n/a	1.0	go_stim
268771.98845852405	718.011541476	n/a	1549	89	2750	718.011541476	stim	stop-signal	123	368351	0.0-9.10-1.10	beast_fmri_test	388	366218,/,366897,/,367577,/,368258,/,368938,/	t,t,t,t,t	<img class = center src='/static/experiments/beast_fmri_test/images/D.png'></img>	71,89	2750.0	test	<img class = center src='/static/experiments/beast_fmri_test/images/redD.png'></img>	go	1850.0	2.0	10.0	go	non-target	D	71,Index Finger	89,Middle Finger	650.0	900.0	2100.0	1850.0	1.0	900.0	n/a	1.0	ITI
270730	500.0	n/a	-1	-1	500	0.0	fixation	poldrack-single-stim	124	369591	0.0-9.11-0.11	beast_fmri_test	388	n/a	n/a	<div class = centerbox2><div class = fixation>+</div></div>	none	500.0	test	n/a	n/a	n/a	n/a	n/a	n/a	n/a	n/a	n/a	n/a	n/a	n/a	n/a	n/a	n/a	n/a	n/a	n/a	fixation
270459.92847612564	2750.0	n/a	1462	89	2750	272.071523874	stim	stop-signal	125	372343	0.0-9.11-1.11	beast_fmri_test	388	369619,/,370302,/,370982,/,371661,/,372341,/	t,t,t,t,t	<img class = center src='/static/experiments/beast_fmri_test/images/P.png'></img>	71,89	2750.0	test	<img class = center src='/static/experiments/beast_fmri_test/images/redP.png'></img>	go	1850.0	2.0	11.0	go	non-target	P	71,Index Finger	89,Middle Finger	650.0	900.0	2100.0	1850.0	1.0	900.0	n/a	1.0	go_stim
273209.92847612564	272.071523874	n/a	1462	89	2750	272.071523874	stim	stop-signal	125	372343	0.0-9.11-1.11	beast_fmri_test	388	369619,/,370302,/,370982,/,371661,/,372341,/	t,t,t,t,t	<img class = center src='/static/experiments/beast_fmri_test/images/P.png'></img>	71,89	2750.0	test	<img class = center src='/static/experiments/beast_fmri_test/images/redP.png'></img>	go	1850.0	2.0	11.0	go	non-target	P	71,Index Finger	89,Middle Finger	650.0	900.0	2100.0	1850.0	1.0	900.0	n/a	1.0	ITI
274273	500.0	n/a	-1	-1	500	0.0	fixation	poldrack-single-stim	126	373134	0.0-9.12-0.12	beast_fmri_test	388	373022,/	t	<div class = centerbox2><div class = fixation>+</div></div>	none	500.0	test	n/a	n/a	n/a	n/a	n/a	n/a	n/a	n/a	n/a	n/a	n/a	n/a	n/a	n/a	n/a	n/a	n/a	n/a	fixation
274179.06588454545	2750.0	n/a	1329	89	2750	96.9341154546	stim	stop-signal	127	375887	0.0-9.12-1.12	beast_fmri_test	388	373702,/,374382,/,375062,/,375742,/	t,t,t,t	<img class = center src='/static/experiments/beast_fmri_test/images/P.png'></img>	71,89	2750.0	test	<img class = center src='/static/experiments/beast_fmri_test/images/redP.png'></img>	go	1850.0	2.0	12.0	go	non-target	P	71,Index Finger	89,Middle Finger	650.0	900.0	2100.0	1850.0	1.0	900.0	n/a	1.0	go_stim
276929.06588454545	96.9341154546	n/a	1329	89	2750	96.9341154546	stim	stop-signal	127	375887	0.0-9.12-1.12	beast_fmri_test	388	373702,/,374382,/,375062,/,375742,/	t,t,t,t	<img class = center src='/static/experiments/beast_fmri_test/images/P.png'></img>	71,89	2750.0	test	<img class = center src='/static/experiments/beast_fmri_test/images/redP.png'></img>	go	1850.0	2.0	12.0	go	non-target	P	71,Index Finger	89,Middle Finger	650.0	900.0	2100.0	1850.0	1.0	900.0	n/a	1.0	ITI
277642	500.0	n/a	-1	-1	500	0.0	fixation	poldrack-single-stim	128	376503	0.0-9.13-0.13	beast_fmri_test	388	376422,/	t	<div class = centerbox2><div class = fixation>+</div></div>	none	500.0	test	n/a	n/a	n/a	n/a	n/a	n/a	n/a	n/a	n/a	n/a	n/a	n/a	n/a	n/a	n/a	n/a	n/a	n/a	fixation
276295.9746067021	2750.0	n/a	613	71	2750	1352.0253933	stim	stop-signal	129	379259	0.0-9.13-1.13	beast_fmri_test	388	377102,/,377782,/,378460,/,379144,/,379825,/,380505,/	t,t,t,t,t,t	<img class = center src='/static/experiments/beast_fmri_test/images/P.png'></img>	71,89	2750.0	test	<img class = center src='/static/experiments/beast_fmri_test/images/redP.png'></img>	go	2100.0	2.0	13.0	go	target	P	71,Index Finger	89,Middle Finger	650.0	900.0	2100.0	1850.0	1.0	650.0	n/a	1.0	go_stim
279045.9746067021	1352.0253933	n/a	613	71	2750	1352.0253933	stim	stop-signal	129	379259	0.0-9.13-1.13	beast_fmri_test	388	377102,/,377782,/,378460,/,379144,/,379825,/,380505,/	t,t,t,t,t,t	<img class = center src='/static/experiments/beast_fmri_test/images/P.png'></img>	71,89	2750.0	test	<img class = center src='/static/experiments/beast_fmri_test/images/redP.png'></img>	go	2100.0	2.0	13.0	go	target	P	71,Index Finger	89,Middle Finger	650.0	900.0	2100.0	1850.0	1.0	650.0	n/a	1.0	ITI
282273	500.0	n/a	-1	-1	500	0.0	fixation	poldrack-single-stim	130	381134	0.0-9.14-0.14	beast_fmri_test	388	n/a	n/a	<div class = centerbox2><div class = fixation>+</div></div>	none	500.0	test	n/a	n/a	n/a	n/a	n/a	n/a	n/a	n/a	n/a	n/a	n/a	n/a	n/a	n/a	n/a	n/a	n/a	n/a	fixation
282101.74460940948	2750.0	n/a	1216	71	2750	173.255390591	stim	stop-signal	131	383886	0.0-9.14-1.14	beast_fmri_test	388	381185,/,381865,/,382546,/,383227,/,383906,/	t,t,t,t,t	<img class = center src='/static/experiments/beast_fmri_test/images/P.png'></img>	71,89	2750.0	test	<img class = center src='/static/experiments/beast_fmri_test/images/redP.png'></img>	go	2100.0	2.0	14.0	go	target	P	71,Index Finger	89,Middle Finger	650.0	900.0	2100.0	1850.0	1.0	650.0	n/a	1.0	go_stim
284851.74460940948	173.255390591	n/a	1216	71	2750	173.255390591	stim	stop-signal	131	383886	0.0-9.14-1.14	beast_fmri_test	388	381185,/,381865,/,382546,/,383227,/,383906,/	t,t,t,t,t	<img class = center src='/static/experiments/beast_fmri_test/images/P.png'></img>	71,89	2750.0	test	<img class = center src='/static/experiments/beast_fmri_test/images/redP.png'></img>	go	2100.0	2.0	14.0	go	target	P	71,Index Finger	89,Middle Finger	650.0	900.0	2100.0	1850.0	1.0	650.0	n/a	1.0	ITI
285718	500.0	n/a	-1	-1	500	0.0	fixation	poldrack-single-stim	132	384579	0.0-9.15-0.15	beast_fmri_test	388	n/a	n/a	<div class = centerbox2><div class = fixation>+</div></div>	none	500.0	test	n/a	n/a	n/a	n/a	n/a	n/a	n/a	n/a	n/a	n/a	n/a	n/a	n/a	n/a	n/a	n/a	n/a	n/a	fixation
284651.81159971259	2750.0	n/a	1035	89	2750	1069.18840029	stim	stop-signal	133	387332	0.0-9.15-1.15	beast_fmri_test	388	384587,/,385267,/,385947,/,386627,/,387307,/,387987,/	t,t,t,t,t,t	<img class = center src='/static/experiments/beast_fmri_test/images/T.png'></img>	71,89	2750.0	test	<img class = center src='/static/experiments/beast_fmri_test/images/redT.png'></img>	go	1850.0	2.0	15.0	go	non-target	T	71,Index Finger	89,Middle Finger	650.0	900.0	2100.0	1850.0	1.0	900.0	n/a	1.0	go_stim
287401.81159971259	1069.18840029	n/a	1035	89	2750	1069.18840029	stim	stop-signal	133	387332	0.0-9.15-1.15	beast_fmri_test	388	384587,/,385267,/,385947,/,386627,/,387307,/,387987,/	t,t,t,t,t,t	<img class = center src='/static/experiments/beast_fmri_test/images/T.png'></img>	71,89	2750.0	test	<img class = center src='/static/experiments/beast_fmri_test/images/redT.png'></img>	go	1850.0	2.0	15.0	go	non-target	T	71,Index Finger	89,Middle Finger	650.0	900.0	2100.0	1850.0	1.0	900.0	n/a	1.0	ITI
290059	500.0	n/a	-1	-1	500	0.0	fixation	poldrack-single-stim	134	388920	0.0-9.16-0.16	beast_fmri_test	388	388667,/	t	<div class = centerbox2><div class = fixation>+</div></div>	none	500.0	test	n/a	n/a	n/a	n/a	n/a	n/a	n/a	n/a	n/a	n/a	n/a	n/a	n/a	n/a	n/a	n/a	n/a	n/a	fixation
289331.65136360691	2750.0	n/a	1264	71	2750	734.348636393	stim	stop-signal	135	391677	0.0-9.16-1.16	beast_fmri_test	388	389349,/,390031,/,390711,/,391391,/,392071,/	t,t,t,t,t	<img class = center src='/static/experiments/beast_fmri_test/images/P.png'></img>	71,89	2750.0	test	<img class = center src='/static/experiments/beast_fmri_test/images/redP.png'></img>	go	2100.0	2.0	16.0	go	target	P	71,Index Finger	89,Middle Finger	650.0	900.0	2100.0	1850.0	1.0	650.0	n/a	1.0	go_stim
292081.65136360691	734.348636393	n/a	1264	71	2750	734.348636393	stim	stop-signal	135	391677	0.0-9.16-1.16	beast_fmri_test	388	389349,/,390031,/,390711,/,391391,/,392071,/	t,t,t,t,t	<img class = center src='/static/experiments/beast_fmri_test/images/P.png'></img>	71,89	2750.0	test	<img class = center src='/static/experiments/beast_fmri_test/images/redP.png'></img>	go	2100.0	2.0	16.0	go	target	P	71,Index Finger	89,Middle Finger	650.0	900.0	2100.0	1850.0	1.0	650.0	n/a	1.0	ITI
294070	500.0	n/a	-1	-1	500	0.0	fixation	poldrack-single-stim	136	392931	0.0-9.17-0.17	beast_fmri_test	388	392751,/	t	<div class = centerbox2><div class = fixation>+</div></div>	none	500.0	test	n/a	n/a	n/a	n/a	n/a	n/a	n/a	n/a	n/a	n/a	n/a	n/a	n/a	n/a	n/a	n/a	n/a	n/a	fixation
291918.95384470705	2750.0	n/a	1768	89	2750	2154.04615529	stim	stop-signal	137	395684	0.0-9.17-1.17	beast_fmri_test	388	393432,/,394111,/,394790,/,395470,/,396151,/,396831,/,397511,/	t,t,t,t,t,t,t	<img class = center src='/static/experiments/beast_fmri_test/images/T.png'></img>	71,89	2750.0	test	<img class = center src='/static/experiments/beast_fmri_test/images/redT.png'></img>	go	2100.0	2.0	17.0	go	target	T	71,Index Finger	89,Middle Finger	650.0	900.0	2100.0	1850.0	0.0	650.0	n/a	0.0	go_stim
294668.95384470705	2154.04615529	n/a	1768	89	2750	2154.04615529	stim	stop-signal	137	395684	0.0-9.17-1.17	beast_fmri_test	388	393432,/,394111,/,394790,/,395470,/,396151,/,396831,/,397511,/	t,t,t,t,t,t,t	<img class = center src='/static/experiments/beast_fmri_test/images/T.png'></img>	71,89	2750.0	test	<img class = center src='/static/experiments/beast_fmri_test/images/redT.png'></img>	go	2100.0	2.0	17.0	go	target	T	71,Index Finger	89,Middle Finger	650.0	900.0	2100.0	1850.0	0.0	650.0	n/a	0.0	ITI
299496	500.0	n/a	-1	-1	500	0.0	fixation	poldrack-single-stim	138	398357	0.0-9.18-0.18	beast_fmri_test	388	398191,/	t	<div class = centerbox2><div class = fixation>+</div></div>	none	500.0	test	n/a	n/a	n/a	n/a	n/a	n/a	n/a	n/a	n/a	n/a	n/a	n/a	n/a	n/a	n/a	n/a	n/a	n/a	fixation
299255.85474947933	2750.0	n/a	1471	89	2750	247.145250521	stim	stop-signal	139	401114	0.0-9.18-1.18	beast_fmri_test	388	398870,/,399553,/,400235,/,400915,/	t,t,t,t	<img class = center src='/static/experiments/beast_fmri_test/images/V.png'></img>	71,89	2750.0	test	<img class = center src='/static/experiments/beast_fmri_test/images/redV.png'></img>	go	1850.0	2.0	18.0	go	non-target	V	71,Index Finger	89,Middle Finger	650.0	900.0	2100.0	1850.0	1.0	900.0	n/a	1.0	go_stim
302005.85474947933	247.145250521	n/a	1471	89	2750	247.145250521	stim	stop-signal	139	401114	0.0-9.18-1.18	beast_fmri_test	388	398870,/,399553,/,400235,/,400915,/	t,t,t,t	<img class = center src='/static/experiments/beast_fmri_test/images/V.png'></img>	71,89	2750.0	test	<img class = center src='/static/experiments/beast_fmri_test/images/redV.png'></img>	go	1850.0	2.0	18.0	go	non-target	V	71,Index Finger	89,Middle Finger	650.0	900.0	2100.0	1850.0	1.0	900.0	n/a	1.0	ITI
303019	500.0	n/a	-1	-1	500	0.0	fixation	poldrack-single-stim	140	401880	0.0-9.19-0.19	beast_fmri_test	388	401595,/	t	<div class = centerbox2><div class = fixation>+</div></div>	none	500.0	test	n/a	n/a	n/a	n/a	n/a	n/a	n/a	n/a	n/a	n/a	n/a	n/a	n/a	n/a	n/a	n/a	n/a	n/a	fixation
301655.27913376602	2750.0	n/a	833	89	2750	1365.72086623	stim	stop-signal	141	404632	0.0-9.19-1.19	beast_fmri_test	388	402275,/,402955,/,403635,/,404315,/,404995,/,405675,/	t,t,t,t,t,t	<img class = center src='/static/experiments/beast_fmri_test/images/D.png'></img>	71,89	2750.0	test	<img class = center src='/static/experiments/beast_fmri_test/images/redD.png'></img>	go	1850.0	2.0	19.0	go	non-target	D	71,Index Finger	89,Middle Finger	650.0	900.0	2100.0	1850.0	1.0	900.0	n/a	1.0	go_stim
304405.27913376602	1365.72086623	n/a	833	89	2750	1365.72086623	stim	stop-signal	141	404632	0.0-9.19-1.19	beast_fmri_test	388	402275,/,402955,/,403635,/,404315,/,404995,/,405675,/	t,t,t,t,t,t	<img class = center src='/static/experiments/beast_fmri_test/images/D.png'></img>	71,89	2750.0	test	<img class = center src='/static/experiments/beast_fmri_test/images/redD.png'></img>	go	1850.0	2.0	19.0	go	non-target	D	71,Index Finger	89,Middle Finger	650.0	900.0	2100.0	1850.0	1.0	900.0	n/a	1.0	ITI
307656	500.0	n/a	-1	-1	500	0.0	fixation	poldrack-single-stim	142	406517	0.0-9.20-0.20	beast_fmri_test	388	406356,/	t	<div class = centerbox2><div class = fixation>+</div></div>	none	500.0	test	n/a	n/a	n/a	n/a	n/a	n/a	n/a	n/a	n/a	n/a	n/a	n/a	n/a	n/a	n/a	n/a	n/a	n/a	fixation
307382.10463155317	2750.0	n/a	1060	89	2750	278.895368447	stim	stop-signal	143	409272	0.0-9.20-1.20	beast_fmri_test	388	407035,/,407714,/,408395,/,409077,/	t,t,t,t	<img class = center src='/static/experiments/beast_fmri_test/images/D.png'></img>	71,89	2750.0	test	<img class = center src='/static/experiments/beast_fmri_test/images/redD.png'></img>	go	1850.0	2.0	20.0	go	non-target	D	71,Index Finger	89,Middle Finger	650.0	900.0	2100.0	1850.0	1.0	900.0	n/a	1.0	go_stim
310132.10463155317	278.895368447	n/a	1060	89	2750	278.895368447	stim	stop-signal	143	409272	0.0-9.20-1.20	beast_fmri_test	388	407035,/,407714,/,408395,/,409077,/	t,t,t,t	<img class = center src='/static/experiments/beast_fmri_test/images/D.png'></img>	71,89	2750.0	test	<img class = center src='/static/experiments/beast_fmri_test/images/redD.png'></img>	go	1850.0	2.0	20.0	go	non-target	D	71,Index Finger	89,Middle Finger	650.0	900.0	2100.0	1850.0	1.0	900.0	n/a	1.0	ITI
311211	500.0	n/a	-1	-1	500	0.0	fixation	poldrack-single-stim	144	410072	0.0-9.21-0.21	beast_fmri_test	388	409758,/	t	<div class = centerbox2><div class = fixation>+</div></div>	none	500.0	test	n/a	n/a	n/a	n/a	n/a	n/a	n/a	n/a	n/a	n/a	n/a	n/a	n/a	n/a	n/a	n/a	n/a	n/a	fixation
310767.45704738266	2750.0	n/a	535	71	2750	447.542952617	stim	stop-signal	145	412826	0.0-9.21-1.21	beast_fmri_test	388	410440,/,411120,/,411799,/,412480,/,413160,/	t,t,t,t,t	<img class = center src='/static/experiments/beast_fmri_test/images/D.png'></img>	71,89	2750.0	test	<img class = center src='/static/experiments/beast_fmri_test/images/redD.png'></img>	go	2100.0	2.0	21.0	go	target	D	71,Index Finger	89,Middle Finger	650.0	900.0	2100.0	1850.0	1.0	650.0	n/a	1.0	go_stim
313517.45704738266	447.542952617	n/a	535	71	2750	447.542952617	stim	stop-signal	145	412826	0.0-9.21-1.21	beast_fmri_test	388	410440,/,411120,/,411799,/,412480,/,413160,/	t,t,t,t,t	<img class = center src='/static/experiments/beast_fmri_test/images/D.png'></img>	71,89	2750.0	test	<img class = center src='/static/experiments/beast_fmri_test/images/redD.png'></img>	go	2100.0	2.0	21.0	go	target	D	71,Index Finger	89,Middle Finger	650.0	900.0	2100.0	1850.0	1.0	650.0	n/a	1.0	ITI
314933	500.0	n/a	-1	-1	500	0.0	fixation	poldrack-single-stim	146	413794	0.0-9.22-0.22	beast_fmri_test	388	n/a	n/a	<div class = centerbox2><div class = fixation>+</div></div>	none	500.0	test	n/a	n/a	n/a	n/a	n/a	n/a	n/a	n/a	n/a	n/a	n/a	n/a	n/a	n/a	n/a	n/a	n/a	n/a	fixation
314343.52791057073	2750.0	n/a	966	89	2750	593.472089429	stim	stop-signal	147	416548	0.0-9.22-1.22	beast_fmri_test	388	413838,/,414520,/,415199,/,415880,/,416559,/	t,t,t,t,t	<img class = center src='/static/experiments/beast_fmri_test/images/V.png'></img>	71,89	2750.0	test	<img class = center src='/static/experiments/beast_fmri_test/images/redV.png'></img>	go	1850.0	2.0	22.0	go	non-target	V	71,Index Finger	89,Middle Finger	650.0	900.0	2100.0	1850.0	1.0	900.0	n/a	1.0	go_stim
317093.52791057073	593.472089429	n/a	966	89	2750	593.472089429	stim	stop-signal	147	416548	0.0-9.22-1.22	beast_fmri_test	388	413838,/,414520,/,415199,/,415880,/,416559,/	t,t,t,t,t	<img class = center src='/static/experiments/beast_fmri_test/images/V.png'></img>	71,89	2750.0	test	<img class = center src='/static/experiments/beast_fmri_test/images/redV.png'></img>	go	1850.0	2.0	22.0	go	non-target	V	71,Index Finger	89,Middle Finger	650.0	900.0	2100.0	1850.0	1.0	900.0	n/a	1.0	ITI
318800	500.0	n/a	-1	-1	500	0.0	fixation	poldrack-single-stim	148	417661	0.0-9.23-0.23	beast_fmri_test	388	417241,/	t	<div class = centerbox2><div class = fixation>+</div></div>	none	500.0	test	n/a	n/a	n/a	n/a	n/a	n/a	n/a	n/a	n/a	n/a	n/a	n/a	n/a	n/a	n/a	n/a	n/a	n/a	fixation
317398.98348962399	900.0	n/a	864	89	2750	1408.01651038	stim	stop-signal	149	420418	0.0-9.23-1.23	beast_fmri_test	388	417920,/,418598,/,419282,/,419964,/,420645,/,421324,/	t,t,t,t,t,t	<img class = center src='/static/experiments/beast_fmri_test/images/V.png'></img>	71,89	2750.0	test	<img class = center src='/static/experiments/beast_fmri_test/images/redV.png'></img>	stop	1850.0	2.0	23.0	stop	non-target	V	71,Index Finger	89,Middle Finger	650.0	900.0	2100.0	1850.0	0.0	900.0	0.0	n/a	go_stim
319248.98348962399	1850.0	n/a	864	89	2750	1408.01651038	stim	stop-signal	149	420418	0.0-9.23-1.23	beast_fmri_test	388	417920,/,418598,/,419282,/,419964,/,420645,/,421324,/	t,t,t,t,t,t	<img class = center src='/static/experiments/beast_fmri_test/images/V.png'></img>	71,89	2750.0	test	<img class = center src='/static/experiments/beast_fmri_test/images/redV.png'></img>	stop	1850.0	2.0	23.0	stop	non-target	V	71,Index Finger	89,Middle Finger	650.0	900.0	2100.0	1850.0	0.0	900.0	0.0	n/a	stop_stim
320148.98348962399	1408.01651038	n/a	864	89	2750	1408.01651038	stim	stop-signal	149	420418	0.0-9.23-1.23	beast_fmri_test	388	417920,/,418598,/,419282,/,419964,/,420645,/,421324,/	t,t,t,t,t,t	<img class = center src='/static/experiments/beast_fmri_test/images/V.png'></img>	71,89	2750.0	test	<img class = center src='/static/experiments/beast_fmri_test/images/redV.png'></img>	stop	1850.0	2.0	23.0	stop	non-target	V	71,Index Finger	89,Middle Finger	650.0	900.0	2100.0	1850.0	0.0	900.0	0.0	n/a	ITI
323485	500.0	n/a	-1	-1	500	0.0	fixation	poldrack-single-stim	150	422346	0.0-9.24-0.24	beast_fmri_test	388	422003,/	t	<div class = centerbox2><div class = fixation>+</div></div>	none	500.0	test	n/a	n/a	n/a	n/a	n/a	n/a	n/a	n/a	n/a	n/a	n/a	n/a	n/a	n/a	n/a	n/a	n/a	n/a	fixation
323159.51010871778	2750.0	n/a	1043	89	2750	328.489891282	stim	stop-signal	151	425099	0.0-9.24-1.24	beast_fmri_test	388	422684,/,423364,/,424044,/,424724,/,425404,/	t,t,t,t,t	<img class = center src='/static/experiments/beast_fmri_test/images/P.png'></img>	71,89	2750.0	test	<img class = center src='/static/experiments/beast_fmri_test/images/redP.png'></img>	go	1900.0	2.0	24.0	go	non-target	P	71,Index Finger	89,Middle Finger	650.0	850.0	2100.0	1900.0	1.0	850.0	n/a	1.0	go_stim
325909.51010871778	328.489891282	n/a	1043	89	2750	328.489891282	stim	stop-signal	151	425099	0.0-9.24-1.24	beast_fmri_test	388	422684,/,423364,/,424044,/,424724,/,425404,/	t,t,t,t,t	<img class = center src='/static/experiments/beast_fmri_test/images/P.png'></img>	71,89	2750.0	test	<img class = center src='/static/experiments/beast_fmri_test/images/redP.png'></img>	go	1900.0	2.0	24.0	go	non-target	P	71,Index Finger	89,Middle Finger	650.0	850.0	2100.0	1900.0	1.0	850.0	n/a	1.0	ITI
327088	500.0	n/a	-1	-1	500	0.0	fixation	poldrack-single-stim	152	425949	0.0-9.25-0.25	beast_fmri_test	388	n/a	n/a	<div class = centerbox2><div class = fixation>+</div></div>	none	500.0	test	n/a	n/a	n/a	n/a	n/a	n/a	n/a	n/a	n/a	n/a	n/a	n/a	n/a	n/a	n/a	n/a	n/a	n/a	fixation
