onset	duration	text	rt	key_press	block_duration	timing_post_trial	trial_id	trial_type	trial_index	time_elapsed	internal_node_id	exp_id	subject_id	trigger_times	triggers	stimulus	possible_responses	stim_duration	exp_stage	SS_stimulus	SS_trial_type	SS_duration	load	trial_num	stop_trial_type	adaptive_trial_type	stim	yes_response_key	no_response_key	SSD_target	SSD_non_target	SSTarget	SSNonTarget	go_acc	stop_acc	SS_delay	adaptive_acc	new_trial_type
test	10880	n/a	-1	-1	10880	0.0	practice-no-stop-feedback	poldrack-single-stim	6	158344	0.0-6.0	beast_fmri_test	278	147466,/,148145,/,148825,/,149505,/,150185,/,150865,/,151546,/,152225,/,152906,/,153583,/,154260,/,154941,/,155621,/,156300,/,156981,/,157661,/,158341,/	t,t,t,t,t,t,t,t,t,t,t,t,t,t,t,t,t	"<div class = ""centerbox""><p class = ""block-text"">Your delay is 2 trials.</p><p class = block-text>Please wait for the scanner to start the block</p></div>"	77	10880.0	n/a	n/a	n/a	n/a	n/a	n/a	n/a	n/a	n/a	n/a	n/a	n/a	n/a	n/a	n/a	n/a	n/a	n/a	n/a	start_functional_block
11382	500	n/a	-1	-1	500	0.0	fixation	poldrack-single-stim	7	158848	0.0-7.0-0.0	beast_fmri_test	278	n/a	n/a	<div class = centerbox2><div class = fixation>+</div></div>	none	500.0	test	n/a	n/a	n/a	n/a	n/a	n/a	n/a	n/a	n/a	n/a	n/a	n/a	n/a	n/a	n/a	n/a	n/a	n/a	fixation
10900.659864120738	2750	n/a	984	89	2750	488.340135879	stim	stop-signal	8	161605	0.0-7.0-1.0	beast_fmri_test	278	159022,/,159700,/,160381,/,161060,/,161741,/	t,t,t,t,t	<img class = center src='/static/experiments/beast_fmri_test/images/P.png'></img>	71,89	2750.0	test	<img class = center src='/static/experiments/beast_fmri_test/images/redP.png'></img>	go	-1.0	2.0	0.0	go	temp-non-target	P	71,Index Finger	89,Middle Finger	500.0	500.0	0.0	0.0	0.0	n/a	n/a	n/a	go_stim
13650.659864120738	488.34013587924881	n/a	984	89	2750	488.340135879	stim	stop-signal	8	161605	0.0-7.0-1.0	beast_fmri_test	278	159022,/,159700,/,160381,/,161060,/,161741,/	t,t,t,t,t	<img class = center src='/static/experiments/beast_fmri_test/images/P.png'></img>	71,89	2750.0	test	<img class = center src='/static/experiments/beast_fmri_test/images/redP.png'></img>	go	-1.0	2.0	0.0	go	temp-non-target	P	71,Index Finger	89,Middle Finger	500.0	500.0	0.0	0.0	0.0	n/a	n/a	n/a	ITI
15138	500	n/a	-1	-1	500	0.0	fixation	poldrack-single-stim	9	162604	0.0-7.1-0.1	beast_fmri_test	278	162420,/	t	<div class = centerbox2><div class = fixation>+</div></div>	none	500.0	test	n/a	n/a	n/a	n/a	n/a	n/a	n/a	n/a	n/a	n/a	n/a	n/a	n/a	n/a	n/a	n/a	n/a	n/a	fixation
15121.335821810819	temp_go_duration	n/a	599	89	2750	16.6641781892	stim	stop-signal	10	165354	0.0-7.1-1.1	beast_fmri_test	278	163101,/,163778,/,164456,/,165135,/	t,t,t,t	<img class = center src='/static/experiments/beast_fmri_test/images/D.png'></img>	71,89	2750.0	test	<img class = center src='/static/experiments/beast_fmri_test/images/redD.png'></img>	stop	-1.0	2.0	1.0	stop	temp-non-target	D	71,Index Finger	89,Middle Finger	500.0	500.0	0.0	0.0	0.0	0.0	n/a	n/a	go_stim
temp-non-target	temp_stop_duration	n/a	599	89	2750	16.6641781892	stim	stop-signal	10	165354	0.0-7.1-1.1	beast_fmri_test	278	163101,/,163778,/,164456,/,165135,/	t,t,t,t	<img class = center src='/static/experiments/beast_fmri_test/images/D.png'></img>	71,89	2750.0	test	<img class = center src='/static/experiments/beast_fmri_test/images/redD.png'></img>	stop	-1.0	2.0	1.0	stop	temp-non-target	D	71,Index Finger	89,Middle Finger	500.0	500.0	0.0	0.0	0.0	0.0	n/a	n/a	stop_stim
17871.335821810819	16.664178189176909	n/a	599	89	2750	16.6641781892	stim	stop-signal	10	165354	0.0-7.1-1.1	beast_fmri_test	278	163101,/,163778,/,164456,/,165135,/	t,t,t,t	<img class = center src='/static/experiments/beast_fmri_test/images/D.png'></img>	71,89	2750.0	test	<img class = center src='/static/experiments/beast_fmri_test/images/redD.png'></img>	stop	-1.0	2.0	1.0	stop	temp-non-target	D	71,Index Finger	89,Middle Finger	500.0	500.0	0.0	0.0	0.0	0.0	n/a	n/a	ITI
18411	500	n/a	-1	-1	500	0.0	fixation	poldrack-single-stim	11	165877	0.0-7.2-0.2	beast_fmri_test	278	165815,/	t	<div class = centerbox2><div class = fixation>+</div></div>	none	500.0	test	n/a	n/a	n/a	n/a	n/a	n/a	n/a	n/a	n/a	n/a	n/a	n/a	n/a	n/a	n/a	n/a	n/a	n/a	fixation
18170.485489236948	2750	n/a	682	71	2750	243.514510763	stim	stop-signal	12	168630	0.0-7.2-1.2	beast_fmri_test	278	166496,/,167175,/,167856,/,168536,/	t,t,t,t	<img class = center src='/static/experiments/beast_fmri_test/images/P.png'></img>	71,89	2750.0	test	<img class = center src='/static/experiments/beast_fmri_test/images/redP.png'></img>	go	2250.0	2.0	2.0	go	target	P	71,Index Finger	89,Middle Finger	500.0	500.0	2250.0	0.0	1.0	n/a	500.0	1.0	go_stim
20920.485489236948	243.51451076304343	n/a	682	71	2750	243.514510763	stim	stop-signal	12	168630	0.0-7.2-1.2	beast_fmri_test	278	166496,/,167175,/,167856,/,168536,/	t,t,t,t	<img class = center src='/static/experiments/beast_fmri_test/images/P.png'></img>	71,89	2750.0	test	<img class = center src='/static/experiments/beast_fmri_test/images/redP.png'></img>	go	2250.0	2.0	2.0	go	target	P	71,Index Finger	89,Middle Finger	500.0	500.0	2250.0	0.0	1.0	n/a	500.0	1.0	ITI
21914	500	n/a	-1	-1	500	0.0	fixation	poldrack-single-stim	13	169380	0.0-7.3-0.3	beast_fmri_test	278	169216,/	t	<div class = centerbox2><div class = fixation>+</div></div>	none	500.0	test	n/a	n/a	n/a	n/a	n/a	n/a	n/a	n/a	n/a	n/a	n/a	n/a	n/a	n/a	n/a	n/a	n/a	n/a	fixation
21579.133620261709	500.0	n/a	937	89	2750	338.866379738	stim	stop-signal	14	172134	0.0-7.3-1.3	beast_fmri_test	278	169895,/,170576,/,171256,/,171936,/	t,t,t,t	<img class = center src='/static/experiments/beast_fmri_test/images/T.png'></img>	71,89	2750.0	test	<img class = center src='/static/experiments/beast_fmri_test/images/redT.png'></img>	stop	2250.0	2.0	3.0	stop	non-target	T	71,Index Finger	89,Middle Finger	500.0	500.0	2250.0	2250.0	0.0	0.0	500.0	n/a	go_stim
23829.133620261709	2250.0	n/a	937	89	2750	338.866379738	stim	stop-signal	14	172134	0.0-7.3-1.3	beast_fmri_test	278	169895,/,170576,/,171256,/,171936,/	t,t,t,t	<img class = center src='/static/experiments/beast_fmri_test/images/T.png'></img>	71,89	2750.0	test	<img class = center src='/static/experiments/beast_fmri_test/images/redT.png'></img>	stop	2250.0	2.0	3.0	stop	non-target	T	71,Index Finger	89,Middle Finger	500.0	500.0	2250.0	2250.0	0.0	0.0	500.0	n/a	stop_stim
24329.133620261709	338.86637973827635	n/a	937	89	2750	338.866379738	stim	stop-signal	14	172134	0.0-7.3-1.3	beast_fmri_test	278	169895,/,170576,/,171256,/,171936,/	t,t,t,t	<img class = center src='/static/experiments/beast_fmri_test/images/T.png'></img>	71,89	2750.0	test	<img class = center src='/static/experiments/beast_fmri_test/images/redT.png'></img>	stop	2250.0	2.0	3.0	stop	non-target	T	71,Index Finger	89,Middle Finger	500.0	500.0	2250.0	2250.0	0.0	0.0	500.0	n/a	ITI
25520	500	n/a	-1	-1	500	0.0	fixation	poldrack-single-stim	15	172986	0.0-7.4-0.4	beast_fmri_test	278	172615,/	t	<div class = centerbox2><div class = fixation>+</div></div>	none	500.0	test	n/a	n/a	n/a	n/a	n/a	n/a	n/a	n/a	n/a	n/a	n/a	n/a	n/a	n/a	n/a	n/a	n/a	n/a	fixation
24200.413526405871	2750	n/a	1181	89	2750	1317.58647359	stim	stop-signal	16	175734	0.0-7.4-1.4	beast_fmri_test	278	173294,/,173972,/,174651,/,175330,/,176011,/,176691,/	t,t,t,t,t,t	<img class = center src='/static/experiments/beast_fmri_test/images/T.png'></img>	71,89	2750.0	test	<img class = center src='/static/experiments/beast_fmri_test/images/redT.png'></img>	go	2300.0	2.0	4.0	go	non-target	T	71,Index Finger	89,Middle Finger	500.0	450.0	2250.0	2300.0	1.0	n/a	450.0	1.0	go_stim
26950.413526405871	1317.5864735941209	n/a	1181	89	2750	1317.58647359	stim	stop-signal	16	175734	0.0-7.4-1.4	beast_fmri_test	278	173294,/,173972,/,174651,/,175330,/,176011,/,176691,/	t,t,t,t,t,t	<img class = center src='/static/experiments/beast_fmri_test/images/T.png'></img>	71,89	2750.0	test	<img class = center src='/static/experiments/beast_fmri_test/images/redT.png'></img>	go	2300.0	2.0	4.0	go	non-target	T	71,Index Finger	89,Middle Finger	500.0	450.0	2250.0	2300.0	1.0	n/a	450.0	1.0	ITI
30091	500	n/a	-1	-1	500	0.0	fixation	poldrack-single-stim	17	177557	0.0-7.5-0.5	beast_fmri_test	278	177371,/	t	<div class = centerbox2><div class = fixation>+</div></div>	none	500.0	test	n/a	n/a	n/a	n/a	n/a	n/a	n/a	n/a	n/a	n/a	n/a	n/a	n/a	n/a	n/a	n/a	n/a	n/a	fixation
29420.981686961692	2750	n/a	893	89	2750	673.018313038	stim	stop-signal	18	180310	0.0-7.5-1.5	beast_fmri_test	278	178051,/,178738,/,179413,/,180092,/,180772,/	t,t,t,t,t	<img class = center src='/static/experiments/beast_fmri_test/images/D.png'></img>	71,89	2750.0	test	<img class = center src='/static/experiments/beast_fmri_test/images/redD.png'></img>	go	2300.0	2.0	5.0	go	non-target	D	71,Index Finger	89,Middle Finger	500.0	450.0	2250.0	2300.0	1.0	n/a	450.0	1.0	go_stim
32170.981686961692	673.01831303831102	n/a	893	89	2750	673.018313038	stim	stop-signal	18	180310	0.0-7.5-1.5	beast_fmri_test	278	178051,/,178738,/,179413,/,180092,/,180772,/	t,t,t,t,t	<img class = center src='/static/experiments/beast_fmri_test/images/D.png'></img>	71,89	2750.0	test	<img class = center src='/static/experiments/beast_fmri_test/images/redD.png'></img>	go	2300.0	2.0	5.0	go	non-target	D	71,Index Finger	89,Middle Finger	500.0	450.0	2250.0	2300.0	1.0	n/a	450.0	1.0	ITI
34025	500	n/a	-1	-1	500	0.0	fixation	poldrack-single-stim	19	181491	0.0-7.6-0.6	beast_fmri_test	278	181451,/	t	<div class = centerbox2><div class = fixation>+</div></div>	none	500.0	test	n/a	n/a	n/a	n/a	n/a	n/a	n/a	n/a	n/a	n/a	n/a	n/a	n/a	n/a	n/a	n/a	n/a	n/a	fixation
32762.385473325703	2750	n/a	660	71	2750	1259.61452667	stim	stop-signal	20	184238	0.0-7.6-1.6	beast_fmri_test	278	182131,/,182812,/,183489,/,184166,/,184847,/	t,t,t,t,t	<img class = center src='/static/experiments/beast_fmri_test/images/T.png'></img>	71,89	2750.0	test	<img class = center src='/static/experiments/beast_fmri_test/images/redT.png'></img>	go	2250.0	2.0	6.0	go	target	T	71,Index Finger	89,Middle Finger	500.0	450.0	2250.0	2300.0	1.0	n/a	500.0	1.0	go_stim
35512.385473325703	1259.6145266742978	n/a	660	71	2750	1259.61452667	stim	stop-signal	20	184238	0.0-7.6-1.6	beast_fmri_test	278	182131,/,182812,/,183489,/,184166,/,184847,/	t,t,t,t,t	<img class = center src='/static/experiments/beast_fmri_test/images/T.png'></img>	71,89	2750.0	test	<img class = center src='/static/experiments/beast_fmri_test/images/redT.png'></img>	go	2250.0	2.0	6.0	go	target	T	71,Index Finger	89,Middle Finger	500.0	450.0	2250.0	2300.0	1.0	n/a	500.0	1.0	ITI
38538	500	n/a	-1	-1	500	0.0	fixation	poldrack-single-stim	21	186004	0.0-7.7-0.7	beast_fmri_test	278	185527,/	t	<div class = centerbox2><div class = fixation>+</div></div>	none	500.0	test	n/a	n/a	n/a	n/a	n/a	n/a	n/a	n/a	n/a	n/a	n/a	n/a	n/a	n/a	n/a	n/a	n/a	n/a	fixation
38068.84428867657	2750	n/a	527	89	2750	471.155711323	stim	stop-signal	22	188756	0.0-7.7-1.7	beast_fmri_test	278	186206,/,186887,/,187567,/,188246,/,188927,/	t,t,t,t,t	<img class = center src='/static/experiments/beast_fmri_test/images/B.png'></img>	71,89	2750.0	test	<img class = center src='/static/experiments/beast_fmri_test/images/redB.png'></img>	go	2300.0	2.0	7.0	go	non-target	B	71,Index Finger	89,Middle Finger	500.0	450.0	2250.0	2300.0	1.0	n/a	450.0	1.0	go_stim
40818.84428867657	471.15571132342046	n/a	527	89	2750	471.155711323	stim	stop-signal	22	188756	0.0-7.7-1.7	beast_fmri_test	278	186206,/,186887,/,187567,/,188246,/,188927,/	t,t,t,t,t	<img class = center src='/static/experiments/beast_fmri_test/images/B.png'></img>	71,89	2750.0	test	<img class = center src='/static/experiments/beast_fmri_test/images/redB.png'></img>	go	2300.0	2.0	7.0	go	non-target	B	71,Index Finger	89,Middle Finger	500.0	450.0	2250.0	2300.0	1.0	n/a	450.0	1.0	ITI
42267	500	n/a	-1	-1	500	0.0	fixation	poldrack-single-stim	23	189733	0.0-7.8-0.8	beast_fmri_test	278	189607,/	t	<div class = centerbox2><div class = fixation>+</div></div>	none	500.0	test	n/a	n/a	n/a	n/a	n/a	n/a	n/a	n/a	n/a	n/a	n/a	n/a	n/a	n/a	n/a	n/a	n/a	n/a	fixation
41907.607991476631	2750	n/a	764	89	2750	362.392008523	stim	stop-signal	24	192486	0.0-7.8-1.8	beast_fmri_test	278	190287,/,190967,/,191647,/,192326,/	t,t,t,t	<img class = center src='/static/experiments/beast_fmri_test/images/V.png'></img>	71,89	2750.0	test	<img class = center src='/static/experiments/beast_fmri_test/images/redV.png'></img>	go	2300.0	2.0	8.0	go	non-target	V	71,Index Finger	89,Middle Finger	500.0	450.0	2250.0	2300.0	1.0	n/a	450.0	1.0	go_stim
44657.607991476631	362.39200852336467	n/a	764	89	2750	362.392008523	stim	stop-signal	24	192486	0.0-7.8-1.8	beast_fmri_test	278	190287,/,190967,/,191647,/,192326,/	t,t,t,t	<img class = center src='/static/experiments/beast_fmri_test/images/V.png'></img>	71,89	2750.0	test	<img class = center src='/static/experiments/beast_fmri_test/images/redV.png'></img>	go	2300.0	2.0	8.0	go	non-target	V	71,Index Finger	89,Middle Finger	500.0	450.0	2250.0	2300.0	1.0	n/a	450.0	1.0	ITI
45889	500	n/a	-1	-1	500	0.0	fixation	poldrack-single-stim	25	193355	0.0-7.9-0.9	beast_fmri_test	278	193006,/	t	<div class = centerbox2><div class = fixation>+</div></div>	none	500.0	test	n/a	n/a	n/a	n/a	n/a	n/a	n/a	n/a	n/a	n/a	n/a	n/a	n/a	n/a	n/a	n/a	n/a	n/a	fixation
45742.712453231798	2750	n/a	816	89	2750	146.287546768	stim	stop-signal	26	196105	0.0-7.9-1.9	beast_fmri_test	278	193683,/,194362,/,195042,/,195721,/	t,t,t,t	<img class = center src='/static/experiments/beast_fmri_test/images/D.png'></img>	71,89	2750.0	test	<img class = center src='/static/experiments/beast_fmri_test/images/redD.png'></img>	go	2300.0	2.0	9.0	go	non-target	D	71,Index Finger	89,Middle Finger	500.0	450.0	2250.0	2300.0	1.0	n/a	450.0	1.0	go_stim
48492.712453231798	146.2875467682039	n/a	816	89	2750	146.287546768	stim	stop-signal	26	196105	0.0-7.9-1.9	beast_fmri_test	278	193683,/,194362,/,195042,/,195721,/	t,t,t,t	<img class = center src='/static/experiments/beast_fmri_test/images/D.png'></img>	71,89	2750.0	test	<img class = center src='/static/experiments/beast_fmri_test/images/redD.png'></img>	go	2300.0	2.0	9.0	go	non-target	D	71,Index Finger	89,Middle Finger	500.0	450.0	2250.0	2300.0	1.0	n/a	450.0	1.0	ITI
49295	500	n/a	-1	-1	500	0.0	fixation	poldrack-single-stim	27	196761	0.0-7.10-0.10	beast_fmri_test	278	196401,/	t	<div class = centerbox2><div class = fixation>+</div></div>	none	500.0	test	n/a	n/a	n/a	n/a	n/a	n/a	n/a	n/a	n/a	n/a	n/a	n/a	n/a	n/a	n/a	n/a	n/a	n/a	fixation
47904.670666551305	2750	n/a	718	71	2750	1391.32933345	stim	stop-signal	28	199512	0.0-7.10-1.10	beast_fmri_test	278	197082,/,197761,/,198442,/,199121,/,199801,/,200482,/	t,t,t,t,t,t	<img class = center src='/static/experiments/beast_fmri_test/images/V.png'></img>	71,89	2750.0	test	<img class = center src='/static/experiments/beast_fmri_test/images/redV.png'></img>	go	2250.0	2.0	10.0	go	target	V	71,Index Finger	89,Middle Finger	500.0	450.0	2250.0	2300.0	1.0	n/a	500.0	1.0	go_stim
50654.670666551305	1391.3293334486848	n/a	718	71	2750	1391.32933345	stim	stop-signal	28	199512	0.0-7.10-1.10	beast_fmri_test	278	197082,/,197761,/,198442,/,199121,/,199801,/,200482,/	t,t,t,t,t,t	<img class = center src='/static/experiments/beast_fmri_test/images/V.png'></img>	71,89	2750.0	test	<img class = center src='/static/experiments/beast_fmri_test/images/redV.png'></img>	go	2250.0	2.0	10.0	go	target	V	71,Index Finger	89,Middle Finger	500.0	450.0	2250.0	2300.0	1.0	n/a	500.0	1.0	ITI
53946	500	n/a	-1	-1	500	0.0	fixation	poldrack-single-stim	29	201412	0.0-7.11-0.11	beast_fmri_test	278	201162,/	t	<div class = centerbox2><div class = fixation>+</div></div>	none	500.0	test	n/a	n/a	n/a	n/a	n/a	n/a	n/a	n/a	n/a	n/a	n/a	n/a	n/a	n/a	n/a	n/a	n/a	n/a	fixation
53925.410605040815	2750	n/a	594	89	2750	18.5893949592	stim	stop-signal	30	204160	0.0-7.11-1.11	beast_fmri_test	278	201841,/,202522,/,203201,/,203878,/	t,t,t,t	<img class = center src='/static/experiments/beast_fmri_test/images/P.png'></img>	71,89	2750.0	test	<img class = center src='/static/experiments/beast_fmri_test/images/redP.png'></img>	go	2300.0	2.0	11.0	go	non-target	P	71,Index Finger	89,Middle Finger	500.0	450.0	2250.0	2300.0	1.0	n/a	450.0	1.0	go_stim
56675.410605040815	18.589394959176715	n/a	594	89	2750	18.5893949592	stim	stop-signal	30	204160	0.0-7.11-1.11	beast_fmri_test	278	201841,/,202522,/,203201,/,203878,/	t,t,t,t	<img class = center src='/static/experiments/beast_fmri_test/images/P.png'></img>	71,89	2750.0	test	<img class = center src='/static/experiments/beast_fmri_test/images/redP.png'></img>	go	2300.0	2.0	11.0	go	non-target	P	71,Index Finger	89,Middle Finger	500.0	450.0	2250.0	2300.0	1.0	n/a	450.0	1.0	ITI
57220	500	n/a	-1	-1	500	0.0	fixation	poldrack-single-stim	31	204686	0.0-7.12-0.12	beast_fmri_test	278	204557,/	t	<div class = centerbox2><div class = fixation>+</div></div>	none	500.0	test	n/a	n/a	n/a	n/a	n/a	n/a	n/a	n/a	n/a	n/a	n/a	n/a	n/a	n/a	n/a	n/a	n/a	n/a	fixation
57125.869887331384	2750	n/a	1207	71	2750	96.1301126686	stim	stop-signal	32	207438	0.0-7.12-1.12	beast_fmri_test	278	205237,/,205916,/,206597,/,207277,/	t,t,t,t	<img class = center src='/static/experiments/beast_fmri_test/images/V.png'></img>	71,89	2750.0	test	<img class = center src='/static/experiments/beast_fmri_test/images/redV.png'></img>	go	2250.0	2.0	12.0	go	target	V	71,Index Finger	89,Middle Finger	500.0	450.0	2250.0	2300.0	1.0	n/a	500.0	1.0	go_stim
59875.869887331384	96.130112668620256	n/a	1207	71	2750	96.1301126686	stim	stop-signal	32	207438	0.0-7.12-1.12	beast_fmri_test	278	205237,/,205916,/,206597,/,207277,/	t,t,t,t	<img class = center src='/static/experiments/beast_fmri_test/images/V.png'></img>	71,89	2750.0	test	<img class = center src='/static/experiments/beast_fmri_test/images/redV.png'></img>	go	2250.0	2.0	12.0	go	target	V	71,Index Finger	89,Middle Finger	500.0	450.0	2250.0	2300.0	1.0	n/a	500.0	1.0	ITI
60581	500	n/a	-1	-1	500	0.0	fixation	poldrack-single-stim	33	208047	0.0-7.13-0.13	beast_fmri_test	278	207959,/	t	<div class = centerbox2><div class = fixation>+</div></div>	none	500.0	test	n/a	n/a	n/a	n/a	n/a	n/a	n/a	n/a	n/a	n/a	n/a	n/a	n/a	n/a	n/a	n/a	n/a	n/a	fixation
59388.658734649187	450.0	n/a	757	89	2750	1194.34126535	stim	stop-signal	34	210799	0.0-7.13-1.13	beast_fmri_test	278	208636,/,209317,/,209997,/,210678,/,211357,/	t,t,t,t,t	<img class = center src='/static/experiments/beast_fmri_test/images/T.png'></img>	71,89	2750.0	test	<img class = center src='/static/experiments/beast_fmri_test/images/redT.png'></img>	stop	2300.0	2.0	13.0	stop	non-target	T	71,Index Finger	89,Middle Finger	500.0	450.0	2250.0	2300.0	0.0	0.0	450.0	n/a	go_stim
61688.658734649187	2300.0	n/a	757	89	2750	1194.34126535	stim	stop-signal	34	210799	0.0-7.13-1.13	beast_fmri_test	278	208636,/,209317,/,209997,/,210678,/,211357,/	t,t,t,t,t	<img class = center src='/static/experiments/beast_fmri_test/images/T.png'></img>	71,89	2750.0	test	<img class = center src='/static/experiments/beast_fmri_test/images/redT.png'></img>	stop	2300.0	2.0	13.0	stop	non-target	T	71,Index Finger	89,Middle Finger	500.0	450.0	2250.0	2300.0	0.0	0.0	450.0	n/a	stop_stim
62138.658734649187	1194.3412653508251	n/a	757	89	2750	1194.34126535	stim	stop-signal	34	210799	0.0-7.13-1.13	beast_fmri_test	278	208636,/,209317,/,209997,/,210678,/,211357,/	t,t,t,t,t	<img class = center src='/static/experiments/beast_fmri_test/images/T.png'></img>	71,89	2750.0	test	<img class = center src='/static/experiments/beast_fmri_test/images/redT.png'></img>	stop	2300.0	2.0	13.0	stop	non-target	T	71,Index Finger	89,Middle Finger	500.0	450.0	2250.0	2300.0	0.0	0.0	450.0	n/a	ITI
65038	500	n/a	-1	-1	500	0.0	fixation	poldrack-single-stim	35	212504	0.0-7.14-0.14	beast_fmri_test	278	212037,/	t	<div class = centerbox2><div class = fixation>+</div></div>	none	500.0	test	n/a	n/a	n/a	n/a	n/a	n/a	n/a	n/a	n/a	n/a	n/a	n/a	n/a	n/a	n/a	n/a	n/a	n/a	fixation
63832.137790163688	2750	n/a	952	89	2750	1204.86220984	stim	stop-signal	36	215253	0.0-7.14-1.14	beast_fmri_test	278	212717,/,213395,/,214074,/,214753,/,215433,/,216113,/	t,t,t,t,t,t	<img class = center src='/static/experiments/beast_fmri_test/images/T.png'></img>	71,89	2750.0	test	<img class = center src='/static/experiments/beast_fmri_test/images/redT.png'></img>	go	2350.0	2.0	14.0	go	non-target	T	71,Index Finger	89,Middle Finger	500.0	400.0	2250.0	2350.0	1.0	n/a	400.0	1.0	go_stim
66582.137790163688	1204.8622098363073	n/a	952	89	2750	1204.86220984	stim	stop-signal	36	215253	0.0-7.14-1.14	beast_fmri_test	278	212717,/,213395,/,214074,/,214753,/,215433,/,216113,/	t,t,t,t,t,t	<img class = center src='/static/experiments/beast_fmri_test/images/T.png'></img>	71,89	2750.0	test	<img class = center src='/static/experiments/beast_fmri_test/images/redT.png'></img>	go	2350.0	2.0	14.0	go	non-target	T	71,Index Finger	89,Middle Finger	500.0	400.0	2250.0	2350.0	1.0	n/a	400.0	1.0	ITI
69501	500	n/a	-1	-1	500	0.0	fixation	poldrack-single-stim	37	216967	0.0-7.15-0.15	beast_fmri_test	278	216793,/	t	<div class = centerbox2><div class = fixation>+</div></div>	none	500.0	test	n/a	n/a	n/a	n/a	n/a	n/a	n/a	n/a	n/a	n/a	n/a	n/a	n/a	n/a	n/a	n/a	n/a	n/a	fixation
68084.144049939554	2750	n/a	721	71	2750	1418.85595006	stim	stop-signal	38	219719	0.0-7.15-1.15	beast_fmri_test	278	217473,/,218154,/,218833,/,219513,/,220193,/,220872,/	t,t,t,t,t,t	<img class = center src='/static/experiments/beast_fmri_test/images/T.png'></img>	71,89	2750.0	test	<img class = center src='/static/experiments/beast_fmri_test/images/redT.png'></img>	go	2250.0	2.0	15.0	go	target	T	71,Index Finger	89,Middle Finger	500.0	400.0	2250.0	2350.0	1.0	n/a	500.0	1.0	go_stim
70834.144049939554	1418.8559500604495	n/a	721	71	2750	1418.85595006	stim	stop-signal	38	219719	0.0-7.15-1.15	beast_fmri_test	278	217473,/,218154,/,218833,/,219513,/,220193,/,220872,/	t,t,t,t,t,t	<img class = center src='/static/experiments/beast_fmri_test/images/T.png'></img>	71,89	2750.0	test	<img class = center src='/static/experiments/beast_fmri_test/images/redT.png'></img>	go	2250.0	2.0	15.0	go	target	T	71,Index Finger	89,Middle Finger	500.0	400.0	2250.0	2350.0	1.0	n/a	500.0	1.0	ITI
74183	500	n/a	-1	-1	500	0.0	fixation	poldrack-single-stim	39	221649	0.0-7.16-0.16	beast_fmri_test	278	221553,/	t	<div class = centerbox2><div class = fixation>+</div></div>	none	500.0	test	n/a	n/a	n/a	n/a	n/a	n/a	n/a	n/a	n/a	n/a	n/a	n/a	n/a	n/a	n/a	n/a	n/a	n/a	fixation
72259.84692653321	2750	n/a	610	71	2750	1920.15307347	stim	stop-signal	40	224396	0.0-7.16-1.16	beast_fmri_test	278	222232,/,222913,/,223590,/,224267,/,224948,/,225628,/,226307,/	t,t,t,t,t,t,t	<img class = center src='/static/experiments/beast_fmri_test/images/T.png'></img>	71,89	2750.0	test	<img class = center src='/static/experiments/beast_fmri_test/images/redT.png'></img>	go	2250.0	2.0	16.0	go	target	T	71,Index Finger	89,Middle Finger	500.0	400.0	2250.0	2350.0	1.0	n/a	500.0	1.0	go_stim
75009.84692653321	1920.1530734667829	n/a	610	71	2750	1920.15307347	stim	stop-signal	40	224396	0.0-7.16-1.16	beast_fmri_test	278	222232,/,222913,/,223590,/,224267,/,224948,/,225628,/,226307,/	t,t,t,t,t,t,t	<img class = center src='/static/experiments/beast_fmri_test/images/T.png'></img>	71,89	2750.0	test	<img class = center src='/static/experiments/beast_fmri_test/images/redT.png'></img>	go	2250.0	2.0	16.0	go	target	T	71,Index Finger	89,Middle Finger	500.0	400.0	2250.0	2350.0	1.0	n/a	500.0	1.0	ITI
79359	500	n/a	-1	-1	500	0.0	fixation	poldrack-single-stim	41	226825	0.0-7.17-0.17	beast_fmri_test	278	n/a	n/a	<div class = centerbox2><div class = fixation>+</div></div>	none	500.0	test	n/a	n/a	n/a	n/a	n/a	n/a	n/a	n/a	n/a	n/a	n/a	n/a	n/a	n/a	n/a	n/a	n/a	n/a	fixation
79230.340344494238	2750	n/a	766	89	2750	130.659655506	stim	stop-signal	42	229577	0.0-7.17-1.17	beast_fmri_test	278	226986,/,227668,/,228348,/,229029,/,229708,/	t,t,t,t,t	<img class = center src='/static/experiments/beast_fmri_test/images/P.png'></img>	71,89	2750.0	test	<img class = center src='/static/experiments/beast_fmri_test/images/redP.png'></img>	go	2350.0	2.0	17.0	go	non-target	P	71,Index Finger	89,Middle Finger	500.0	400.0	2250.0	2350.0	1.0	n/a	400.0	1.0	go_stim
81980.340344494238	130.65965550577221	n/a	766	89	2750	130.659655506	stim	stop-signal	42	229577	0.0-7.17-1.17	beast_fmri_test	278	226986,/,227668,/,228348,/,229029,/,229708,/	t,t,t,t,t	<img class = center src='/static/experiments/beast_fmri_test/images/P.png'></img>	71,89	2750.0	test	<img class = center src='/static/experiments/beast_fmri_test/images/redP.png'></img>	go	2350.0	2.0	17.0	go	non-target	P	71,Index Finger	89,Middle Finger	500.0	400.0	2250.0	2350.0	1.0	n/a	400.0	1.0	ITI
82751	500	n/a	-1	-1	500	0.0	fixation	poldrack-single-stim	43	230217	0.0-7.18-0.18	beast_fmri_test	278	n/a	n/a	<div class = centerbox2><div class = fixation>+</div></div>	none	500.0	test	n/a	n/a	n/a	n/a	n/a	n/a	n/a	n/a	n/a	n/a	n/a	n/a	n/a	n/a	n/a	n/a	n/a	n/a	fixation
82238.014197595388	500.0	n/a	471	71	2750	514.985802405	stim	stop-signal	44	232969	0.0-7.18-1.18	beast_fmri_test	278	230387,/,231067,/,231748,/,232428,/,233108,/	t,t,t,t,t	<img class = center src='/static/experiments/beast_fmri_test/images/T.png'></img>	71,89	2750.0	test	<img class = center src='/static/experiments/beast_fmri_test/images/redT.png'></img>	stop	2250.0	2.0	18.0	stop	target	T	71,Index Finger	89,Middle Finger	500.0	400.0	2250.0	2350.0	0.0	0.0	500.0	n/a	go_stim
84488.014197595388	2250.0	n/a	471	71	2750	514.985802405	stim	stop-signal	44	232969	0.0-7.18-1.18	beast_fmri_test	278	230387,/,231067,/,231748,/,232428,/,233108,/	t,t,t,t,t	<img class = center src='/static/experiments/beast_fmri_test/images/T.png'></img>	71,89	2750.0	test	<img class = center src='/static/experiments/beast_fmri_test/images/redT.png'></img>	stop	2250.0	2.0	18.0	stop	target	T	71,Index Finger	89,Middle Finger	500.0	400.0	2250.0	2350.0	0.0	0.0	500.0	n/a	stop_stim
84988.014197595388	514.98580240460774	n/a	471	71	2750	514.985802405	stim	stop-signal	44	232969	0.0-7.18-1.18	beast_fmri_test	278	230387,/,231067,/,231748,/,232428,/,233108,/	t,t,t,t,t	<img class = center src='/static/experiments/beast_fmri_test/images/T.png'></img>	71,89	2750.0	test	<img class = center src='/static/experiments/beast_fmri_test/images/redT.png'></img>	stop	2250.0	2.0	18.0	stop	target	T	71,Index Finger	89,Middle Finger	500.0	400.0	2250.0	2350.0	0.0	0.0	500.0	n/a	ITI
86521	500	n/a	-1	-1	500	0.0	fixation	poldrack-single-stim	45	233987	0.0-7.19-0.19	beast_fmri_test	278	233785,/	t	<div class = centerbox2><div class = fixation>+</div></div>	none	500.0	test	n/a	n/a	n/a	n/a	n/a	n/a	n/a	n/a	n/a	n/a	n/a	n/a	n/a	n/a	n/a	n/a	n/a	n/a	fixation
85063.899433581653	2750	n/a	579	71	2750	1459.10056642	stim	stop-signal	46	236739	0.0-7.19-1.19	beast_fmri_test	278	234463,/,235144,/,235824,/,236504,/,237184,/,237865,/	t,t,t,t,t,t	<img class = center src='/static/experiments/beast_fmri_test/images/P.png'></img>	71,89	2750.0	test	<img class = center src='/static/experiments/beast_fmri_test/images/redP.png'></img>	go	2300.0	2.0	19.0	go	target	P	71,Index Finger	89,Middle Finger	450.0	400.0	2300.0	2350.0	1.0	n/a	450.0	1.0	go_stim
87813.899433581653	1459.1005664183447	n/a	579	71	2750	1459.10056642	stim	stop-signal	46	236739	0.0-7.19-1.19	beast_fmri_test	278	234463,/,235144,/,235824,/,236504,/,237184,/,237865,/	t,t,t,t,t,t	<img class = center src='/static/experiments/beast_fmri_test/images/P.png'></img>	71,89	2750.0	test	<img class = center src='/static/experiments/beast_fmri_test/images/redP.png'></img>	go	2300.0	2.0	19.0	go	target	P	71,Index Finger	89,Middle Finger	450.0	400.0	2300.0	2350.0	1.0	n/a	450.0	1.0	ITI
91243	500	n/a	-1	-1	500	0.0	fixation	poldrack-single-stim	47	238709	0.0-7.20-0.20	beast_fmri_test	278	238544,/	t	<div class = centerbox2><div class = fixation>+</div></div>	none	500.0	test	n/a	n/a	n/a	n/a	n/a	n/a	n/a	n/a	n/a	n/a	n/a	n/a	n/a	n/a	n/a	n/a	n/a	n/a	fixation
90617.326404629741	2750	n/a	527	89	2750	627.67359537	stim	stop-signal	48	241461	0.0-7.20-1.20	beast_fmri_test	278	239225,/,239903,/,240583,/,241264,/,241943,/	t,t,t,t,t	<img class = center src='/static/experiments/beast_fmri_test/images/D.png'></img>	71,89	2750.0	test	<img class = center src='/static/experiments/beast_fmri_test/images/redD.png'></img>	go	2350.0	2.0	20.0	go	non-target	D	71,Index Finger	89,Middle Finger	450.0	400.0	2300.0	2350.0	1.0	n/a	400.0	1.0	go_stim
93367.326404629741	627.673595370258	n/a	527	89	2750	627.67359537	stim	stop-signal	48	241461	0.0-7.20-1.20	beast_fmri_test	278	239225,/,239903,/,240583,/,241264,/,241943,/	t,t,t,t,t	<img class = center src='/static/experiments/beast_fmri_test/images/D.png'></img>	71,89	2750.0	test	<img class = center src='/static/experiments/beast_fmri_test/images/redD.png'></img>	go	2350.0	2.0	20.0	go	non-target	D	71,Index Finger	89,Middle Finger	450.0	400.0	2300.0	2350.0	1.0	n/a	400.0	1.0	ITI
95132	500	n/a	-1	-1	500	0.0	fixation	poldrack-single-stim	49	242598	0.0-7.21-0.21	beast_fmri_test	278	n/a	n/a	<div class = centerbox2><div class = fixation>+</div></div>	none	500.0	test	n/a	n/a	n/a	n/a	n/a	n/a	n/a	n/a	n/a	n/a	n/a	n/a	n/a	n/a	n/a	n/a	n/a	n/a	fixation
91985.575430918107	2750	n/a	758	89	2750	3144.42456908	stim	stop-signal	50	245346	0.0-7.21-1.21	beast_fmri_test	278	242624,/,243302,/,243980,/,244659,/,245339,/,246019,/,246699,/,247380,/,248059,/	t,t,t,t,t,t,t,t,t	<img class = center src='/static/experiments/beast_fmri_test/images/V.png'></img>	71,89	2750.0	test	<img class = center src='/static/experiments/beast_fmri_test/images/redV.png'></img>	go	2350.0	2.0	21.0	go	non-target	V	71,Index Finger	89,Middle Finger	450.0	400.0	2300.0	2350.0	1.0	n/a	400.0	1.0	go_stim
94735.575430918107	3144.4245690819062	n/a	758	89	2750	3144.42456908	stim	stop-signal	50	245346	0.0-7.21-1.21	beast_fmri_test	278	242624,/,243302,/,243980,/,244659,/,245339,/,246019,/,246699,/,247380,/,248059,/	t,t,t,t,t,t,t,t,t	<img class = center src='/static/experiments/beast_fmri_test/images/V.png'></img>	71,89	2750.0	test	<img class = center src='/static/experiments/beast_fmri_test/images/redV.png'></img>	go	2350.0	2.0	21.0	go	non-target	V	71,Index Finger	89,Middle Finger	450.0	400.0	2300.0	2350.0	1.0	n/a	400.0	1.0	ITI
101536	500	n/a	-1	-1	500	0.0	fixation	poldrack-single-stim	51	249002	0.0-7.22-0.22	beast_fmri_test	278	248740,/	t	<div class = centerbox2><div class = fixation>+</div></div>	none	500.0	test	n/a	n/a	n/a	n/a	n/a	n/a	n/a	n/a	n/a	n/a	n/a	n/a	n/a	n/a	n/a	n/a	n/a	n/a	fixation
99849.265173469379	2750	n/a	594	71	2750	1690.73482653	stim	stop-signal	52	251756	0.0-7.22-1.22	beast_fmri_test	278	249418,/,250099,/,250779,/,251459,/,252140,/,252819,/	t,t,t,t,t,t	<img class = center src='/static/experiments/beast_fmri_test/images/D.png'></img>	71,89	2750.0	test	<img class = center src='/static/experiments/beast_fmri_test/images/redD.png'></img>	go	2300.0	2.0	22.0	go	target	D	71,Index Finger	89,Middle Finger	450.0	400.0	2300.0	2350.0	1.0	n/a	450.0	1.0	go_stim
102599.26517346938	1690.7348265306105	n/a	594	71	2750	1690.73482653	stim	stop-signal	52	251756	0.0-7.22-1.22	beast_fmri_test	278	249418,/,250099,/,250779,/,251459,/,252140,/,252819,/	t,t,t,t,t,t	<img class = center src='/static/experiments/beast_fmri_test/images/D.png'></img>	71,89	2750.0	test	<img class = center src='/static/experiments/beast_fmri_test/images/redD.png'></img>	go	2300.0	2.0	22.0	go	target	D	71,Index Finger	89,Middle Finger	450.0	400.0	2300.0	2350.0	1.0	n/a	450.0	1.0	ITI
106486	500	n/a	-1	-1	500	0.0	fixation	poldrack-single-stim	53	253952	0.0-7.23-0.23	beast_fmri_test	278	253496,/	t	<div class = centerbox2><div class = fixation>+</div></div>	none	500.0	test	n/a	n/a	n/a	n/a	n/a	n/a	n/a	n/a	n/a	n/a	n/a	n/a	n/a	n/a	n/a	n/a	n/a	n/a	fixation
106108.8925412856	400.0	n/a	-1	-1	2750	378.107458714	stim	stop-signal	54	256703	0.0-7.23-1.23	beast_fmri_test	278	254174,/,254853,/,255535,/,256215,/,256895,/	t,t,t,t,t	<img class = center src='/static/experiments/beast_fmri_test/images/D.png'></img>	71,89	2750.0	test	<img class = center src='/static/experiments/beast_fmri_test/images/redD.png'></img>	stop	2350.0	2.0	23.0	stop	non-target	D	71,Index Finger	89,Middle Finger	450.0	400.0	2300.0	2350.0	0.0	1.0	400.0	n/a	go_stim
108458.8925412856	2350.0	n/a	-1	-1	2750	378.107458714	stim	stop-signal	54	256703	0.0-7.23-1.23	beast_fmri_test	278	254174,/,254853,/,255535,/,256215,/,256895,/	t,t,t,t,t	<img class = center src='/static/experiments/beast_fmri_test/images/D.png'></img>	71,89	2750.0	test	<img class = center src='/static/experiments/beast_fmri_test/images/redD.png'></img>	stop	2350.0	2.0	23.0	stop	non-target	D	71,Index Finger	89,Middle Finger	450.0	400.0	2300.0	2350.0	0.0	1.0	400.0	n/a	stop_stim
108858.8925412856	378.10745871440366	n/a	-1	-1	2750	378.107458714	stim	stop-signal	54	256703	0.0-7.23-1.23	beast_fmri_test	278	254174,/,254853,/,255535,/,256215,/,256895,/	t,t,t,t,t	<img class = center src='/static/experiments/beast_fmri_test/images/D.png'></img>	71,89	2750.0	test	<img class = center src='/static/experiments/beast_fmri_test/images/redD.png'></img>	stop	2350.0	2.0	23.0	stop	non-target	D	71,Index Finger	89,Middle Finger	450.0	400.0	2300.0	2350.0	0.0	1.0	400.0	n/a	ITI
110127	500	n/a	-1	-1	500	0.0	fixation	poldrack-single-stim	55	257593	0.0-7.24-0.24	beast_fmri_test	278	257575,/	t	<div class = centerbox2><div class = fixation>+</div></div>	none	500.0	test	n/a	n/a	n/a	n/a	n/a	n/a	n/a	n/a	n/a	n/a	n/a	n/a	n/a	n/a	n/a	n/a	n/a	n/a	fixation
108703.97362450746	2750	n/a	823	89	2750	1425.02637549	stim	stop-signal	56	260345	0.0-7.24-1.24	beast_fmri_test	278	258254,/,258934,/,259614,/,260293,/,260974,/,261654,/	t,t,t,t,t,t	<img class = center src='/static/experiments/beast_fmri_test/images/T.png'></img>	71,89	2750.0	test	<img class = center src='/static/experiments/beast_fmri_test/images/redT.png'></img>	go	2300.0	2.0	24.0	go	non-target	T	71,Index Finger	89,Middle Finger	450.0	450.0	2300.0	2300.0	1.0	n/a	450.0	1.0	go_stim
111453.97362450746	1425.026375492532	n/a	823	89	2750	1425.02637549	stim	stop-signal	56	260345	0.0-7.24-1.24	beast_fmri_test	278	258254,/,258934,/,259614,/,260293,/,260974,/,261654,/	t,t,t,t,t,t	<img class = center src='/static/experiments/beast_fmri_test/images/T.png'></img>	71,89	2750.0	test	<img class = center src='/static/experiments/beast_fmri_test/images/redT.png'></img>	go	2300.0	2.0	24.0	go	non-target	T	71,Index Finger	89,Middle Finger	450.0	450.0	2300.0	2300.0	1.0	n/a	450.0	1.0	ITI
114812	500	n/a	-1	-1	500	0.0	fixation	poldrack-single-stim	57	262278	0.0-7.25-0.25	beast_fmri_test	278	n/a	n/a	<div class = centerbox2><div class = fixation>+</div></div>	none	500.0	test	n/a	n/a	n/a	n/a	n/a	n/a	n/a	n/a	n/a	n/a	n/a	n/a	n/a	n/a	n/a	n/a	n/a	n/a	fixation
113158.22622385772	450.0	n/a	-1	-1	2750	1652.77377614	stim	stop-signal	58	265027	0.0-7.25-1.25	beast_fmri_test	278	262333,/,263013,/,263692,/,264369,/,265048,/,265729,/,266410,/	t,t,t,t,t,t,t	<img class = center src='/static/experiments/beast_fmri_test/images/D.png'></img>	71,89	2750.0	test	<img class = center src='/static/experiments/beast_fmri_test/images/redD.png'></img>	stop	2300.0	2.0	25.0	stop	target	D	71,Index Finger	89,Middle Finger	450.0	450.0	2300.0	2300.0	0.0	1.0	450.0	n/a	go_stim
115458.22622385772	2300.0	n/a	-1	-1	2750	1652.77377614	stim	stop-signal	58	265027	0.0-7.25-1.25	beast_fmri_test	278	262333,/,263013,/,263692,/,264369,/,265048,/,265729,/,266410,/	t,t,t,t,t,t,t	<img class = center src='/static/experiments/beast_fmri_test/images/D.png'></img>	71,89	2750.0	test	<img class = center src='/static/experiments/beast_fmri_test/images/redD.png'></img>	stop	2300.0	2.0	25.0	stop	target	D	71,Index Finger	89,Middle Finger	450.0	450.0	2300.0	2300.0	0.0	1.0	450.0	n/a	stop_stim
115908.22622385772	1652.773776142297	n/a	-1	-1	2750	1652.77377614	stim	stop-signal	58	265027	0.0-7.25-1.25	beast_fmri_test	278	262333,/,263013,/,263692,/,264369,/,265048,/,265729,/,266410,/	t,t,t,t,t,t,t	<img class = center src='/static/experiments/beast_fmri_test/images/D.png'></img>	71,89	2750.0	test	<img class = center src='/static/experiments/beast_fmri_test/images/redD.png'></img>	stop	2300.0	2.0	25.0	stop	target	D	71,Index Finger	89,Middle Finger	450.0	450.0	2300.0	2300.0	0.0	1.0	450.0	n/a	ITI
119725	500	n/a	-1	-1	500	0.0	fixation	poldrack-single-stim	59	267191	0.0-7.26-0.26	beast_fmri_test	278	267090,/	t	<div class = centerbox2><div class = fixation>+</div></div>	none	500.0	test	n/a	n/a	n/a	n/a	n/a	n/a	n/a	n/a	n/a	n/a	n/a	n/a	n/a	n/a	n/a	n/a	n/a	n/a	fixation
118698.90009110933	2750	n/a	1047	71	2750	1029.09990889	stim	stop-signal	60	269944	0.0-7.26-1.26	beast_fmri_test	278	267770,/,268449,/,269130,/,269809,/,270491,/	t,t,t,t,t	<img class = center src='/static/experiments/beast_fmri_test/images/D.png'></img>	71,89	2750.0	test	<img class = center src='/static/experiments/beast_fmri_test/images/redD.png'></img>	go	2300.0	2.0	26.0	go	non-target	D	71,Index Finger	89,Middle Finger	500.0	450.0	2300.0	2300.0	0.0	n/a	450.0	0.0	go_stim
121448.90009110933	1029.0999088906581	n/a	1047	71	2750	1029.09990889	stim	stop-signal	60	269944	0.0-7.26-1.26	beast_fmri_test	278	267770,/,268449,/,269130,/,269809,/,270491,/	t,t,t,t,t	<img class = center src='/static/experiments/beast_fmri_test/images/D.png'></img>	71,89	2750.0	test	<img class = center src='/static/experiments/beast_fmri_test/images/redD.png'></img>	go	2300.0	2.0	26.0	go	non-target	D	71,Index Finger	89,Middle Finger	500.0	450.0	2300.0	2300.0	0.0	n/a	450.0	0.0	ITI
124019	500	n/a	-1	-1	500	0.0	fixation	poldrack-single-stim	61	271485	0.0-7.27-0.27	beast_fmri_test	278	271171,/	t	<div class = centerbox2><div class = fixation>+</div></div>	none	500.0	test	n/a	n/a	n/a	n/a	n/a	n/a	n/a	n/a	n/a	n/a	n/a	n/a	n/a	n/a	n/a	n/a	n/a	n/a	fixation
123900.74007080274	450.0	n/a	-1	-1	2750	117.259929197	stim	stop-signal	62	274234	0.0-7.27-1.27	beast_fmri_test	278	271850,/,272531,/,273209,/,273885,/	t,t,t,t	<img class = center src='/static/experiments/beast_fmri_test/images/T.png'></img>	71,89	2750.0	test	<img class = center src='/static/experiments/beast_fmri_test/images/redT.png'></img>	stop	2300.0	2.0	27.0	stop	non-target	T	71,Index Finger	89,Middle Finger	500.0	450.0	2300.0	2300.0	0.0	1.0	450.0	n/a	go_stim
126200.74007080274	2300.0	n/a	-1	-1	2750	117.259929197	stim	stop-signal	62	274234	0.0-7.27-1.27	beast_fmri_test	278	271850,/,272531,/,273209,/,273885,/	t,t,t,t	<img class = center src='/static/experiments/beast_fmri_test/images/T.png'></img>	71,89	2750.0	test	<img class = center src='/static/experiments/beast_fmri_test/images/redT.png'></img>	stop	2300.0	2.0	27.0	stop	non-target	T	71,Index Finger	89,Middle Finger	500.0	450.0	2300.0	2300.0	0.0	1.0	450.0	n/a	stop_stim
126650.74007080274	117.25992919724966	n/a	-1	-1	2750	117.259929197	stim	stop-signal	62	274234	0.0-7.27-1.27	beast_fmri_test	278	271850,/,272531,/,273209,/,273885,/	t,t,t,t	<img class = center src='/static/experiments/beast_fmri_test/images/T.png'></img>	71,89	2750.0	test	<img class = center src='/static/experiments/beast_fmri_test/images/redT.png'></img>	stop	2300.0	2.0	27.0	stop	non-target	T	71,Index Finger	89,Middle Finger	500.0	450.0	2300.0	2300.0	0.0	1.0	450.0	n/a	ITI
127396	500	n/a	-1	-1	500	0.0	fixation	poldrack-single-stim	63	274862	0.0-7.28-0.28	beast_fmri_test	278	274566,/	t	<div class = centerbox2><div class = fixation>+</div></div>	none	500.0	test	n/a	n/a	n/a	n/a	n/a	n/a	n/a	n/a	n/a	n/a	n/a	n/a	n/a	n/a	n/a	n/a	n/a	n/a	fixation
127367.53851626429	500.0	n/a	-1	-1	2750	30.4614837357	stim	stop-signal	64	277614	0.0-7.28-1.28	beast_fmri_test	278	275245,/,275925,/,276605,/,277284,/	t,t,t,t	<img class = center src='/static/experiments/beast_fmri_test/images/D.png'></img>	71,89	2750.0	test	<img class = center src='/static/experiments/beast_fmri_test/images/redD.png'></img>	stop	2250.0	2.0	28.0	stop	target	D	71,Index Finger	89,Middle Finger	500.0	500.0	2250.0	2300.0	0.0	1.0	500.0	n/a	go_stim
129617.53851626429	2250.0	n/a	-1	-1	2750	30.4614837357	stim	stop-signal	64	277614	0.0-7.28-1.28	beast_fmri_test	278	275245,/,275925,/,276605,/,277284,/	t,t,t,t	<img class = center src='/static/experiments/beast_fmri_test/images/D.png'></img>	71,89	2750.0	test	<img class = center src='/static/experiments/beast_fmri_test/images/redD.png'></img>	stop	2250.0	2.0	28.0	stop	target	D	71,Index Finger	89,Middle Finger	500.0	500.0	2250.0	2300.0	0.0	1.0	500.0	n/a	stop_stim
130117.53851626429	30.461483735684201	n/a	-1	-1	2750	30.4614837357	stim	stop-signal	64	277614	0.0-7.28-1.28	beast_fmri_test	278	275245,/,275925,/,276605,/,277284,/	t,t,t,t	<img class = center src='/static/experiments/beast_fmri_test/images/D.png'></img>	71,89	2750.0	test	<img class = center src='/static/experiments/beast_fmri_test/images/redD.png'></img>	stop	2250.0	2.0	28.0	stop	target	D	71,Index Finger	89,Middle Finger	500.0	500.0	2250.0	2300.0	0.0	1.0	500.0	n/a	ITI
130688	500	n/a	-1	-1	500	0.0	fixation	poldrack-single-stim	65	278154	0.0-7.29-0.29	beast_fmri_test	278	277965,/	t	<div class = centerbox2><div class = fixation>+</div></div>	none	500.0	test	n/a	n/a	n/a	n/a	n/a	n/a	n/a	n/a	n/a	n/a	n/a	n/a	n/a	n/a	n/a	n/a	n/a	n/a	fixation
130652.9491054294	2750	n/a	914	71	2750	38.0508945706	stim	stop-signal	66	280907	0.0-7.29-1.29	beast_fmri_test	278	278645,/,279324,/,280004,/,280686,/	t,t,t,t	<img class = center src='/static/experiments/beast_fmri_test/images/D.png'></img>	71,89	2750.0	test	<img class = center src='/static/experiments/beast_fmri_test/images/redD.png'></img>	go	2250.0	2.0	29.0	go	non-target	D	71,Index Finger	89,Middle Finger	550.0	500.0	2250.0	2250.0	0.0	n/a	500.0	0.0	go_stim
133402.9491054294	38.050894570587111	n/a	914	71	2750	38.0508945706	stim	stop-signal	66	280907	0.0-7.29-1.29	beast_fmri_test	278	278645,/,279324,/,280004,/,280686,/	t,t,t,t	<img class = center src='/static/experiments/beast_fmri_test/images/D.png'></img>	71,89	2750.0	test	<img class = center src='/static/experiments/beast_fmri_test/images/redD.png'></img>	go	2250.0	2.0	29.0	go	non-target	D	71,Index Finger	89,Middle Finger	550.0	500.0	2250.0	2250.0	0.0	n/a	500.0	0.0	ITI
133991	500	n/a	-1	-1	500	0.0	fixation	poldrack-single-stim	67	281457	0.0-7.30-0.30	beast_fmri_test	278	281367,/	t	<div class = centerbox2><div class = fixation>+</div></div>	none	500.0	test	n/a	n/a	n/a	n/a	n/a	n/a	n/a	n/a	n/a	n/a	n/a	n/a	n/a	n/a	n/a	n/a	n/a	n/a	fixation
131323.97855599754	2750	n/a	813	89	2750	2666.021444	stim	stop-signal	68	284206	0.0-7.30-1.30	beast_fmri_test	278	282045,/,282725,/,283403,/,284080,/,284760,/,285440,/,286120,/,286801,/	t,t,t,t,t,t,t,t	<img class = center src='/static/experiments/beast_fmri_test/images/P.png'></img>	71,89	2750.0	test	<img class = center src='/static/experiments/beast_fmri_test/images/redP.png'></img>	go	2250.0	2.0	30.0	go	non-target	P	71,Index Finger	89,Middle Finger	550.0	500.0	2250.0	2250.0	1.0	n/a	500.0	1.0	go_stim
134073.97855599754	2666.0214440024743	n/a	813	89	2750	2666.021444	stim	stop-signal	68	284206	0.0-7.30-1.30	beast_fmri_test	278	282045,/,282725,/,283403,/,284080,/,284760,/,285440,/,286120,/,286801,/	t,t,t,t,t,t,t,t	<img class = center src='/static/experiments/beast_fmri_test/images/P.png'></img>	71,89	2750.0	test	<img class = center src='/static/experiments/beast_fmri_test/images/redP.png'></img>	go	2250.0	2.0	30.0	go	non-target	P	71,Index Finger	89,Middle Finger	550.0	500.0	2250.0	2250.0	1.0	n/a	500.0	1.0	ITI
139921	500	n/a	-1	-1	500	0.0	fixation	poldrack-single-stim	69	287387	0.0-7.31-0.31	beast_fmri_test	278	n/a	n/a	<div class = centerbox2><div class = fixation>+</div></div>	none	500.0	test	n/a	n/a	n/a	n/a	n/a	n/a	n/a	n/a	n/a	n/a	n/a	n/a	n/a	n/a	n/a	n/a	n/a	n/a	fixation
139676.56250360952	500.0	n/a	-1	-1	2750	246.43749639	stim	stop-signal	70	290139	0.0-7.31-1.31	beast_fmri_test	278	287479,/,288159,/,288839,/,289520,/,290199,/	t,t,t,t,t	<img class = center src='/static/experiments/beast_fmri_test/images/V.png'></img>	71,89	2750.0	test	<img class = center src='/static/experiments/beast_fmri_test/images/redV.png'></img>	stop	2250.0	2.0	31.0	stop	non-target	V	71,Index Finger	89,Middle Finger	550.0	500.0	2250.0	2250.0	0.0	1.0	500.0	n/a	go_stim
141926.56250360952	2250.0	n/a	-1	-1	2750	246.43749639	stim	stop-signal	70	290139	0.0-7.31-1.31	beast_fmri_test	278	287479,/,288159,/,288839,/,289520,/,290199,/	t,t,t,t,t	<img class = center src='/static/experiments/beast_fmri_test/images/V.png'></img>	71,89	2750.0	test	<img class = center src='/static/experiments/beast_fmri_test/images/redV.png'></img>	stop	2250.0	2.0	31.0	stop	non-target	V	71,Index Finger	89,Middle Finger	550.0	500.0	2250.0	2250.0	0.0	1.0	500.0	n/a	stop_stim
142426.56250360952	246.43749639046658	n/a	-1	-1	2750	246.43749639	stim	stop-signal	70	290139	0.0-7.31-1.31	beast_fmri_test	278	287479,/,288159,/,288839,/,289520,/,290199,/	t,t,t,t,t	<img class = center src='/static/experiments/beast_fmri_test/images/V.png'></img>	71,89	2750.0	test	<img class = center src='/static/experiments/beast_fmri_test/images/redV.png'></img>	stop	2250.0	2.0	31.0	stop	non-target	V	71,Index Finger	89,Middle Finger	550.0	500.0	2250.0	2250.0	0.0	1.0	500.0	n/a	ITI
143433	500	n/a	-1	-1	500	0.0	fixation	poldrack-single-stim	71	290899	0.0-7.32-0.32	beast_fmri_test	278	290880,/	t	<div class = centerbox2><div class = fixation>+</div></div>	none	500.0	test	n/a	n/a	n/a	n/a	n/a	n/a	n/a	n/a	n/a	n/a	n/a	n/a	n/a	n/a	n/a	n/a	n/a	n/a	fixation
141622.25542668026	550.0	n/a	844	89	2750	1809.74457332	stim	stop-signal	72	293648	0.0-7.32-1.32	beast_fmri_test	278	291559,/,292240,/,292919,/,293598,/,294275,/,294956,/	t,t,t,t,t,t	<img class = center src='/static/experiments/beast_fmri_test/images/V.png'></img>	71,89	2750.0	test	<img class = center src='/static/experiments/beast_fmri_test/images/redV.png'></img>	stop	2200.0	2.0	32.0	stop	non-target	V	71,Index Finger	89,Middle Finger	550.0	550.0	2250.0	2200.0	0.0	0.0	550.0	n/a	go_stim
143822.25542668026	2200.0	n/a	844	89	2750	1809.74457332	stim	stop-signal	72	293648	0.0-7.32-1.32	beast_fmri_test	278	291559,/,292240,/,292919,/,293598,/,294275,/,294956,/	t,t,t,t,t,t	<img class = center src='/static/experiments/beast_fmri_test/images/V.png'></img>	71,89	2750.0	test	<img class = center src='/static/experiments/beast_fmri_test/images/redV.png'></img>	stop	2200.0	2.0	32.0	stop	non-target	V	71,Index Finger	89,Middle Finger	550.0	550.0	2250.0	2200.0	0.0	0.0	550.0	n/a	stop_stim
144372.25542668026	1809.7445733197626	n/a	844	89	2750	1809.74457332	stim	stop-signal	72	293648	0.0-7.32-1.32	beast_fmri_test	278	291559,/,292240,/,292919,/,293598,/,294275,/,294956,/	t,t,t,t,t,t	<img class = center src='/static/experiments/beast_fmri_test/images/V.png'></img>	71,89	2750.0	test	<img class = center src='/static/experiments/beast_fmri_test/images/redV.png'></img>	stop	2200.0	2.0	32.0	stop	non-target	V	71,Index Finger	89,Middle Finger	550.0	550.0	2250.0	2200.0	0.0	0.0	550.0	n/a	ITI
148503	500	n/a	-1	-1	500	0.0	fixation	poldrack-single-stim	73	295969	0.0-7.33-0.33	beast_fmri_test	278	295635,/	t	<div class = centerbox2><div class = fixation>+</div></div>	none	500.0	test	n/a	n/a	n/a	n/a	n/a	n/a	n/a	n/a	n/a	n/a	n/a	n/a	n/a	n/a	n/a	n/a	n/a	n/a	fixation
144803.56765062222	2750	n/a	793	89	2750	3701.43234938	stim	stop-signal	74	298721	0.0-7.33-1.33	beast_fmri_test	278	296316,/,296996,/,297675,/,298356,/,299037,/,299716,/,300397,/,301075,/,301756,/	t,t,t,t,t,t,t,t,t	<img class = center src='/static/experiments/beast_fmri_test/images/B.png'></img>	71,89	2750.0	test	<img class = center src='/static/experiments/beast_fmri_test/images/redB.png'></img>	go	2250.0	2.0	33.0	go	non-target	B	71,Index Finger	89,Middle Finger	550.0	500.0	2250.0	2250.0	1.0	n/a	500.0	1.0	go_stim
147553.56765062222	3701.4323493778052	n/a	793	89	2750	3701.43234938	stim	stop-signal	74	298721	0.0-7.33-1.33	beast_fmri_test	278	296316,/,296996,/,297675,/,298356,/,299037,/,299716,/,300397,/,301075,/,301756,/	t,t,t,t,t,t,t,t,t	<img class = center src='/static/experiments/beast_fmri_test/images/B.png'></img>	71,89	2750.0	test	<img class = center src='/static/experiments/beast_fmri_test/images/redB.png'></img>	go	2250.0	2.0	33.0	go	non-target	B	71,Index Finger	89,Middle Finger	550.0	500.0	2250.0	2250.0	1.0	n/a	500.0	1.0	ITI
155472	500	n/a	-1	-1	500	0.0	fixation	poldrack-single-stim	75	302938	0.0-7.34-0.34	beast_fmri_test	278	302437,/	t	<div class = centerbox2><div class = fixation>+</div></div>	none	500.0	test	n/a	n/a	n/a	n/a	n/a	n/a	n/a	n/a	n/a	n/a	n/a	n/a	n/a	n/a	n/a	n/a	n/a	n/a	fixation
153754.22081424936	2750	n/a	557	89	2750	1715.77918575	stim	stop-signal	76	305686	0.0-7.34-1.34	beast_fmri_test	278	303116,/,303792,/,304471,/,305152,/,305831,/,306511,/,307190,/	t,t,t,t,t,t,t	<img class = center src='/static/experiments/beast_fmri_test/images/P.png'></img>	71,89	2750.0	test	<img class = center src='/static/experiments/beast_fmri_test/images/redP.png'></img>	go	2250.0	2.0	34.0	go	non-target	P	71,Index Finger	89,Middle Finger	550.0	500.0	2250.0	2250.0	1.0	n/a	500.0	1.0	go_stim
156504.22081424936	1715.7791857506563	n/a	557	89	2750	1715.77918575	stim	stop-signal	76	305686	0.0-7.34-1.34	beast_fmri_test	278	303116,/,303792,/,304471,/,305152,/,305831,/,306511,/,307190,/	t,t,t,t,t,t,t	<img class = center src='/static/experiments/beast_fmri_test/images/P.png'></img>	71,89	2750.0	test	<img class = center src='/static/experiments/beast_fmri_test/images/redP.png'></img>	go	2250.0	2.0	34.0	go	non-target	P	71,Index Finger	89,Middle Finger	550.0	500.0	2250.0	2250.0	1.0	n/a	500.0	1.0	ITI
160446	500	n/a	-1	-1	500	0.0	fixation	poldrack-single-stim	77	307912	0.0-7.35-0.35	beast_fmri_test	278	307871,/	t	<div class = centerbox2><div class = fixation>+</div></div>	none	500.0	test	n/a	n/a	n/a	n/a	n/a	n/a	n/a	n/a	n/a	n/a	n/a	n/a	n/a	n/a	n/a	n/a	n/a	n/a	fixation
160210.04058374919	2750	n/a	810	89	2750	238.959416251	stim	stop-signal	78	310665	0.0-7.35-1.35	beast_fmri_test	278	308551,/,309231,/,309912,/,310591,/	t,t,t,t	<img class = center src='/static/experiments/beast_fmri_test/images/D.png'></img>	71,89	2750.0	test	<img class = center src='/static/experiments/beast_fmri_test/images/redD.png'></img>	go	2250.0	2.0	35.0	go	non-target	D	71,Index Finger	89,Middle Finger	550.0	500.0	2250.0	2250.0	1.0	n/a	500.0	1.0	go_stim
162960.04058374919	238.95941625080101	n/a	810	89	2750	238.959416251	stim	stop-signal	78	310665	0.0-7.35-1.35	beast_fmri_test	278	308551,/,309231,/,309912,/,310591,/	t,t,t,t	<img class = center src='/static/experiments/beast_fmri_test/images/D.png'></img>	71,89	2750.0	test	<img class = center src='/static/experiments/beast_fmri_test/images/redD.png'></img>	go	2250.0	2.0	35.0	go	non-target	D	71,Index Finger	89,Middle Finger	550.0	500.0	2250.0	2250.0	1.0	n/a	500.0	1.0	ITI
163953	500	n/a	-1	-1	500	0.0	fixation	poldrack-single-stim	79	311419	0.0-7.36-0.36	beast_fmri_test	278	311271,/	t	<div class = centerbox2><div class = fixation>+</div></div>	none	500.0	test	n/a	n/a	n/a	n/a	n/a	n/a	n/a	n/a	n/a	n/a	n/a	n/a	n/a	n/a	n/a	n/a	n/a	n/a	fixation
163270.33889335505	2750	n/a	785	89	2750	680.661106645	stim	stop-signal	80	314167	0.0-7.36-1.36	beast_fmri_test	278	311950,/,312631,/,313309,/,313986,/,314665,/	t,t,t,t,t	<img class = center src='/static/experiments/beast_fmri_test/images/T.png'></img>	71,89	2750.0	test	<img class = center src='/static/experiments/beast_fmri_test/images/redT.png'></img>	go	2250.0	2.0	36.0	go	non-target	T	71,Index Finger	89,Middle Finger	550.0	500.0	2250.0	2250.0	1.0	n/a	500.0	1.0	go_stim
166020.33889335505	680.6611066449625	n/a	785	89	2750	680.661106645	stim	stop-signal	80	314167	0.0-7.36-1.36	beast_fmri_test	278	311950,/,312631,/,313309,/,313986,/,314665,/	t,t,t,t,t	<img class = center src='/static/experiments/beast_fmri_test/images/T.png'></img>	71,89	2750.0	test	<img class = center src='/static/experiments/beast_fmri_test/images/redT.png'></img>	go	2250.0	2.0	36.0	go	non-target	T	71,Index Finger	89,Middle Finger	550.0	500.0	2250.0	2250.0	1.0	n/a	500.0	1.0	ITI
167895	500	n/a	-1	-1	500	0.0	fixation	poldrack-single-stim	81	315361	0.0-7.37-0.37	beast_fmri_test	278	315346,/	t	<div class = centerbox2><div class = fixation>+</div></div>	none	500.0	test	n/a	n/a	n/a	n/a	n/a	n/a	n/a	n/a	n/a	n/a	n/a	n/a	n/a	n/a	n/a	n/a	n/a	n/a	fixation
166570.20172486018	550.0	n/a	633	71	2750	1327.79827514	stim	stop-signal	82	318114	0.0-7.37-1.37	beast_fmri_test	278	316025,/,316705,/,317385,/,318066,/,318745,/,319425,/	t,t,t,t,t,t	<img class = center src='/static/experiments/beast_fmri_test/images/D.png'></img>	71,89	2750.0	test	<img class = center src='/static/experiments/beast_fmri_test/images/redD.png'></img>	stop	2200.0	2.0	37.0	stop	target	D	71,Index Finger	89,Middle Finger	550.0	500.0	2200.0	2250.0	0.0	0.0	550.0	n/a	go_stim
168770.20172486018	2200.0	n/a	633	71	2750	1327.79827514	stim	stop-signal	82	318114	0.0-7.37-1.37	beast_fmri_test	278	316025,/,316705,/,317385,/,318066,/,318745,/,319425,/	t,t,t,t,t,t	<img class = center src='/static/experiments/beast_fmri_test/images/D.png'></img>	71,89	2750.0	test	<img class = center src='/static/experiments/beast_fmri_test/images/redD.png'></img>	stop	2200.0	2.0	37.0	stop	target	D	71,Index Finger	89,Middle Finger	550.0	500.0	2200.0	2250.0	0.0	0.0	550.0	n/a	stop_stim
169320.20172486018	1327.7982751398115	n/a	633	71	2750	1327.79827514	stim	stop-signal	82	318114	0.0-7.37-1.37	beast_fmri_test	278	316025,/,316705,/,317385,/,318066,/,318745,/,319425,/	t,t,t,t,t,t	<img class = center src='/static/experiments/beast_fmri_test/images/D.png'></img>	71,89	2750.0	test	<img class = center src='/static/experiments/beast_fmri_test/images/redD.png'></img>	stop	2200.0	2.0	37.0	stop	target	D	71,Index Finger	89,Middle Finger	550.0	500.0	2200.0	2250.0	0.0	0.0	550.0	n/a	ITI
172487	500	n/a	-1	-1	500	0.0	fixation	poldrack-single-stim	83	319953	0.0-7.38-0.38	beast_fmri_test	278	n/a	n/a	<div class = centerbox2><div class = fixation>+</div></div>	none	500.0	test	n/a	n/a	n/a	n/a	n/a	n/a	n/a	n/a	n/a	n/a	n/a	n/a	n/a	n/a	n/a	n/a	n/a	n/a	fixation
171671.0827754382	2750	n/a	1198	71	2750	819.917224562	stim	stop-signal	84	322707	0.0-7.38-1.38	beast_fmri_test	278	320107,/,320786,/,321466,/,322147,/,322826,/,323504,/	t,t,t,t,t,t	<img class = center src='/static/experiments/beast_fmri_test/images/P.png'></img>	71,89	2750.0	test	<img class = center src='/static/experiments/beast_fmri_test/images/redP.png'></img>	go	2250.0	2.0	38.0	go	non-target	P	71,Index Finger	89,Middle Finger	500.0	500.0	2200.0	2250.0	0.0	n/a	500.0	0.0	go_stim
174421.0827754382	819.91722456180582	n/a	1198	71	2750	819.917224562	stim	stop-signal	84	322707	0.0-7.38-1.38	beast_fmri_test	278	320107,/,320786,/,321466,/,322147,/,322826,/,323504,/	t,t,t,t,t,t	<img class = center src='/static/experiments/beast_fmri_test/images/P.png'></img>	71,89	2750.0	test	<img class = center src='/static/experiments/beast_fmri_test/images/redP.png'></img>	go	2250.0	2.0	38.0	go	non-target	P	71,Index Finger	89,Middle Finger	500.0	500.0	2200.0	2250.0	0.0	n/a	500.0	0.0	ITI
176567	500	n/a	-1	-1	500	0.0	fixation	poldrack-single-stim	85	324033	0.0-7.39-0.39	beast_fmri_test	278	n/a	n/a	<div class = centerbox2><div class = fixation>+</div></div>	none	500.0	test	n/a	n/a	n/a	n/a	n/a	n/a	n/a	n/a	n/a	n/a	n/a	n/a	n/a	n/a	n/a	n/a	n/a	n/a	fixation
176277.10488584003	500.0	n/a	716	71	2750	292.89511416	stim	stop-signal	86	326786	0.0-7.39-1.39	beast_fmri_test	278	324182,/,324863,/,325543,/,326222,/,326901,/	t,t,t,t,t	<img class = center src='/static/experiments/beast_fmri_test/images/D.png'></img>	71,89	2750.0	test	<img class = center src='/static/experiments/beast_fmri_test/images/redD.png'></img>	stop	2250.0	2.0	39.0	stop	target	D	71,Index Finger	89,Middle Finger	500.0	500.0	2250.0	2250.0	0.0	0.0	500.0	n/a	go_stim
178527.10488584003	2250.0	n/a	716	71	2750	292.89511416	stim	stop-signal	86	326786	0.0-7.39-1.39	beast_fmri_test	278	324182,/,324863,/,325543,/,326222,/,326901,/	t,t,t,t,t	<img class = center src='/static/experiments/beast_fmri_test/images/D.png'></img>	71,89	2750.0	test	<img class = center src='/static/experiments/beast_fmri_test/images/redD.png'></img>	stop	2250.0	2.0	39.0	stop	target	D	71,Index Finger	89,Middle Finger	500.0	500.0	2250.0	2250.0	0.0	0.0	500.0	n/a	stop_stim
179027.10488584003	292.89511415998464	n/a	716	71	2750	292.89511416	stim	stop-signal	86	326786	0.0-7.39-1.39	beast_fmri_test	278	324182,/,324863,/,325543,/,326222,/,326901,/	t,t,t,t,t	<img class = center src='/static/experiments/beast_fmri_test/images/D.png'></img>	71,89	2750.0	test	<img class = center src='/static/experiments/beast_fmri_test/images/redD.png'></img>	stop	2250.0	2.0	39.0	stop	target	D	71,Index Finger	89,Middle Finger	500.0	500.0	2250.0	2250.0	0.0	0.0	500.0	n/a	ITI
180127	500	n/a	-1	-1	500	0.0	fixation	poldrack-single-stim	87	327593	0.0-7.40-0.40	beast_fmri_test	278	327582,/	t	<div class = centerbox2><div class = fixation>+</div></div>	none	500.0	test	n/a	n/a	n/a	n/a	n/a	n/a	n/a	n/a	n/a	n/a	n/a	n/a	n/a	n/a	n/a	n/a	n/a	n/a	fixation
179677.72092993907	500.0	n/a	-1	-1	2750	453.279070061	stim	stop-signal	88	330347	0.0-7.40-1.40	beast_fmri_test	278	328261,/,328943,/,329622,/,330303,/	t,t,t,t	<img class = center src='/static/experiments/beast_fmri_test/images/D.png'></img>	71,89	2750.0	test	<img class = center src='/static/experiments/beast_fmri_test/images/redD.png'></img>	stop	2250.0	2.0	40.0	stop	non-target	D	71,Index Finger	89,Middle Finger	450.0	500.0	2250.0	2250.0	0.0	1.0	500.0	n/a	go_stim
181927.72092993907	2250.0	n/a	-1	-1	2750	453.279070061	stim	stop-signal	88	330347	0.0-7.40-1.40	beast_fmri_test	278	328261,/,328943,/,329622,/,330303,/	t,t,t,t	<img class = center src='/static/experiments/beast_fmri_test/images/D.png'></img>	71,89	2750.0	test	<img class = center src='/static/experiments/beast_fmri_test/images/redD.png'></img>	stop	2250.0	2.0	40.0	stop	non-target	D	71,Index Finger	89,Middle Finger	450.0	500.0	2250.0	2250.0	0.0	1.0	500.0	n/a	stop_stim
182427.72092993907	453.27907006095262	n/a	-1	-1	2750	453.279070061	stim	stop-signal	88	330347	0.0-7.40-1.40	beast_fmri_test	278	328261,/,328943,/,329622,/,330303,/	t,t,t,t	<img class = center src='/static/experiments/beast_fmri_test/images/D.png'></img>	71,89	2750.0	test	<img class = center src='/static/experiments/beast_fmri_test/images/redD.png'></img>	stop	2250.0	2.0	40.0	stop	non-target	D	71,Index Finger	89,Middle Finger	450.0	500.0	2250.0	2250.0	0.0	1.0	500.0	n/a	ITI
183851	500	n/a	-1	-1	500	0.0	fixation	poldrack-single-stim	89	331317	0.0-7.41-0.41	beast_fmri_test	278	330981,/	t	<div class = centerbox2><div class = fixation>+</div></div>	none	500.0	test	n/a	n/a	n/a	n/a	n/a	n/a	n/a	n/a	n/a	n/a	n/a	n/a	n/a	n/a	n/a	n/a	n/a	n/a	fixation
183309.94169386005	2750	n/a	603	89	2750	539.05830614	stim	stop-signal	90	334065	0.0-7.41-1.41	beast_fmri_test	278	331664,/,332342,/,333022,/,333699,/,334377,/	t,t,t,t,t	<img class = center src='/static/experiments/beast_fmri_test/images/V.png'></img>	71,89	2750.0	test	<img class = center src='/static/experiments/beast_fmri_test/images/redV.png'></img>	go	2200.0	2.0	41.0	go	non-target	V	71,Index Finger	89,Middle Finger	450.0	550.0	2250.0	2200.0	1.0	n/a	550.0	1.0	go_stim
186059.94169386005	539.0583061399758	n/a	603	89	2750	539.05830614	stim	stop-signal	90	334065	0.0-7.41-1.41	beast_fmri_test	278	331664,/,332342,/,333022,/,333699,/,334377,/	t,t,t,t,t	<img class = center src='/static/experiments/beast_fmri_test/images/V.png'></img>	71,89	2750.0	test	<img class = center src='/static/experiments/beast_fmri_test/images/redV.png'></img>	go	2200.0	2.0	41.0	go	non-target	V	71,Index Finger	89,Middle Finger	450.0	550.0	2250.0	2200.0	1.0	n/a	550.0	1.0	ITI
187654	500	n/a	-1	-1	500	0.0	fixation	poldrack-single-stim	91	335120	0.0-7.42-0.42	beast_fmri_test	278	335058,/	t	<div class = centerbox2><div class = fixation>+</div></div>	none	500.0	test	n/a	n/a	n/a	n/a	n/a	n/a	n/a	n/a	n/a	n/a	n/a	n/a	n/a	n/a	n/a	n/a	n/a	n/a	fixation
187593.73139229522	550.0	n/a	791	89	2750	63.2686077048	stim	stop-signal	92	337873	0.0-7.42-1.42	beast_fmri_test	278	335736,/,336418,/,337097,/,337778,/	t,t,t,t	<img class = center src='/static/experiments/beast_fmri_test/images/P.png'></img>	71,89	2750.0	test	<img class = center src='/static/experiments/beast_fmri_test/images/redP.png'></img>	stop	2200.0	2.0	42.0	stop	non-target	P	71,Index Finger	89,Middle Finger	450.0	550.0	2250.0	2200.0	0.0	0.0	550.0	n/a	go_stim
189793.73139229522	2200.0	n/a	791	89	2750	63.2686077048	stim	stop-signal	92	337873	0.0-7.42-1.42	beast_fmri_test	278	335736,/,336418,/,337097,/,337778,/	t,t,t,t	<img class = center src='/static/experiments/beast_fmri_test/images/P.png'></img>	71,89	2750.0	test	<img class = center src='/static/experiments/beast_fmri_test/images/redP.png'></img>	stop	2200.0	2.0	42.0	stop	non-target	P	71,Index Finger	89,Middle Finger	450.0	550.0	2250.0	2200.0	0.0	0.0	550.0	n/a	stop_stim
190343.73139229522	63.268607704759752	n/a	791	89	2750	63.2686077048	stim	stop-signal	92	337873	0.0-7.42-1.42	beast_fmri_test	278	335736,/,336418,/,337097,/,337778,/	t,t,t,t	<img class = center src='/static/experiments/beast_fmri_test/images/P.png'></img>	71,89	2750.0	test	<img class = center src='/static/experiments/beast_fmri_test/images/redP.png'></img>	stop	2200.0	2.0	42.0	stop	non-target	P	71,Index Finger	89,Middle Finger	450.0	550.0	2250.0	2200.0	0.0	0.0	550.0	n/a	ITI
190986	500	n/a	-1	-1	500	0.0	fixation	poldrack-single-stim	93	338452	0.0-7.43-0.43	beast_fmri_test	278	n/a	n/a	<div class = centerbox2><div class = fixation>+</div></div>	none	500.0	test	n/a	n/a	n/a	n/a	n/a	n/a	n/a	n/a	n/a	n/a	n/a	n/a	n/a	n/a	n/a	n/a	n/a	n/a	fixation
190019.64598860347	500.0	n/a	-1	-1	2750	968.354011397	stim	stop-signal	94	341204	0.0-7.43-1.43	beast_fmri_test	278	338456,/,339137,/,339816,/,340498,/,341178,/,341857,/	t,t,t,t,t,t	<img class = center src='/static/experiments/beast_fmri_test/images/P.png'></img>	71,89	2750.0	test	<img class = center src='/static/experiments/beast_fmri_test/images/redP.png'></img>	stop	2250.0	2.0	43.0	stop	non-target	P	71,Index Finger	89,Middle Finger	450.0	500.0	2250.0	2250.0	0.0	1.0	500.0	n/a	go_stim
192269.64598860347	2250.0	n/a	-1	-1	2750	968.354011397	stim	stop-signal	94	341204	0.0-7.43-1.43	beast_fmri_test	278	338456,/,339137,/,339816,/,340498,/,341178,/,341857,/	t,t,t,t,t,t	<img class = center src='/static/experiments/beast_fmri_test/images/P.png'></img>	71,89	2750.0	test	<img class = center src='/static/experiments/beast_fmri_test/images/redP.png'></img>	stop	2250.0	2.0	43.0	stop	non-target	P	71,Index Finger	89,Middle Finger	450.0	500.0	2250.0	2250.0	0.0	1.0	500.0	n/a	stop_stim
192769.64598860347	968.35401139652129	n/a	-1	-1	2750	968.354011397	stim	stop-signal	94	341204	0.0-7.43-1.43	beast_fmri_test	278	338456,/,339137,/,339816,/,340498,/,341178,/,341857,/	t,t,t,t,t,t	<img class = center src='/static/experiments/beast_fmri_test/images/P.png'></img>	71,89	2750.0	test	<img class = center src='/static/experiments/beast_fmri_test/images/redP.png'></img>	stop	2250.0	2.0	43.0	stop	non-target	P	71,Index Finger	89,Middle Finger	450.0	500.0	2250.0	2250.0	0.0	1.0	500.0	n/a	ITI
195223	500	n/a	-1	-1	500	0.0	fixation	poldrack-single-stim	95	342689	0.0-7.44-0.44	beast_fmri_test	278	342537,/	t	<div class = centerbox2><div class = fixation>+</div></div>	none	500.0	test	n/a	n/a	n/a	n/a	n/a	n/a	n/a	n/a	n/a	n/a	n/a	n/a	n/a	n/a	n/a	n/a	n/a	n/a	fixation
193628.87377273402	2750	n/a	417	71	2750	1591.12622727	stim	stop-signal	96	345436	0.0-7.44-1.44	beast_fmri_test	278	343216,/,343892,/,344572,/,345251,/,345932,/,346613,/	t,t,t,t,t,t	<img class = center src='/static/experiments/beast_fmri_test/images/P.png'></img>	71,89	2750.0	test	<img class = center src='/static/experiments/beast_fmri_test/images/redP.png'></img>	go	2300.0	2.0	44.0	go	target	P	71,Index Finger	89,Middle Finger	450.0	550.0	2300.0	2250.0	1.0	n/a	450.0	1.0	go_stim
196378.87377273402	1591.1262272659528	n/a	417	71	2750	1591.12622727	stim	stop-signal	96	345436	0.0-7.44-1.44	beast_fmri_test	278	343216,/,343892,/,344572,/,345251,/,345932,/,346613,/	t,t,t,t,t,t	<img class = center src='/static/experiments/beast_fmri_test/images/P.png'></img>	71,89	2750.0	test	<img class = center src='/static/experiments/beast_fmri_test/images/redP.png'></img>	go	2300.0	2.0	44.0	go	target	P	71,Index Finger	89,Middle Finger	450.0	550.0	2300.0	2250.0	1.0	n/a	450.0	1.0	ITI
200079	500	n/a	-1	-1	500	0.0	fixation	poldrack-single-stim	97	347545	0.0-7.45-0.45	beast_fmri_test	278	347293,/	t	<div class = centerbox2><div class = fixation>+</div></div>	none	500.0	test	n/a	n/a	n/a	n/a	n/a	n/a	n/a	n/a	n/a	n/a	n/a	n/a	n/a	n/a	n/a	n/a	n/a	n/a	fixation
200004.09197748802	550.0	n/a	779	89	2750	77.908022512	stim	stop-signal	98	350298	0.0-7.45-1.45	beast_fmri_test	278	347973,/,348655,/,349332,/,350013,/	t,t,t,t	<img class = center src='/static/experiments/beast_fmri_test/images/T.png'></img>	71,89	2750.0	test	<img class = center src='/static/experiments/beast_fmri_test/images/redT.png'></img>	stop	2200.0	2.0	45.0	stop	non-target	T	71,Index Finger	89,Middle Finger	450.0	550.0	2300.0	2200.0	0.0	0.0	550.0	n/a	go_stim
202204.09197748802	2200.0	n/a	779	89	2750	77.908022512	stim	stop-signal	98	350298	0.0-7.45-1.45	beast_fmri_test	278	347973,/,348655,/,349332,/,350013,/	t,t,t,t	<img class = center src='/static/experiments/beast_fmri_test/images/T.png'></img>	71,89	2750.0	test	<img class = center src='/static/experiments/beast_fmri_test/images/redT.png'></img>	stop	2200.0	2.0	45.0	stop	non-target	T	71,Index Finger	89,Middle Finger	450.0	550.0	2300.0	2200.0	0.0	0.0	550.0	n/a	stop_stim
202754.09197748802	77.908022511968753	n/a	779	89	2750	77.908022512	stim	stop-signal	98	350298	0.0-7.45-1.45	beast_fmri_test	278	347973,/,348655,/,349332,/,350013,/	t,t,t,t	<img class = center src='/static/experiments/beast_fmri_test/images/T.png'></img>	71,89	2750.0	test	<img class = center src='/static/experiments/beast_fmri_test/images/redT.png'></img>	stop	2200.0	2.0	45.0	stop	non-target	T	71,Index Finger	89,Middle Finger	450.0	550.0	2300.0	2200.0	0.0	0.0	550.0	n/a	ITI
203425	500	n/a	-1	-1	500	0.0	fixation	poldrack-single-stim	99	350891	0.0-7.46-0.46	beast_fmri_test	278	350693,/	t	<div class = centerbox2><div class = fixation>+</div></div>	none	500.0	test	n/a	n/a	n/a	n/a	n/a	n/a	n/a	n/a	n/a	n/a	n/a	n/a	n/a	n/a	n/a	n/a	n/a	n/a	fixation
203204.60287183826	2750	n/a	741	71	2750	219.397128162	stim	stop-signal	100	353640	0.0-7.46-1.46	beast_fmri_test	278	351373,/,352054,/,352733,/,353410,/	t,t,t,t	<img class = center src='/static/experiments/beast_fmri_test/images/P.png'></img>	71,89	2750.0	test	<img class = center src='/static/experiments/beast_fmri_test/images/redP.png'></img>	go	2300.0	2.0	46.0	go	target	P	71,Index Finger	89,Middle Finger	450.0	500.0	2300.0	2200.0	1.0	n/a	450.0	1.0	go_stim
205954.60287183826	219.39712816175168	n/a	741	71	2750	219.397128162	stim	stop-signal	100	353640	0.0-7.46-1.46	beast_fmri_test	278	351373,/,352054,/,352733,/,353410,/	t,t,t,t	<img class = center src='/static/experiments/beast_fmri_test/images/P.png'></img>	71,89	2750.0	test	<img class = center src='/static/experiments/beast_fmri_test/images/redP.png'></img>	go	2300.0	2.0	46.0	go	target	P	71,Index Finger	89,Middle Finger	450.0	500.0	2300.0	2200.0	1.0	n/a	450.0	1.0	ITI
221404	15000	n/a	-1	-1	15000	0.0	practice-no-stop-feedback	poldrack-single-stim	101	368870	0.0-8.0	beast_fmri_test	278	354087,/,354769,/,355448,/,356129,/,356808,/,357488,/,358168,/,358849,/,359529,/,360209,/,360888,/,361569,/,362248,/,362928,/,363606,/,364283,/,364964,/,365644,/,366324,/,367003,/,367682,/,368364,/	t,t,t,t,t,t,t,t,t,t,t,t,t,t,t,t,t,t,t,t,t,t	"<div class = ""centerbox""><p class = ""block-text"">Your delay is 2 trials.</p><p class = block-text>Please wait for the scanner to start the block</p></div>"	77	15000.0	n/a	n/a	n/a	n/a	n/a	n/a	n/a	n/a	n/a	n/a	n/a	n/a	n/a	n/a	n/a	n/a	n/a	n/a	n/a	practice-no-stop-feedback
221907	500	n/a	-1	-1	500	0.0	fixation	poldrack-single-stim	102	369373	0.0-9.0-0.0	beast_fmri_test	278	369044,/	t	<div class = centerbox2><div class = fixation>+</div></div>	none	500.0	test	n/a	n/a	n/a	n/a	n/a	n/a	n/a	n/a	n/a	n/a	n/a	n/a	n/a	n/a	n/a	n/a	n/a	n/a	fixation
221562.02081138437	temp_go_duration	n/a	1032	89	2750	348.979188616	stim	stop-signal	103	372127	0.0-9.0-1.0	beast_fmri_test	278	369724,/,370404,/,371084,/,371762,/,372442,/	t,t,t,t,t	<img class = center src='/static/experiments/beast_fmri_test/images/B.png'></img>	71,89	2750.0	test	<img class = center src='/static/experiments/beast_fmri_test/images/redB.png'></img>	stop	-1.0	2.0	0.0	stop	temp-non-target	B	71,Index Finger	89,Middle Finger	450.0	500.0	2300.0	2200.0	0.0	0.0	n/a	n/a	go_stim
temp-non-target	temp_stop_duration	n/a	1032	89	2750	348.979188616	stim	stop-signal	103	372127	0.0-9.0-1.0	beast_fmri_test	278	369724,/,370404,/,371084,/,371762,/,372442,/	t,t,t,t,t	<img class = center src='/static/experiments/beast_fmri_test/images/B.png'></img>	71,89	2750.0	test	<img class = center src='/static/experiments/beast_fmri_test/images/redB.png'></img>	stop	-1.0	2.0	0.0	stop	temp-non-target	B	71,Index Finger	89,Middle Finger	450.0	500.0	2300.0	2200.0	0.0	0.0	n/a	n/a	stop_stim
224312.02081138437	348.97918861563329	n/a	1032	89	2750	348.979188616	stim	stop-signal	103	372127	0.0-9.0-1.0	beast_fmri_test	278	369724,/,370404,/,371084,/,371762,/,372442,/	t,t,t,t,t	<img class = center src='/static/experiments/beast_fmri_test/images/B.png'></img>	71,89	2750.0	test	<img class = center src='/static/experiments/beast_fmri_test/images/redB.png'></img>	stop	-1.0	2.0	0.0	stop	temp-non-target	B	71,Index Finger	89,Middle Finger	450.0	500.0	2300.0	2200.0	0.0	0.0	n/a	n/a	ITI
225522	500	n/a	-1	-1	500	0.0	fixation	poldrack-single-stim	104	372988	0.0-9.1-0.1	beast_fmri_test	278	n/a	n/a	<div class = centerbox2><div class = fixation>+</div></div>	none	500.0	test	n/a	n/a	n/a	n/a	n/a	n/a	n/a	n/a	n/a	n/a	n/a	n/a	n/a	n/a	n/a	n/a	n/a	n/a	fixation
225153.37421419792	2750	n/a	814	89	2750	366.625785802	stim	stop-signal	105	375736	0.0-9.1-1.1	beast_fmri_test	278	373123,/,373799,/,374478,/,375158,/,375839,/	t,t,t,t,t	<img class = center src='/static/experiments/beast_fmri_test/images/T.png'></img>	71,89	2750.0	test	<img class = center src='/static/experiments/beast_fmri_test/images/redT.png'></img>	go	-1.0	2.0	1.0	go	temp-non-target	T	71,Index Finger	89,Middle Finger	450.0	500.0	2300.0	2200.0	0.0	n/a	n/a	n/a	go_stim
227903.37421419792	366.62578580207537	n/a	814	89	2750	366.625785802	stim	stop-signal	105	375736	0.0-9.1-1.1	beast_fmri_test	278	373123,/,373799,/,374478,/,375158,/,375839,/	t,t,t,t,t	<img class = center src='/static/experiments/beast_fmri_test/images/T.png'></img>	71,89	2750.0	test	<img class = center src='/static/experiments/beast_fmri_test/images/redT.png'></img>	go	-1.0	2.0	1.0	go	temp-non-target	T	71,Index Finger	89,Middle Finger	450.0	500.0	2300.0	2200.0	0.0	n/a	n/a	n/a	ITI
229154	500	n/a	-1	-1	500	0.0	fixation	poldrack-single-stim	106	376620	0.0-9.2-0.2	beast_fmri_test	278	376518,/	t	<div class = centerbox2><div class = fixation>+</div></div>	none	500.0	test	n/a	n/a	n/a	n/a	n/a	n/a	n/a	n/a	n/a	n/a	n/a	n/a	n/a	n/a	n/a	n/a	n/a	n/a	fixation
226935.01514865458	500.0	n/a	565	89	2750	2221.98485135	stim	stop-signal	107	379373	0.0-9.2-1.2	beast_fmri_test	278	377198,/,377877,/,378558,/,379240,/,379920,/,380599,/,381279,/	t,t,t,t,t,t,t	<img class = center src='/static/experiments/beast_fmri_test/images/P.png'></img>	71,89	2750.0	test	<img class = center src='/static/experiments/beast_fmri_test/images/redP.png'></img>	stop	2250.0	2.0	2.0	stop	non-target	P	71,Index Finger	89,Middle Finger	450.0	500.0	2300.0	2250.0	0.0	0.0	500.0	n/a	go_stim
229185.01514865458	2250.0	n/a	565	89	2750	2221.98485135	stim	stop-signal	107	379373	0.0-9.2-1.2	beast_fmri_test	278	377198,/,377877,/,378558,/,379240,/,379920,/,380599,/,381279,/	t,t,t,t,t,t,t	<img class = center src='/static/experiments/beast_fmri_test/images/P.png'></img>	71,89	2750.0	test	<img class = center src='/static/experiments/beast_fmri_test/images/redP.png'></img>	stop	2250.0	2.0	2.0	stop	non-target	P	71,Index Finger	89,Middle Finger	450.0	500.0	2300.0	2250.0	0.0	0.0	500.0	n/a	stop_stim
229685.01514865458	2221.9848513454281	n/a	565	89	2750	2221.98485135	stim	stop-signal	107	379373	0.0-9.2-1.2	beast_fmri_test	278	377198,/,377877,/,378558,/,379240,/,379920,/,380599,/,381279,/	t,t,t,t,t,t,t	<img class = center src='/static/experiments/beast_fmri_test/images/P.png'></img>	71,89	2750.0	test	<img class = center src='/static/experiments/beast_fmri_test/images/redP.png'></img>	stop	2250.0	2.0	2.0	stop	non-target	P	71,Index Finger	89,Middle Finger	450.0	500.0	2300.0	2250.0	0.0	0.0	500.0	n/a	ITI
234645	500	n/a	-1	-1	500	0.0	fixation	poldrack-single-stim	108	382111	0.0-9.3-0.3	beast_fmri_test	278	381958,/	t	<div class = centerbox2><div class = fixation>+</div></div>	none	500.0	test	n/a	n/a	n/a	n/a	n/a	n/a	n/a	n/a	n/a	n/a	n/a	n/a	n/a	n/a	n/a	n/a	n/a	n/a	fixation
233706.24952905742	450.0	n/a	-1	-1	2750	936.750470943	stim	stop-signal	109	384859	0.0-9.3-1.3	beast_fmri_test	278	382639,/,383318,/,383994,/,384674,/,385353,/	t,t,t,t,t	<img class = center src='/static/experiments/beast_fmri_test/images/T.png'></img>	71,89	2750.0	test	<img class = center src='/static/experiments/beast_fmri_test/images/redT.png'></img>	stop	2300.0	2.0	3.0	stop	target	T	71,Index Finger	89,Middle Finger	450.0	450.0	2300.0	2250.0	0.0	1.0	450.0	n/a	go_stim
236006.24952905742	2300.0	n/a	-1	-1	2750	936.750470943	stim	stop-signal	109	384859	0.0-9.3-1.3	beast_fmri_test	278	382639,/,383318,/,383994,/,384674,/,385353,/	t,t,t,t,t	<img class = center src='/static/experiments/beast_fmri_test/images/T.png'></img>	71,89	2750.0	test	<img class = center src='/static/experiments/beast_fmri_test/images/redT.png'></img>	stop	2300.0	2.0	3.0	stop	target	T	71,Index Finger	89,Middle Finger	450.0	450.0	2300.0	2250.0	0.0	1.0	450.0	n/a	stop_stim
236456.24952905742	936.7504709425591	n/a	-1	-1	2750	936.750470943	stim	stop-signal	109	384859	0.0-9.3-1.3	beast_fmri_test	278	382639,/,383318,/,383994,/,384674,/,385353,/	t,t,t,t,t	<img class = center src='/static/experiments/beast_fmri_test/images/T.png'></img>	71,89	2750.0	test	<img class = center src='/static/experiments/beast_fmri_test/images/redT.png'></img>	stop	2300.0	2.0	3.0	stop	target	T	71,Index Finger	89,Middle Finger	450.0	450.0	2300.0	2250.0	0.0	1.0	450.0	n/a	ITI
238847	500	n/a	-1	-1	500	0.0	fixation	poldrack-single-stim	110	386313	0.0-9.4-0.4	beast_fmri_test	278	386033,/	t	<div class = centerbox2><div class = fixation>+</div></div>	none	500.0	test	n/a	n/a	n/a	n/a	n/a	n/a	n/a	n/a	n/a	n/a	n/a	n/a	n/a	n/a	n/a	n/a	n/a	n/a	fixation
238668.51726512541	2750	n/a	935	71	2750	182.482734875	stim	stop-signal	111	389067	0.0-9.4-1.4	beast_fmri_test	278	386715,/,387393,/,388075,/,388755,/	t,t,t,t	<img class = center src='/static/experiments/beast_fmri_test/images/P.png'></img>	71,89	2750.0	test	<img class = center src='/static/experiments/beast_fmri_test/images/redP.png'></img>	go	2250.0	2.0	4.0	go	target	P	71,Index Finger	89,Middle Finger	500.0	450.0	2250.0	2250.0	1.0	n/a	500.0	1.0	go_stim
241418.51726512541	182.48273487458408	n/a	935	71	2750	182.482734875	stim	stop-signal	111	389067	0.0-9.4-1.4	beast_fmri_test	278	386715,/,387393,/,388075,/,388755,/	t,t,t,t	<img class = center src='/static/experiments/beast_fmri_test/images/P.png'></img>	71,89	2750.0	test	<img class = center src='/static/experiments/beast_fmri_test/images/redP.png'></img>	go	2250.0	2.0	4.0	go	target	P	71,Index Finger	89,Middle Finger	500.0	450.0	2250.0	2250.0	1.0	n/a	500.0	1.0	ITI
242303	500	n/a	-1	-1	500	0.0	fixation	poldrack-single-stim	112	389769	0.0-9.5-0.5	beast_fmri_test	278	389435,/	t	<div class = centerbox2><div class = fixation>+</div></div>	none	500.0	test	n/a	n/a	n/a	n/a	n/a	n/a	n/a	n/a	n/a	n/a	n/a	n/a	n/a	n/a	n/a	n/a	n/a	n/a	fixation
241412.06700850738	2750	n/a	801	89	2750	894.932991493	stim	stop-signal	113	392523	0.0-9.5-1.5	beast_fmri_test	278	390114,/,390794,/,391475,/,392154,/,392834,/	t,t,t,t,t	<img class = center src='/static/experiments/beast_fmri_test/images/V.png'></img>	71,89	2750.0	test	<img class = center src='/static/experiments/beast_fmri_test/images/redV.png'></img>	go	2300.0	2.0	5.0	go	non-target	V	71,Index Finger	89,Middle Finger	500.0	450.0	2250.0	2300.0	1.0	n/a	450.0	1.0	go_stim
244162.06700850738	894.93299149262054	n/a	801	89	2750	894.932991493	stim	stop-signal	113	392523	0.0-9.5-1.5	beast_fmri_test	278	390114,/,390794,/,391475,/,392154,/,392834,/	t,t,t,t,t	<img class = center src='/static/experiments/beast_fmri_test/images/V.png'></img>	71,89	2750.0	test	<img class = center src='/static/experiments/beast_fmri_test/images/redV.png'></img>	go	2300.0	2.0	5.0	go	non-target	V	71,Index Finger	89,Middle Finger	500.0	450.0	2250.0	2300.0	1.0	n/a	450.0	1.0	ITI
246463	500	n/a	-1	-1	500	0.0	fixation	poldrack-single-stim	114	393929	0.0-9.6-0.6	beast_fmri_test	278	393511,/	t	<div class = centerbox2><div class = fixation>+</div></div>	none	500.0	test	n/a	n/a	n/a	n/a	n/a	n/a	n/a	n/a	n/a	n/a	n/a	n/a	n/a	n/a	n/a	n/a	n/a	n/a	fixation
246135.22432548454	450.0	n/a	-1	-1	2750	329.775674515	stim	stop-signal	115	396681	0.0-9.6-1.6	beast_fmri_test	278	394189,/,394869,/,395548,/,396230,/,396910,/	t,t,t,t,t	<img class = center src='/static/experiments/beast_fmri_test/images/V.png'></img>	71,89	2750.0	test	<img class = center src='/static/experiments/beast_fmri_test/images/redV.png'></img>	stop	2300.0	2.0	6.0	stop	non-target	V	71,Index Finger	89,Middle Finger	500.0	450.0	2250.0	2300.0	0.0	1.0	450.0	n/a	go_stim
248435.22432548454	2300.0	n/a	-1	-1	2750	329.775674515	stim	stop-signal	115	396681	0.0-9.6-1.6	beast_fmri_test	278	394189,/,394869,/,395548,/,396230,/,396910,/	t,t,t,t,t	<img class = center src='/static/experiments/beast_fmri_test/images/V.png'></img>	71,89	2750.0	test	<img class = center src='/static/experiments/beast_fmri_test/images/redV.png'></img>	stop	2300.0	2.0	6.0	stop	non-target	V	71,Index Finger	89,Middle Finger	500.0	450.0	2250.0	2300.0	0.0	1.0	450.0	n/a	stop_stim
248885.22432548454	329.77567451546679	n/a	-1	-1	2750	329.775674515	stim	stop-signal	115	396681	0.0-9.6-1.6	beast_fmri_test	278	394189,/,394869,/,395548,/,396230,/,396910,/	t,t,t,t,t	<img class = center src='/static/experiments/beast_fmri_test/images/V.png'></img>	71,89	2750.0	test	<img class = center src='/static/experiments/beast_fmri_test/images/redV.png'></img>	stop	2300.0	2.0	6.0	stop	non-target	V	71,Index Finger	89,Middle Finger	500.0	450.0	2250.0	2300.0	0.0	1.0	450.0	n/a	ITI
250065	500	n/a	-1	-1	500	0.0	fixation	poldrack-single-stim	116	397531	0.0-9.7-0.7	beast_fmri_test	278	n/a	n/a	<div class = centerbox2><div class = fixation>+</div></div>	none	500.0	test	n/a	n/a	n/a	n/a	n/a	n/a	n/a	n/a	n/a	n/a	n/a	n/a	n/a	n/a	n/a	n/a	n/a	n/a	fixation
250050.00542209181	2750	n/a	582	89	2750	16.9945779082	stim	stop-signal	117	400283	0.0-9.7-1.7	beast_fmri_test	278	397589,/,398269,/,398949,/,399629,/	t,t,t,t	<img class = center src='/static/experiments/beast_fmri_test/images/D.png'></img>	71,89	2750.0	test	<img class = center src='/static/experiments/beast_fmri_test/images/redD.png'></img>	go	2250.0	2.0	7.0	go	non-target	D	71,Index Finger	89,Middle Finger	500.0	500.0	2250.0	2250.0	1.0	n/a	500.0	1.0	go_stim
252800.00542209181	16.994577908192621	n/a	582	89	2750	16.9945779082	stim	stop-signal	117	400283	0.0-9.7-1.7	beast_fmri_test	278	397589,/,398269,/,398949,/,399629,/	t,t,t,t	<img class = center src='/static/experiments/beast_fmri_test/images/D.png'></img>	71,89	2750.0	test	<img class = center src='/static/experiments/beast_fmri_test/images/redD.png'></img>	go	2250.0	2.0	7.0	go	non-target	D	71,Index Finger	89,Middle Finger	500.0	500.0	2250.0	2250.0	1.0	n/a	500.0	1.0	ITI
253360	500	n/a	-1	-1	500	0.0	fixation	poldrack-single-stim	118	400826	0.0-9.8-0.8	beast_fmri_test	278	400324,/	t	<div class = centerbox2><div class = fixation>+</div></div>	none	500.0	test	n/a	n/a	n/a	n/a	n/a	n/a	n/a	n/a	n/a	n/a	n/a	n/a	n/a	n/a	n/a	n/a	n/a	n/a	fixation
252755.19533240091	2750	n/a	933	89	2750	605.804667599	stim	stop-signal	119	403577	0.0-9.8-1.8	beast_fmri_test	278	400988,/,401669,/,402349,/,403028,/,403710,/	t,t,t,t,t	<img class = center src='/static/experiments/beast_fmri_test/images/D.png'></img>	71,89	2750.0	test	<img class = center src='/static/experiments/beast_fmri_test/images/redD.png'></img>	go	2250.0	2.0	8.0	go	non-target	D	71,Index Finger	89,Middle Finger	500.0	500.0	2250.0	2250.0	1.0	n/a	500.0	1.0	go_stim
255505.19533240091	605.80466759910553	n/a	933	89	2750	605.804667599	stim	stop-signal	119	403577	0.0-9.8-1.8	beast_fmri_test	278	400988,/,401669,/,402349,/,403028,/,403710,/	t,t,t,t,t	<img class = center src='/static/experiments/beast_fmri_test/images/D.png'></img>	71,89	2750.0	test	<img class = center src='/static/experiments/beast_fmri_test/images/redD.png'></img>	go	2250.0	2.0	8.0	go	non-target	D	71,Index Finger	89,Middle Finger	500.0	500.0	2250.0	2250.0	1.0	n/a	500.0	1.0	ITI
257233	500	n/a	-1	-1	500	0.0	fixation	poldrack-single-stim	120	404699	0.0-9.9-0.9	beast_fmri_test	278	404385,/	t	<div class = centerbox2><div class = fixation>+</div></div>	none	500.0	test	n/a	n/a	n/a	n/a	n/a	n/a	n/a	n/a	n/a	n/a	n/a	n/a	n/a	n/a	n/a	n/a	n/a	n/a	fixation
256204.10905606137	2750	n/a	741	89	2750	1032.89094394	stim	stop-signal	121	407453	0.0-9.9-1.9	beast_fmri_test	278	405064,/,405744,/,406423,/,407105,/,407785,/,408465,/	t,t,t,t,t,t	<img class = center src='/static/experiments/beast_fmri_test/images/V.png'></img>	71,89	2750.0	test	<img class = center src='/static/experiments/beast_fmri_test/images/redV.png'></img>	go	2250.0	2.0	9.0	go	non-target	V	71,Index Finger	89,Middle Finger	500.0	500.0	2250.0	2250.0	1.0	n/a	500.0	1.0	go_stim
258954.10905606137	1032.8909439386568	n/a	741	89	2750	1032.89094394	stim	stop-signal	121	407453	0.0-9.9-1.9	beast_fmri_test	278	405064,/,405744,/,406423,/,407105,/,407785,/,408465,/	t,t,t,t,t,t	<img class = center src='/static/experiments/beast_fmri_test/images/V.png'></img>	71,89	2750.0	test	<img class = center src='/static/experiments/beast_fmri_test/images/redV.png'></img>	go	2250.0	2.0	9.0	go	non-target	V	71,Index Finger	89,Middle Finger	500.0	500.0	2250.0	2250.0	1.0	n/a	500.0	1.0	ITI
261536	500	n/a	-1	-1	500	0.0	fixation	poldrack-single-stim	122	409002	0.0-9.10-0.10	beast_fmri_test	278	n/a	n/a	<div class = centerbox2><div class = fixation>+</div></div>	none	500.0	test	n/a	n/a	n/a	n/a	n/a	n/a	n/a	n/a	n/a	n/a	n/a	n/a	n/a	n/a	n/a	n/a	n/a	n/a	fixation
261509.87583790737	500.0	n/a	716	89	2750	28.1241620926	stim	stop-signal	123	411754	0.0-9.10-1.10	beast_fmri_test	278	409145,/,409825,/,410505,/,411186,/	t,t,t,t	<img class = center src='/static/experiments/beast_fmri_test/images/T.png'></img>	71,89	2750.0	test	<img class = center src='/static/experiments/beast_fmri_test/images/redT.png'></img>	stop	2250.0	2.0	10.0	stop	non-target	T	71,Index Finger	89,Middle Finger	500.0	500.0	2250.0	2250.0	0.0	0.0	500.0	n/a	go_stim
263759.87583790737	2250.0	n/a	716	89	2750	28.1241620926	stim	stop-signal	123	411754	0.0-9.10-1.10	beast_fmri_test	278	409145,/,409825,/,410505,/,411186,/	t,t,t,t	<img class = center src='/static/experiments/beast_fmri_test/images/T.png'></img>	71,89	2750.0	test	<img class = center src='/static/experiments/beast_fmri_test/images/redT.png'></img>	stop	2250.0	2.0	10.0	stop	non-target	T	71,Index Finger	89,Middle Finger	500.0	500.0	2250.0	2250.0	0.0	0.0	500.0	n/a	stop_stim
264259.87583790737	28.124162092624623	n/a	716	89	2750	28.1241620926	stim	stop-signal	123	411754	0.0-9.10-1.10	beast_fmri_test	278	409145,/,409825,/,410505,/,411186,/	t,t,t,t	<img class = center src='/static/experiments/beast_fmri_test/images/T.png'></img>	71,89	2750.0	test	<img class = center src='/static/experiments/beast_fmri_test/images/redT.png'></img>	stop	2250.0	2.0	10.0	stop	non-target	T	71,Index Finger	89,Middle Finger	500.0	500.0	2250.0	2250.0	0.0	0.0	500.0	n/a	ITI
264833	500	n/a	-1	-1	500	0.0	fixation	poldrack-single-stim	124	412299	0.0-9.11-0.11	beast_fmri_test	278	411865,/	t	<div class = centerbox2><div class = fixation>+</div></div>	none	500.0	test	n/a	n/a	n/a	n/a	n/a	n/a	n/a	n/a	n/a	n/a	n/a	n/a	n/a	n/a	n/a	n/a	n/a	n/a	fixation
262880.62395612354	2750	n/a	797	89	2750	1951.37604388	stim	stop-signal	125	415048	0.0-9.11-1.11	beast_fmri_test	278	412546,/,413223,/,413900,/,414580,/,415259,/,415941,/,416620,/	t,t,t,t,t,t,t	<img class = center src='/static/experiments/beast_fmri_test/images/P.png'></img>	71,89	2750.0	test	<img class = center src='/static/experiments/beast_fmri_test/images/redP.png'></img>	go	2300.0	2.0	11.0	go	non-target	P	71,Index Finger	89,Middle Finger	500.0	450.0	2250.0	2300.0	1.0	n/a	450.0	1.0	go_stim
265630.62395612354	1951.3760438764773	n/a	797	89	2750	1951.37604388	stim	stop-signal	125	415048	0.0-9.11-1.11	beast_fmri_test	278	412546,/,413223,/,413900,/,414580,/,415259,/,415941,/,416620,/	t,t,t,t,t,t,t	<img class = center src='/static/experiments/beast_fmri_test/images/P.png'></img>	71,89	2750.0	test	<img class = center src='/static/experiments/beast_fmri_test/images/redP.png'></img>	go	2300.0	2.0	11.0	go	non-target	P	71,Index Finger	89,Middle Finger	500.0	450.0	2250.0	2300.0	1.0	n/a	450.0	1.0	ITI
270051	500	n/a	-1	-1	500	0.0	fixation	poldrack-single-stim	126	417517	0.0-9.12-0.12	beast_fmri_test	278	417301,/	t	<div class = centerbox2><div class = fixation>+</div></div>	none	500.0	test	n/a	n/a	n/a	n/a	n/a	n/a	n/a	n/a	n/a	n/a	n/a	n/a	n/a	n/a	n/a	n/a	n/a	n/a	fixation
269785.21293567197	2750	n/a	629	89	2750	269.787064328	stim	stop-signal	127	420271	0.0-9.12-1.12	beast_fmri_test	278	417981,/,418659,/,419339,/,420021,/	t,t,t,t	<img class = center src='/static/experiments/beast_fmri_test/images/P.png'></img>	71,89	2750.0	test	<img class = center src='/static/experiments/beast_fmri_test/images/redP.png'></img>	go	2300.0	2.0	12.0	go	non-target	P	71,Index Finger	89,Middle Finger	500.0	450.0	2250.0	2300.0	1.0	n/a	450.0	1.0	go_stim
272535.21293567197	269.78706432802187	n/a	629	89	2750	269.787064328	stim	stop-signal	127	420271	0.0-9.12-1.12	beast_fmri_test	278	417981,/,418659,/,419339,/,420021,/	t,t,t,t	<img class = center src='/static/experiments/beast_fmri_test/images/P.png'></img>	71,89	2750.0	test	<img class = center src='/static/experiments/beast_fmri_test/images/redP.png'></img>	go	2300.0	2.0	12.0	go	non-target	P	71,Index Finger	89,Middle Finger	500.0	450.0	2250.0	2300.0	1.0	n/a	450.0	1.0	ITI
273592	500	n/a	-1	-1	500	0.0	fixation	poldrack-single-stim	128	421058	0.0-9.13-0.13	beast_fmri_test	278	420700,/	t	<div class = centerbox2><div class = fixation>+</div></div>	none	500.0	test	n/a	n/a	n/a	n/a	n/a	n/a	n/a	n/a	n/a	n/a	n/a	n/a	n/a	n/a	n/a	n/a	n/a	n/a	fixation
273322.04193764692	2750	n/a	635	71	2750	267.958062353	stim	stop-signal	129	423806	0.0-9.13-1.13	beast_fmri_test	278	421381,/,422061,/,422740,/,423418,/	t,t,t,t	<img class = center src='/static/experiments/beast_fmri_test/images/P.png'></img>	71,89	2750.0	test	<img class = center src='/static/experiments/beast_fmri_test/images/redP.png'></img>	go	2250.0	2.0	13.0	go	target	P	71,Index Finger	89,Middle Finger	500.0	450.0	2250.0	2300.0	1.0	n/a	500.0	1.0	go_stim
276072.04193764692	267.95806235309396	n/a	635	71	2750	267.958062353	stim	stop-signal	129	423806	0.0-9.13-1.13	beast_fmri_test	278	421381,/,422061,/,422740,/,423418,/	t,t,t,t	<img class = center src='/static/experiments/beast_fmri_test/images/P.png'></img>	71,89	2750.0	test	<img class = center src='/static/experiments/beast_fmri_test/images/redP.png'></img>	go	2250.0	2.0	13.0	go	target	P	71,Index Finger	89,Middle Finger	500.0	450.0	2250.0	2300.0	1.0	n/a	500.0	1.0	ITI
277123	500	n/a	-1	-1	500	0.0	fixation	poldrack-single-stim	130	424589	0.0-9.14-0.14	beast_fmri_test	278	424097,/	t	<div class = centerbox2><div class = fixation>+</div></div>	none	500.0	test	n/a	n/a	n/a	n/a	n/a	n/a	n/a	n/a	n/a	n/a	n/a	n/a	n/a	n/a	n/a	n/a	n/a	n/a	fixation
274102.64123742923	500.0	n/a	678	71	2750	3024.35876257	stim	stop-signal	131	427343	0.0-9.14-1.14	beast_fmri_test	278	424776,/,425456,/,426136,/,426815,/,427496,/,428174,/,428855,/,429535,/,430215,/	t,t,t,t,t,t,t,t,t	<img class = center src='/static/experiments/beast_fmri_test/images/P.png'></img>	71,89	2750.0	test	<img class = center src='/static/experiments/beast_fmri_test/images/redP.png'></img>	stop	2250.0	2.0	14.0	stop	target	P	71,Index Finger	89,Middle Finger	500.0	450.0	2250.0	2300.0	0.0	0.0	500.0	n/a	go_stim
276352.64123742923	2250.0	n/a	678	71	2750	3024.35876257	stim	stop-signal	131	427343	0.0-9.14-1.14	beast_fmri_test	278	424776,/,425456,/,426136,/,426815,/,427496,/,428174,/,428855,/,429535,/,430215,/	t,t,t,t,t,t,t,t,t	<img class = center src='/static/experiments/beast_fmri_test/images/P.png'></img>	71,89	2750.0	test	<img class = center src='/static/experiments/beast_fmri_test/images/redP.png'></img>	stop	2250.0	2.0	14.0	stop	target	P	71,Index Finger	89,Middle Finger	500.0	450.0	2250.0	2300.0	0.0	0.0	500.0	n/a	stop_stim
276852.64123742923	3024.3587625707878	n/a	678	71	2750	3024.35876257	stim	stop-signal	131	427343	0.0-9.14-1.14	beast_fmri_test	278	424776,/,425456,/,426136,/,426815,/,427496,/,428174,/,428855,/,429535,/,430215,/	t,t,t,t,t,t,t,t,t	<img class = center src='/static/experiments/beast_fmri_test/images/P.png'></img>	71,89	2750.0	test	<img class = center src='/static/experiments/beast_fmri_test/images/redP.png'></img>	stop	2250.0	2.0	14.0	stop	target	P	71,Index Finger	89,Middle Finger	500.0	450.0	2250.0	2300.0	0.0	0.0	500.0	n/a	ITI
283420	500	n/a	-1	-1	500	0.0	fixation	poldrack-single-stim	132	430886	0.0-9.15-0.15	beast_fmri_test	278	n/a	n/a	<div class = centerbox2><div class = fixation>+</div></div>	none	500.0	test	n/a	n/a	n/a	n/a	n/a	n/a	n/a	n/a	n/a	n/a	n/a	n/a	n/a	n/a	n/a	n/a	n/a	n/a	fixation
283169.26216699579	2750	n/a	580	89	2750	249.737833004	stim	stop-signal	133	433635	0.0-9.15-1.15	beast_fmri_test	278	430895,/,431576,/,432256,/,432934,/,433612,/	t,t,t,t,t	<img class = center src='/static/experiments/beast_fmri_test/images/D.png'></img>	71,89	2750.0	test	<img class = center src='/static/experiments/beast_fmri_test/images/redD.png'></img>	go	2300.0	2.0	15.0	go	non-target	D	71,Index Finger	89,Middle Finger	450.0	450.0	2250.0	2300.0	1.0	n/a	450.0	1.0	go_stim
285919.26216699579	249.73783300423142	n/a	580	89	2750	249.737833004	stim	stop-signal	133	433635	0.0-9.15-1.15	beast_fmri_test	278	430895,/,431576,/,432256,/,432934,/,433612,/	t,t,t,t,t	<img class = center src='/static/experiments/beast_fmri_test/images/D.png'></img>	71,89	2750.0	test	<img class = center src='/static/experiments/beast_fmri_test/images/redD.png'></img>	go	2300.0	2.0	15.0	go	non-target	D	71,Index Finger	89,Middle Finger	450.0	450.0	2250.0	2300.0	1.0	n/a	450.0	1.0	ITI
286933	500	n/a	-1	-1	500	0.0	fixation	poldrack-single-stim	134	434399	0.0-9.16-0.16	beast_fmri_test	278	434291,/	t	<div class = centerbox2><div class = fixation>+</div></div>	none	500.0	test	n/a	n/a	n/a	n/a	n/a	n/a	n/a	n/a	n/a	n/a	n/a	n/a	n/a	n/a	n/a	n/a	n/a	n/a	fixation
285627.81286375318	450.0	n/a	-1	-1	2750	1310.18713625	stim	stop-signal	135	437154	0.0-9.16-1.16	beast_fmri_test	278	434971,/,435652,/,436331,/,437012,/,437690,/,438372,/	t,t,t,t,t,t	<img class = center src='/static/experiments/beast_fmri_test/images/P.png'></img>	71,89	2750.0	test	<img class = center src='/static/experiments/beast_fmri_test/images/redP.png'></img>	stop	2300.0	2.0	16.0	stop	target	P	71,Index Finger	89,Middle Finger	450.0	450.0	2300.0	2300.0	0.0	1.0	450.0	n/a	go_stim
287927.81286375318	2300.0	n/a	-1	-1	2750	1310.18713625	stim	stop-signal	135	437154	0.0-9.16-1.16	beast_fmri_test	278	434971,/,435652,/,436331,/,437012,/,437690,/,438372,/	t,t,t,t,t,t	<img class = center src='/static/experiments/beast_fmri_test/images/P.png'></img>	71,89	2750.0	test	<img class = center src='/static/experiments/beast_fmri_test/images/redP.png'></img>	stop	2300.0	2.0	16.0	stop	target	P	71,Index Finger	89,Middle Finger	450.0	450.0	2300.0	2300.0	0.0	1.0	450.0	n/a	stop_stim
288377.81286375318	1310.1871362468421	n/a	-1	-1	2750	1310.18713625	stim	stop-signal	135	437154	0.0-9.16-1.16	beast_fmri_test	278	434971,/,435652,/,436331,/,437012,/,437690,/,438372,/	t,t,t,t,t,t	<img class = center src='/static/experiments/beast_fmri_test/images/P.png'></img>	71,89	2750.0	test	<img class = center src='/static/experiments/beast_fmri_test/images/redP.png'></img>	stop	2300.0	2.0	16.0	stop	target	P	71,Index Finger	89,Middle Finger	450.0	450.0	2300.0	2300.0	0.0	1.0	450.0	n/a	ITI
291516	500	n/a	-1	-1	500	0.0	fixation	poldrack-single-stim	136	438982	0.0-9.17-0.17	beast_fmri_test	278	n/a	n/a	<div class = centerbox2><div class = fixation>+</div></div>	none	500.0	test	n/a	n/a	n/a	n/a	n/a	n/a	n/a	n/a	n/a	n/a	n/a	n/a	n/a	n/a	n/a	n/a	n/a	n/a	fixation
291509.43757820391	500.0	n/a	772	71	2750	10.5624217961	stim	stop-signal	137	441736	0.0-9.17-1.17	beast_fmri_test	278	439051,/,439732,/,440412,/,441092,/	t,t,t,t	<img class = center src='/static/experiments/beast_fmri_test/images/D.png'></img>	71,89	2750.0	test	<img class = center src='/static/experiments/beast_fmri_test/images/redD.png'></img>	stop	2250.0	2.0	17.0	stop	target	D	71,Index Finger	89,Middle Finger	500.0	450.0	2250.0	2300.0	0.0	0.0	500.0	n/a	go_stim
293759.43757820391	2250.0	n/a	772	71	2750	10.5624217961	stim	stop-signal	137	441736	0.0-9.17-1.17	beast_fmri_test	278	439051,/,439732,/,440412,/,441092,/	t,t,t,t	<img class = center src='/static/experiments/beast_fmri_test/images/D.png'></img>	71,89	2750.0	test	<img class = center src='/static/experiments/beast_fmri_test/images/redD.png'></img>	stop	2250.0	2.0	17.0	stop	target	D	71,Index Finger	89,Middle Finger	500.0	450.0	2250.0	2300.0	0.0	0.0	500.0	n/a	stop_stim
294259.43757820391	10.562421796094727	n/a	772	71	2750	10.5624217961	stim	stop-signal	137	441736	0.0-9.17-1.17	beast_fmri_test	278	439051,/,439732,/,440412,/,441092,/	t,t,t,t	<img class = center src='/static/experiments/beast_fmri_test/images/D.png'></img>	71,89	2750.0	test	<img class = center src='/static/experiments/beast_fmri_test/images/redD.png'></img>	stop	2250.0	2.0	17.0	stop	target	D	71,Index Finger	89,Middle Finger	500.0	450.0	2250.0	2300.0	0.0	0.0	500.0	n/a	ITI
294803	500	n/a	-1	-1	500	0.0	fixation	poldrack-single-stim	138	442269	0.0-9.18-0.18	beast_fmri_test	278	441771,/	t	<div class = centerbox2><div class = fixation>+</div></div>	none	500.0	test	n/a	n/a	n/a	n/a	n/a	n/a	n/a	n/a	n/a	n/a	n/a	n/a	n/a	n/a	n/a	n/a	n/a	n/a	fixation
293577.56336002174	450.0	n/a	-1	-1	2750	1224.43663998	stim	stop-signal	139	445018	0.0-9.18-1.18	beast_fmri_test	278	442450,/,443129,/,443808,/,444487,/,445165,/,445846,/	t,t,t,t,t,t	<img class = center src='/static/experiments/beast_fmri_test/images/T.png'></img>	71,89	2750.0	test	<img class = center src='/static/experiments/beast_fmri_test/images/redT.png'></img>	stop	2300.0	2.0	18.0	stop	non-target	T	71,Index Finger	89,Middle Finger	450.0	450.0	2250.0	2300.0	0.0	1.0	450.0	n/a	go_stim
295877.56336002174	2300.0	n/a	-1	-1	2750	1224.43663998	stim	stop-signal	139	445018	0.0-9.18-1.18	beast_fmri_test	278	442450,/,443129,/,443808,/,444487,/,445165,/,445846,/	t,t,t,t,t,t	<img class = center src='/static/experiments/beast_fmri_test/images/T.png'></img>	71,89	2750.0	test	<img class = center src='/static/experiments/beast_fmri_test/images/redT.png'></img>	stop	2300.0	2.0	18.0	stop	non-target	T	71,Index Finger	89,Middle Finger	450.0	450.0	2250.0	2300.0	0.0	1.0	450.0	n/a	stop_stim
296327.56336002174	1224.4366399782452	n/a	-1	-1	2750	1224.43663998	stim	stop-signal	139	445018	0.0-9.18-1.18	beast_fmri_test	278	442450,/,443129,/,443808,/,444487,/,445165,/,445846,/	t,t,t,t,t,t	<img class = center src='/static/experiments/beast_fmri_test/images/T.png'></img>	71,89	2750.0	test	<img class = center src='/static/experiments/beast_fmri_test/images/redT.png'></img>	stop	2300.0	2.0	18.0	stop	non-target	T	71,Index Finger	89,Middle Finger	450.0	450.0	2250.0	2300.0	0.0	1.0	450.0	n/a	ITI
299294	500	n/a	-1	-1	500	0.0	fixation	poldrack-single-stim	140	446760	0.0-9.19-0.19	beast_fmri_test	278	446527,/	t	<div class = centerbox2><div class = fixation>+</div></div>	none	500.0	test	n/a	n/a	n/a	n/a	n/a	n/a	n/a	n/a	n/a	n/a	n/a	n/a	n/a	n/a	n/a	n/a	n/a	n/a	fixation
296265.20248922915	2750	n/a	894	89	2750	3032.79751077	stim	stop-signal	141	449514	0.0-9.19-1.19	beast_fmri_test	278	447207,/,447887,/,448565,/,449247,/,449926,/,450607,/,451285,/,451965,/	t,t,t,t,t,t,t,t	<img class = center src='/static/experiments/beast_fmri_test/images/T.png'></img>	71,89	2750.0	test	<img class = center src='/static/experiments/beast_fmri_test/images/redT.png'></img>	go	2250.0	2.0	19.0	go	non-target	T	71,Index Finger	89,Middle Finger	450.0	500.0	2250.0	2250.0	1.0	n/a	500.0	1.0	go_stim
299015.20248922915	3032.7975107708771	n/a	894	89	2750	3032.79751077	stim	stop-signal	141	449514	0.0-9.19-1.19	beast_fmri_test	278	447207,/,447887,/,448565,/,449247,/,449926,/,450607,/,451285,/,451965,/	t,t,t,t,t,t,t,t	<img class = center src='/static/experiments/beast_fmri_test/images/T.png'></img>	71,89	2750.0	test	<img class = center src='/static/experiments/beast_fmri_test/images/redT.png'></img>	go	2250.0	2.0	19.0	go	non-target	T	71,Index Finger	89,Middle Finger	450.0	500.0	2250.0	2250.0	1.0	n/a	500.0	1.0	ITI
305600	500	n/a	-1	-1	500	0.0	fixation	poldrack-single-stim	142	453066	0.0-9.20-0.20	beast_fmri_test	278	452647,/	t	<div class = centerbox2><div class = fixation>+</div></div>	none	500.0	test	n/a	n/a	n/a	n/a	n/a	n/a	n/a	n/a	n/a	n/a	n/a	n/a	n/a	n/a	n/a	n/a	n/a	n/a	fixation
304597.48717850744	2750	n/a	608	89	2750	1000.51282149	stim	stop-signal	143	455814	0.0-9.20-1.20	beast_fmri_test	278	453325,/,454002,/,454682,/,455362,/,456041,/,456721,/	t,t,t,t,t,t	<img class = center src='/static/experiments/beast_fmri_test/images/V.png'></img>	71,89	2750.0	test	<img class = center src='/static/experiments/beast_fmri_test/images/redV.png'></img>	go	2250.0	2.0	20.0	go	non-target	V	71,Index Finger	89,Middle Finger	450.0	500.0	2250.0	2250.0	1.0	n/a	500.0	1.0	go_stim
307347.48717850744	1000.5128214925608	n/a	608	89	2750	1000.51282149	stim	stop-signal	143	455814	0.0-9.20-1.20	beast_fmri_test	278	453325,/,454002,/,454682,/,455362,/,456041,/,456721,/	t,t,t,t,t,t	<img class = center src='/static/experiments/beast_fmri_test/images/V.png'></img>	71,89	2750.0	test	<img class = center src='/static/experiments/beast_fmri_test/images/redV.png'></img>	go	2250.0	2.0	20.0	go	non-target	V	71,Index Finger	89,Middle Finger	450.0	500.0	2250.0	2250.0	1.0	n/a	500.0	1.0	ITI
309867	500	n/a	-1	-1	500	0.0	fixation	poldrack-single-stim	144	457333	0.0-9.21-0.21	beast_fmri_test	278	n/a	n/a	<div class = centerbox2><div class = fixation>+</div></div>	none	500.0	test	n/a	n/a	n/a	n/a	n/a	n/a	n/a	n/a	n/a	n/a	n/a	n/a	n/a	n/a	n/a	n/a	n/a	n/a	fixation
308004.79369424528	2750	n/a	690	89	2750	1865.20630575	stim	stop-signal	145	460086	0.0-9.21-1.21	beast_fmri_test	278	457400,/,458080,/,458761,/,459442,/,460122,/,460800,/,461483,/	t,t,t,t,t,t,t	<img class = center src='/static/experiments/beast_fmri_test/images/B.png'></img>	71,89	2750.0	test	<img class = center src='/static/experiments/beast_fmri_test/images/redB.png'></img>	go	2250.0	2.0	21.0	go	non-target	B	71,Index Finger	89,Middle Finger	450.0	500.0	2250.0	2250.0	1.0	n/a	500.0	1.0	go_stim
310754.79369424528	1865.206305754692	n/a	690	89	2750	1865.20630575	stim	stop-signal	145	460086	0.0-9.21-1.21	beast_fmri_test	278	457400,/,458080,/,458761,/,459442,/,460122,/,460800,/,461483,/	t,t,t,t,t,t,t	<img class = center src='/static/experiments/beast_fmri_test/images/B.png'></img>	71,89	2750.0	test	<img class = center src='/static/experiments/beast_fmri_test/images/redB.png'></img>	go	2250.0	2.0	21.0	go	non-target	B	71,Index Finger	89,Middle Finger	450.0	500.0	2250.0	2250.0	1.0	n/a	500.0	1.0	ITI
315002	500	n/a	-1	-1	500	0.0	fixation	poldrack-single-stim	146	462468	0.0-9.22-0.22	beast_fmri_test	278	462162,/	t	<div class = centerbox2><div class = fixation>+</div></div>	none	500.0	test	n/a	n/a	n/a	n/a	n/a	n/a	n/a	n/a	n/a	n/a	n/a	n/a	n/a	n/a	n/a	n/a	n/a	n/a	fixation
313635.49110583734	2750	n/a	677	71	2750	1365.50889416	stim	stop-signal	147	465217	0.0-9.22-1.22	beast_fmri_test	278	462842,/,463519,/,464197,/,464877,/,465557,/,466237,/	t,t,t,t,t,t	<img class = center src='/static/experiments/beast_fmri_test/images/V.png'></img>	71,89	2750.0	test	<img class = center src='/static/experiments/beast_fmri_test/images/redV.png'></img>	go	2300.0	2.0	22.0	go	target	V	71,Index Finger	89,Middle Finger	450.0	500.0	2300.0	2250.0	1.0	n/a	450.0	1.0	go_stim
