onset	duration	text	rt	key_press	block_duration	timing_post_trial	trial_id	trial_type	trial_index	time_elapsed	internal_node_id	exp_id	subject_id	trigger_times	triggers	stimulus	possible_responses	stim_duration	exp_stage	SS_stimulus	SS_trial_type	SS_duration	load	trial_num	stop_trial_type	adaptive_trial_type	stim	yes_response_key	no_response_key	SSD_target	SSD_non_target	SSTarget	SSNonTarget	go_acc	stop_acc	SS_delay	adaptive_acc	new_trial_type
test	10880	n/a	-1	-1	10880	0.0	practice-no-stop-feedback	poldrack-single-stim	198	587717	0.0-12.0	beast_fmri_test	359	576841,/,577518,/,578198,/,578878,/,579559,/,580239,/,580917,/,581597,/,582276,/,582956,/,583635,/,584316,/,584995,/,585676,/,586356,/,587034,/,587713,/	t,t,t,t,t,t,t,t,t,t,t,t,t,t,t,t,t	"<div class = ""centerbox""><p class = ""block-text"">Your delay is 1 trials.</p><p class = block-text>Please wait for the scanner to start the block</p></div>"	77	10880.0	n/a	n/a	n/a	n/a	n/a	n/a	n/a	n/a	n/a	n/a	n/a	n/a	n/a	n/a	n/a	n/a	n/a	n/a	n/a	start_functional_block
11379	500	n/a	-1	-1	500	0.0	fixation	poldrack-single-stim	199	588220	0.0-13.0-0.0	beast_fmri_test	359	n/a	n/a	<div class = centerbox2><div class = fixation>+</div></div>	none	500.0	test	n/a	n/a	n/a	n/a	n/a	n/a	n/a	n/a	n/a	n/a	n/a	n/a	n/a	n/a	n/a	n/a	n/a	n/a	fixation
9506.4738671455998	temp_go_duration	n/a	1079	71	2750	1874.52613285	stim	stop-signal	200	590972	0.0-13.0-1.0	beast_fmri_test	359	588394,/,589073,/,589754,/,590434,/,591113,/,591791,/,592471,/	t,t,t,t,t,t,t	<img class = center src='/static/experiments/beast_fmri_test/images/V.png'></img>	89,71	2750.0	test	<img class = center src='/static/experiments/beast_fmri_test/images/redV.png'></img>	stop	-1.0	1.0	0.0	stop	temp-non-target	V	89,Middle Finger	71,Index Finger	800.0	900.0	2000.0	1900.0	0.0	0.0	n/a	n/a	go_stim
temp-non-target	temp_stop_duration	n/a	1079	71	2750	1874.52613285	stim	stop-signal	200	590972	0.0-13.0-1.0	beast_fmri_test	359	588394,/,589073,/,589754,/,590434,/,591113,/,591791,/,592471,/	t,t,t,t,t,t,t	<img class = center src='/static/experiments/beast_fmri_test/images/V.png'></img>	89,71	2750.0	test	<img class = center src='/static/experiments/beast_fmri_test/images/redV.png'></img>	stop	-1.0	1.0	0.0	stop	temp-non-target	V	89,Middle Finger	71,Index Finger	800.0	900.0	2000.0	1900.0	0.0	0.0	n/a	n/a	stop_stim
12256.4738671456	1874.5261328544186	n/a	1079	71	2750	1874.52613285	stim	stop-signal	200	590972	0.0-13.0-1.0	beast_fmri_test	359	588394,/,589073,/,589754,/,590434,/,591113,/,591791,/,592471,/	t,t,t,t,t,t,t	<img class = center src='/static/experiments/beast_fmri_test/images/V.png'></img>	89,71	2750.0	test	<img class = center src='/static/experiments/beast_fmri_test/images/redV.png'></img>	stop	-1.0	1.0	0.0	stop	temp-non-target	V	89,Middle Finger	71,Index Finger	800.0	900.0	2000.0	1900.0	0.0	0.0	n/a	n/a	ITI
16530	500	n/a	-1	-1	500	0.0	fixation	poldrack-single-stim	201	593371	0.0-13.1-0.1	beast_fmri_test	359	593151,/	t	<div class = centerbox2><div class = fixation>+</div></div>	none	500.0	test	n/a	n/a	n/a	n/a	n/a	n/a	n/a	n/a	n/a	n/a	n/a	n/a	n/a	n/a	n/a	n/a	n/a	n/a	fixation
14871.568871481577	2750	n/a	747	71	2750	1659.43112852	stim	stop-signal	202	596122	0.0-13.1-1.1	beast_fmri_test	359	593831,/,594511,/,595191,/,595871,/,596549,/,597230,/	t,t,t,t,t,t	<img class = center src='/static/experiments/beast_fmri_test/images/P.png'></img>	89,71	2750.0	test	<img class = center src='/static/experiments/beast_fmri_test/images/redP.png'></img>	go	1850.0	1.0	1.0	go	non-target	P	89,Middle Finger	71,Index Finger	800.0	900.0	2000.0	1850.0	1.0	n/a	900.0	1.0	go_stim
17621.568871481577	1659.4311285184281	n/a	747	71	2750	1659.43112852	stim	stop-signal	202	596122	0.0-13.1-1.1	beast_fmri_test	359	593831,/,594511,/,595191,/,595871,/,596549,/,597230,/	t,t,t,t,t,t	<img class = center src='/static/experiments/beast_fmri_test/images/P.png'></img>	89,71	2750.0	test	<img class = center src='/static/experiments/beast_fmri_test/images/redP.png'></img>	go	1850.0	1.0	1.0	go	non-target	P	89,Middle Finger	71,Index Finger	800.0	900.0	2000.0	1850.0	1.0	n/a	900.0	1.0	ITI
21467	500	n/a	-1	-1	500	0.0	fixation	poldrack-single-stim	203	598308	0.0-13.2-0.2	beast_fmri_test	359	597908,/	t	<div class = centerbox2><div class = fixation>+</div></div>	none	500.0	test	n/a	n/a	n/a	n/a	n/a	n/a	n/a	n/a	n/a	n/a	n/a	n/a	n/a	n/a	n/a	n/a	n/a	n/a	fixation
20878.239901103312	2750	n/a	1184	89	2750	590.760098897	stim	stop-signal	204	601060	0.0-13.2-1.2	beast_fmri_test	359	598590,/,599270,/,599949,/,600629,/,601308,/	t,t,t,t,t	<img class = center src='/static/experiments/beast_fmri_test/images/V.png'></img>	89,71	2750.0	test	<img class = center src='/static/experiments/beast_fmri_test/images/redV.png'></img>	go	1850.0	1.0	2.0	go	non-target	V	89,Middle Finger	71,Index Finger	800.0	900.0	2000.0	1850.0	0.0	n/a	900.0	0.0	go_stim
23628.239901103312	590.76009889671298	n/a	1184	89	2750	590.760098897	stim	stop-signal	204	601060	0.0-13.2-1.2	beast_fmri_test	359	598590,/,599270,/,599949,/,600629,/,601308,/	t,t,t,t,t	<img class = center src='/static/experiments/beast_fmri_test/images/V.png'></img>	89,71	2750.0	test	<img class = center src='/static/experiments/beast_fmri_test/images/redV.png'></img>	go	1850.0	1.0	2.0	go	non-target	V	89,Middle Finger	71,Index Finger	800.0	900.0	2000.0	1850.0	0.0	n/a	900.0	0.0	ITI
25337	500	n/a	-1	-1	500	0.0	fixation	poldrack-single-stim	205	602178	0.0-13.3-0.3	beast_fmri_test	359	601989,/	t	<div class = centerbox2><div class = fixation>+</div></div>	none	500.0	test	n/a	n/a	n/a	n/a	n/a	n/a	n/a	n/a	n/a	n/a	n/a	n/a	n/a	n/a	n/a	n/a	n/a	n/a	fixation
25089.693020006642	2750	n/a	1035	71	2750	249.306979993	stim	stop-signal	206	604930	0.0-13.3-1.3	beast_fmri_test	359	602668,/,603348,/,604028,/,604707,/	t,t,t,t	<img class = center src='/static/experiments/beast_fmri_test/images/V.png'></img>	89,71	2750.0	test	<img class = center src='/static/experiments/beast_fmri_test/images/redV.png'></img>	go	1950.0	1.0	3.0	go	target	V	89,Middle Finger	71,Index Finger	800.0	900.0	1950.0	1850.0	0.0	n/a	800.0	0.0	go_stim
27839.693020006642	249.30697999330729	n/a	1035	71	2750	249.306979993	stim	stop-signal	206	604930	0.0-13.3-1.3	beast_fmri_test	359	602668,/,603348,/,604028,/,604707,/	t,t,t,t	<img class = center src='/static/experiments/beast_fmri_test/images/V.png'></img>	89,71	2750.0	test	<img class = center src='/static/experiments/beast_fmri_test/images/redV.png'></img>	go	1950.0	1.0	3.0	go	target	V	89,Middle Finger	71,Index Finger	800.0	900.0	1950.0	1850.0	0.0	n/a	800.0	0.0	ITI
28865	500	n/a	-1	-1	500	0.0	fixation	poldrack-single-stim	207	605706	0.0-13.4-0.4	beast_fmri_test	359	605387,/	t	<div class = centerbox2><div class = fixation>+</div></div>	none	500.0	test	n/a	n/a	n/a	n/a	n/a	n/a	n/a	n/a	n/a	n/a	n/a	n/a	n/a	n/a	n/a	n/a	n/a	n/a	fixation
28504.182357394486	900.0	n/a	895	71	2750	361.817642605	stim	stop-signal	208	608457	0.0-13.4-1.4	beast_fmri_test	359	606066,/,606745,/,607426,/,608105,/,608785,/	t,t,t,t,t	<img class = center src='/static/experiments/beast_fmri_test/images/P.png'></img>	89,71	2750.0	test	<img class = center src='/static/experiments/beast_fmri_test/images/redP.png'></img>	stop	1850.0	1.0	4.0	stop	non-target	P	89,Middle Finger	71,Index Finger	800.0	900.0	1950.0	1850.0	0.0	0.0	900.0	n/a	go_stim
30354.182357394486	1850.0	n/a	895	71	2750	361.817642605	stim	stop-signal	208	608457	0.0-13.4-1.4	beast_fmri_test	359	606066,/,606745,/,607426,/,608105,/,608785,/	t,t,t,t,t	<img class = center src='/static/experiments/beast_fmri_test/images/P.png'></img>	89,71	2750.0	test	<img class = center src='/static/experiments/beast_fmri_test/images/redP.png'></img>	stop	1850.0	1.0	4.0	stop	non-target	P	89,Middle Finger	71,Index Finger	800.0	900.0	1950.0	1850.0	0.0	0.0	900.0	n/a	stop_stim
31254.182357394486	361.81764260549699	n/a	895	71	2750	361.817642605	stim	stop-signal	208	608457	0.0-13.4-1.4	beast_fmri_test	359	606066,/,606745,/,607426,/,608105,/,608785,/	t,t,t,t,t	<img class = center src='/static/experiments/beast_fmri_test/images/P.png'></img>	89,71	2750.0	test	<img class = center src='/static/experiments/beast_fmri_test/images/redP.png'></img>	stop	1850.0	1.0	4.0	stop	non-target	P	89,Middle Finger	71,Index Finger	800.0	900.0	1950.0	1850.0	0.0	0.0	900.0	n/a	ITI
32506	500	n/a	-1	-1	500	0.0	fixation	poldrack-single-stim	209	609347	0.0-13.5-0.5	beast_fmri_test	359	n/a	n/a	<div class = centerbox2><div class = fixation>+</div></div>	none	500.0	test	n/a	n/a	n/a	n/a	n/a	n/a	n/a	n/a	n/a	n/a	n/a	n/a	n/a	n/a	n/a	n/a	n/a	n/a	fixation
32496.490507256705	2750	n/a	994	71	2750	10.5094927433	stim	stop-signal	210	612098	0.0-13.5-1.5	beast_fmri_test	359	609465,/,610144,/,610824,/,611503,/	t,t,t,t	<img class = center src='/static/experiments/beast_fmri_test/images/T.png'></img>	89,71	2750.0	test	<img class = center src='/static/experiments/beast_fmri_test/images/redT.png'></img>	go	1900.0	1.0	5.0	go	non-target	T	89,Middle Finger	71,Index Finger	800.0	850.0	1950.0	1900.0	1.0	n/a	850.0	1.0	go_stim
35246.490507256705	10.509492743336825	n/a	994	71	2750	10.5094927433	stim	stop-signal	210	612098	0.0-13.5-1.5	beast_fmri_test	359	609465,/,610144,/,610824,/,611503,/	t,t,t,t	<img class = center src='/static/experiments/beast_fmri_test/images/T.png'></img>	89,71	2750.0	test	<img class = center src='/static/experiments/beast_fmri_test/images/redT.png'></img>	go	1900.0	1.0	5.0	go	non-target	T	89,Middle Finger	71,Index Finger	800.0	850.0	1950.0	1900.0	1.0	n/a	850.0	1.0	ITI
35793	500	n/a	-1	-1	500	0.0	fixation	poldrack-single-stim	211	612634	0.0-13.6-0.6	beast_fmri_test	359	612182,/	t	<div class = centerbox2><div class = fixation>+</div></div>	none	500.0	test	n/a	n/a	n/a	n/a	n/a	n/a	n/a	n/a	n/a	n/a	n/a	n/a	n/a	n/a	n/a	n/a	n/a	n/a	fixation
34616.651532023447	800.0	n/a	-1	-1	2750	1179.34846798	stim	stop-signal	212	615387	0.0-13.6-1.6	beast_fmri_test	359	612863,/,613542,/,614223,/,614902,/,615581,/,616260,/	t,t,t,t,t,t	<img class = center src='/static/experiments/beast_fmri_test/images/T.png'></img>	89,71	2750.0	test	<img class = center src='/static/experiments/beast_fmri_test/images/redT.png'></img>	stop	1950.0	1.0	6.0	stop	target	T	89,Middle Finger	71,Index Finger	800.0	850.0	1950.0	1900.0	0.0	1.0	800.0	n/a	go_stim
36566.651532023447	1950.0	n/a	-1	-1	2750	1179.34846798	stim	stop-signal	212	615387	0.0-13.6-1.6	beast_fmri_test	359	612863,/,613542,/,614223,/,614902,/,615581,/,616260,/	t,t,t,t,t,t	<img class = center src='/static/experiments/beast_fmri_test/images/T.png'></img>	89,71	2750.0	test	<img class = center src='/static/experiments/beast_fmri_test/images/redT.png'></img>	stop	1950.0	1.0	6.0	stop	target	T	89,Middle Finger	71,Index Finger	800.0	850.0	1950.0	1900.0	0.0	1.0	800.0	n/a	stop_stim
37366.651532023447	1179.3484679765113	n/a	-1	-1	2750	1179.34846798	stim	stop-signal	212	615387	0.0-13.6-1.6	beast_fmri_test	359	612863,/,613542,/,614223,/,614902,/,615581,/,616260,/	t,t,t,t,t,t	<img class = center src='/static/experiments/beast_fmri_test/images/T.png'></img>	89,71	2750.0	test	<img class = center src='/static/experiments/beast_fmri_test/images/redT.png'></img>	stop	1950.0	1.0	6.0	stop	target	T	89,Middle Finger	71,Index Finger	800.0	850.0	1950.0	1900.0	0.0	1.0	800.0	n/a	ITI
40254	500	n/a	-1	-1	500	0.0	fixation	poldrack-single-stim	213	617095	0.0-13.7-0.7	beast_fmri_test	359	616940,/	t	<div class = centerbox2><div class = fixation>+</div></div>	none	500.0	test	n/a	n/a	n/a	n/a	n/a	n/a	n/a	n/a	n/a	n/a	n/a	n/a	n/a	n/a	n/a	n/a	n/a	n/a	fixation
38582.1435435944	2750	n/a	976	71	2750	1672.85645641	stim	stop-signal	214	619846	0.0-13.7-1.7	beast_fmri_test	359	617620,/,618301,/,618980,/,619659,/,620338,/,621019,/	t,t,t,t,t,t	<img class = center src='/static/experiments/beast_fmri_test/images/B.png'></img>	89,71	2750.0	test	<img class = center src='/static/experiments/beast_fmri_test/images/redB.png'></img>	go	1900.0	1.0	7.0	go	non-target	B	89,Middle Finger	71,Index Finger	850.0	850.0	1950.0	1900.0	1.0	n/a	850.0	1.0	go_stim
41332.1435435944	1672.8564564056235	n/a	976	71	2750	1672.85645641	stim	stop-signal	214	619846	0.0-13.7-1.7	beast_fmri_test	359	617620,/,618301,/,618980,/,619659,/,620338,/,621019,/	t,t,t,t,t,t	<img class = center src='/static/experiments/beast_fmri_test/images/B.png'></img>	89,71	2750.0	test	<img class = center src='/static/experiments/beast_fmri_test/images/redB.png'></img>	go	1900.0	1.0	7.0	go	non-target	B	89,Middle Finger	71,Index Finger	850.0	850.0	1950.0	1900.0	1.0	n/a	850.0	1.0	ITI
45204	500	n/a	-1	-1	500	0.0	fixation	poldrack-single-stim	215	622045	0.0-13.8-0.8	beast_fmri_test	359	621699,/	t	<div class = centerbox2><div class = fixation>+</div></div>	none	500.0	test	n/a	n/a	n/a	n/a	n/a	n/a	n/a	n/a	n/a	n/a	n/a	n/a	n/a	n/a	n/a	n/a	n/a	n/a	fixation
45157.986058144714	2750	n/a	908	71	2750	47.0139418553	stim	stop-signal	216	624796	0.0-13.8-1.8	beast_fmri_test	359	622379,/,623057,/,623738,/,624416,/	t,t,t,t	<img class = center src='/static/experiments/beast_fmri_test/images/V.png'></img>	89,71	2750.0	test	<img class = center src='/static/experiments/beast_fmri_test/images/redV.png'></img>	go	1900.0	1.0	8.0	go	non-target	V	89,Middle Finger	71,Index Finger	850.0	850.0	1950.0	1900.0	1.0	n/a	850.0	1.0	go_stim
47907.986058144714	47.013941855327289	n/a	908	71	2750	47.0139418553	stim	stop-signal	216	624796	0.0-13.8-1.8	beast_fmri_test	359	622379,/,623057,/,623738,/,624416,/	t,t,t,t	<img class = center src='/static/experiments/beast_fmri_test/images/V.png'></img>	89,71	2750.0	test	<img class = center src='/static/experiments/beast_fmri_test/images/redV.png'></img>	go	1900.0	1.0	8.0	go	non-target	V	89,Middle Finger	71,Index Finger	850.0	850.0	1950.0	1900.0	1.0	n/a	850.0	1.0	ITI
48532	500	n/a	-1	-1	500	0.0	fixation	poldrack-single-stim	217	625373	0.0-13.9-0.9	beast_fmri_test	359	625097,/	t	<div class = centerbox2><div class = fixation>+</div></div>	none	500.0	test	n/a	n/a	n/a	n/a	n/a	n/a	n/a	n/a	n/a	n/a	n/a	n/a	n/a	n/a	n/a	n/a	n/a	n/a	fixation
48176.258834106149	2750	n/a	1039	71	2750	356.741165894	stim	stop-signal	218	628124	0.0-13.9-1.9	beast_fmri_test	359	625777,/,626457,/,627137,/,627817,/	t,t,t,t	<img class = center src='/static/experiments/beast_fmri_test/images/T.png'></img>	89,71	2750.0	test	<img class = center src='/static/experiments/beast_fmri_test/images/redT.png'></img>	go	1900.0	1.0	9.0	go	non-target	T	89,Middle Finger	71,Index Finger	850.0	850.0	1950.0	1900.0	1.0	n/a	850.0	1.0	go_stim
50926.258834106149	356.7411658938575	n/a	1039	71	2750	356.741165894	stim	stop-signal	218	628124	0.0-13.9-1.9	beast_fmri_test	359	625777,/,626457,/,627137,/,627817,/	t,t,t,t	<img class = center src='/static/experiments/beast_fmri_test/images/T.png'></img>	89,71	2750.0	test	<img class = center src='/static/experiments/beast_fmri_test/images/redT.png'></img>	go	1900.0	1.0	9.0	go	non-target	T	89,Middle Finger	71,Index Finger	850.0	850.0	1950.0	1900.0	1.0	n/a	850.0	1.0	ITI
52169	500	n/a	-1	-1	500	0.0	fixation	poldrack-single-stim	219	629010	0.0-13.10-0.10	beast_fmri_test	359	628508,/	t	<div class = centerbox2><div class = fixation>+</div></div>	none	500.0	test	n/a	n/a	n/a	n/a	n/a	n/a	n/a	n/a	n/a	n/a	n/a	n/a	n/a	n/a	n/a	n/a	n/a	n/a	fixation
48325.772121074726	850.0	n/a	-1	-1	2750	3844.22787893	stim	stop-signal	220	631761	0.0-13.10-1.10	beast_fmri_test	359	629176,/,629856,/,630534,/,631215,/,631894,/,632574,/,633253,/,633933,/,634613,/,635294,/	t,t,t,t,t,t,t,t,t,t	<img class = center src='/static/experiments/beast_fmri_test/images/V.png'></img>	89,71	2750.0	test	<img class = center src='/static/experiments/beast_fmri_test/images/redV.png'></img>	stop	1900.0	1.0	10.0	stop	non-target	V	89,Middle Finger	71,Index Finger	850.0	850.0	1950.0	1900.0	0.0	1.0	850.0	n/a	go_stim
50225.772121074726	1900.0	n/a	-1	-1	2750	3844.22787893	stim	stop-signal	220	631761	0.0-13.10-1.10	beast_fmri_test	359	629176,/,629856,/,630534,/,631215,/,631894,/,632574,/,633253,/,633933,/,634613,/,635294,/	t,t,t,t,t,t,t,t,t,t	<img class = center src='/static/experiments/beast_fmri_test/images/V.png'></img>	89,71	2750.0	test	<img class = center src='/static/experiments/beast_fmri_test/images/redV.png'></img>	stop	1900.0	1.0	10.0	stop	non-target	V	89,Middle Finger	71,Index Finger	850.0	850.0	1950.0	1900.0	0.0	1.0	850.0	n/a	stop_stim
51075.772121074726	3844.227878925255	n/a	-1	-1	2750	3844.22787893	stim	stop-signal	220	631761	0.0-13.10-1.10	beast_fmri_test	359	629176,/,629856,/,630534,/,631215,/,631894,/,632574,/,633253,/,633933,/,634613,/,635294,/	t,t,t,t,t,t,t,t,t,t	<img class = center src='/static/experiments/beast_fmri_test/images/V.png'></img>	89,71	2750.0	test	<img class = center src='/static/experiments/beast_fmri_test/images/redV.png'></img>	stop	1900.0	1.0	10.0	stop	non-target	V	89,Middle Finger	71,Index Finger	850.0	850.0	1950.0	1900.0	0.0	1.0	850.0	n/a	ITI
59293	500	n/a	-1	-1	500	0.0	fixation	poldrack-single-stim	221	636134	0.0-13.11-0.11	beast_fmri_test	359	635972,/	t	<div class = centerbox2><div class = fixation>+</div></div>	none	500.0	test	n/a	n/a	n/a	n/a	n/a	n/a	n/a	n/a	n/a	n/a	n/a	n/a	n/a	n/a	n/a	n/a	n/a	n/a	fixation
58619.627548048738	2750	n/a	964	71	2750	675.372451951	stim	stop-signal	222	638886	0.0-13.11-1.11	beast_fmri_test	359	636653,/,637332,/,638012,/,638691,/,639371,/	t,t,t,t,t	<img class = center src='/static/experiments/beast_fmri_test/images/D.png'></img>	89,71	2750.0	test	<img class = center src='/static/experiments/beast_fmri_test/images/redD.png'></img>	go	1850.0	1.0	11.0	go	non-target	D	89,Middle Finger	71,Index Finger	850.0	900.0	1950.0	1850.0	1.0	n/a	900.0	1.0	go_stim
61369.627548048738	675.37245195122875	n/a	964	71	2750	675.372451951	stim	stop-signal	222	638886	0.0-13.11-1.11	beast_fmri_test	359	636653,/,637332,/,638012,/,638691,/,639371,/	t,t,t,t,t	<img class = center src='/static/experiments/beast_fmri_test/images/D.png'></img>	89,71	2750.0	test	<img class = center src='/static/experiments/beast_fmri_test/images/redD.png'></img>	go	1850.0	1.0	11.0	go	non-target	D	89,Middle Finger	71,Index Finger	850.0	900.0	1950.0	1850.0	1.0	n/a	900.0	1.0	ITI
63246	500	n/a	-1	-1	500	0.0	fixation	poldrack-single-stim	223	640087	0.0-13.12-0.12	beast_fmri_test	359	640050,/	t	<div class = centerbox2><div class = fixation>+</div></div>	none	500.0	test	n/a	n/a	n/a	n/a	n/a	n/a	n/a	n/a	n/a	n/a	n/a	n/a	n/a	n/a	n/a	n/a	n/a	n/a	fixation
60240.030302902451	2750	n/a	1128	71	2750	3006.9696971	stim	stop-signal	224	642838	0.0-13.12-1.12	beast_fmri_test	359	640730,/,641410,/,642089,/,642770,/,643448,/,644128,/,644807,/,645488,/	t,t,t,t,t,t,t,t	<img class = center src='/static/experiments/beast_fmri_test/images/P.png'></img>	89,71	2750.0	test	<img class = center src='/static/experiments/beast_fmri_test/images/redP.png'></img>	go	1850.0	1.0	12.0	go	non-target	P	89,Middle Finger	71,Index Finger	850.0	900.0	1950.0	1850.0	1.0	n/a	900.0	1.0	go_stim
62990.030302902451	3006.9696970974956	n/a	1128	71	2750	3006.9696971	stim	stop-signal	224	642838	0.0-13.12-1.12	beast_fmri_test	359	640730,/,641410,/,642089,/,642770,/,643448,/,644128,/,644807,/,645488,/	t,t,t,t,t,t,t,t	<img class = center src='/static/experiments/beast_fmri_test/images/P.png'></img>	89,71	2750.0	test	<img class = center src='/static/experiments/beast_fmri_test/images/redP.png'></img>	go	1850.0	1.0	12.0	go	non-target	P	89,Middle Finger	71,Index Finger	850.0	900.0	1950.0	1850.0	1.0	n/a	900.0	1.0	ITI
69533	500	n/a	-1	-1	500	0.0	fixation	poldrack-single-stim	225	646374	0.0-13.13-0.13	beast_fmri_test	359	646167,/	t	<div class = centerbox2><div class = fixation>+</div></div>	none	500.0	test	n/a	n/a	n/a	n/a	n/a	n/a	n/a	n/a	n/a	n/a	n/a	n/a	n/a	n/a	n/a	n/a	n/a	n/a	fixation
68970.267217842746	2750	n/a	976	71	2750	565.732782157	stim	stop-signal	226	649127	0.0-13.13-1.13	beast_fmri_test	359	646848,/,647525,/,648206,/,648885,/,649565,/	t,t,t,t,t	<img class = center src='/static/experiments/beast_fmri_test/images/P.png'></img>	89,71	2750.0	test	<img class = center src='/static/experiments/beast_fmri_test/images/redP.png'></img>	go	1900.0	1.0	13.0	go	target	P	89,Middle Finger	71,Index Finger	850.0	900.0	1900.0	1850.0	0.0	n/a	850.0	0.0	go_stim
71720.267217842746	565.73278215726361	n/a	976	71	2750	565.732782157	stim	stop-signal	226	649127	0.0-13.13-1.13	beast_fmri_test	359	646848,/,647525,/,648206,/,648885,/,649565,/	t,t,t,t,t	<img class = center src='/static/experiments/beast_fmri_test/images/P.png'></img>	89,71	2750.0	test	<img class = center src='/static/experiments/beast_fmri_test/images/redP.png'></img>	go	1900.0	1.0	13.0	go	target	P	89,Middle Finger	71,Index Finger	850.0	900.0	1900.0	1850.0	0.0	n/a	850.0	0.0	ITI
73377	500	n/a	-1	-1	500	0.0	fixation	poldrack-single-stim	227	650218	0.0-13.14-0.14	beast_fmri_test	359	n/a	n/a	<div class = centerbox2><div class = fixation>+</div></div>	none	500.0	test	n/a	n/a	n/a	n/a	n/a	n/a	n/a	n/a	n/a	n/a	n/a	n/a	n/a	n/a	n/a	n/a	n/a	n/a	fixation
73191.53509970766	850.0	n/a	955	89	2750	186.464900292	stim	stop-signal	228	652969	0.0-13.14-1.14	beast_fmri_test	359	650246,/,650925,/,651606,/,652285,/,652963,/	t,t,t,t,t	<img class = center src='/static/experiments/beast_fmri_test/images/P.png'></img>	89,71	2750.0	test	<img class = center src='/static/experiments/beast_fmri_test/images/redP.png'></img>	stop	1900.0	1.0	14.0	stop	target	P	89,Middle Finger	71,Index Finger	850.0	900.0	1900.0	1850.0	0.0	0.0	850.0	n/a	go_stim
75091.53509970766	1900.0	n/a	955	89	2750	186.464900292	stim	stop-signal	228	652969	0.0-13.14-1.14	beast_fmri_test	359	650246,/,650925,/,651606,/,652285,/,652963,/	t,t,t,t,t	<img class = center src='/static/experiments/beast_fmri_test/images/P.png'></img>	89,71	2750.0	test	<img class = center src='/static/experiments/beast_fmri_test/images/redP.png'></img>	stop	1900.0	1.0	14.0	stop	target	P	89,Middle Finger	71,Index Finger	850.0	900.0	1900.0	1850.0	0.0	0.0	850.0	n/a	stop_stim
75941.53509970766	186.46490029239499	n/a	955	89	2750	186.464900292	stim	stop-signal	228	652969	0.0-13.14-1.14	beast_fmri_test	359	650246,/,650925,/,651606,/,652285,/,652963,/	t,t,t,t,t	<img class = center src='/static/experiments/beast_fmri_test/images/P.png'></img>	89,71	2750.0	test	<img class = center src='/static/experiments/beast_fmri_test/images/redP.png'></img>	stop	1900.0	1.0	14.0	stop	target	P	89,Middle Finger	71,Index Finger	850.0	900.0	1900.0	1850.0	0.0	0.0	850.0	n/a	ITI
76845	500	n/a	-1	-1	500	0.0	fixation	poldrack-single-stim	229	653686	0.0-13.15-0.15	beast_fmri_test	359	653644,/	t	<div class = centerbox2><div class = fixation>+</div></div>	none	500.0	test	n/a	n/a	n/a	n/a	n/a	n/a	n/a	n/a	n/a	n/a	n/a	n/a	n/a	n/a	n/a	n/a	n/a	n/a	fixation
76727.57882419508	2750	n/a	1518	89	2750	118.421175805	stim	stop-signal	230	656437	0.0-13.15-1.15	beast_fmri_test	359	654324,/,655004,/,655683,/,656363,/	t,t,t,t	<img class = center src='/static/experiments/beast_fmri_test/images/P.png'></img>	89,71	2750.0	test	<img class = center src='/static/experiments/beast_fmri_test/images/redP.png'></img>	go	1950.0	1.0	15.0	go	target	P	89,Middle Finger	71,Index Finger	800.0	900.0	1950.0	1850.0	1.0	n/a	800.0	1.0	go_stim
79477.57882419508	118.42117580496462	n/a	1518	89	2750	118.421175805	stim	stop-signal	230	656437	0.0-13.15-1.15	beast_fmri_test	359	654324,/,655004,/,655683,/,656363,/	t,t,t,t	<img class = center src='/static/experiments/beast_fmri_test/images/P.png'></img>	89,71	2750.0	test	<img class = center src='/static/experiments/beast_fmri_test/images/redP.png'></img>	go	1950.0	1.0	15.0	go	target	P	89,Middle Finger	71,Index Finger	800.0	900.0	1950.0	1850.0	1.0	n/a	800.0	1.0	ITI
80244	500	n/a	-1	-1	500	0.0	fixation	poldrack-single-stim	231	657085	0.0-13.16-0.16	beast_fmri_test	359	657042,/	t	<div class = centerbox2><div class = fixation>+</div></div>	none	500.0	test	n/a	n/a	n/a	n/a	n/a	n/a	n/a	n/a	n/a	n/a	n/a	n/a	n/a	n/a	n/a	n/a	n/a	n/a	fixation
79767.189150001388	2750	n/a	804	71	2750	479.810849999	stim	stop-signal	232	659838	0.0-13.16-1.16	beast_fmri_test	359	657722,/,658402,/,659081,/,659762,/	t,t,t,t	<img class = center src='/static/experiments/beast_fmri_test/images/D.png'></img>	89,71	2750.0	test	<img class = center src='/static/experiments/beast_fmri_test/images/redD.png'></img>	go	1850.0	1.0	16.0	go	non-target	D	89,Middle Finger	71,Index Finger	800.0	900.0	1950.0	1850.0	1.0	n/a	900.0	1.0	go_stim
82517.189150001388	479.81084999863958	n/a	804	71	2750	479.810849999	stim	stop-signal	232	659838	0.0-13.16-1.16	beast_fmri_test	359	657722,/,658402,/,659081,/,659762,/	t,t,t,t	<img class = center src='/static/experiments/beast_fmri_test/images/D.png'></img>	89,71	2750.0	test	<img class = center src='/static/experiments/beast_fmri_test/images/redD.png'></img>	go	1850.0	1.0	16.0	go	non-target	D	89,Middle Finger	71,Index Finger	800.0	900.0	1950.0	1850.0	1.0	n/a	900.0	1.0	ITI
84005	500	n/a	-1	-1	500	0.0	fixation	poldrack-single-stim	233	660846	0.0-13.17-0.17	beast_fmri_test	359	660441,/	t	<div class = centerbox2><div class = fixation>+</div></div>	none	500.0	test	n/a	n/a	n/a	n/a	n/a	n/a	n/a	n/a	n/a	n/a	n/a	n/a	n/a	n/a	n/a	n/a	n/a	n/a	fixation
83882.355069633108	2750	n/a	958	71	2750	123.644930367	stim	stop-signal	234	663597	0.0-13.17-1.17	beast_fmri_test	359	661122,/,661800,/,662480,/,663160,/	t,t,t,t	<img class = center src='/static/experiments/beast_fmri_test/images/D.png'></img>	89,71	2750.0	test	<img class = center src='/static/experiments/beast_fmri_test/images/redD.png'></img>	go	1950.0	1.0	17.0	go	target	D	89,Middle Finger	71,Index Finger	800.0	900.0	1950.0	1850.0	0.0	n/a	800.0	0.0	go_stim
86632.355069633108	123.64493036693787	n/a	958	71	2750	123.644930367	stim	stop-signal	234	663597	0.0-13.17-1.17	beast_fmri_test	359	661122,/,661800,/,662480,/,663160,/	t,t,t,t	<img class = center src='/static/experiments/beast_fmri_test/images/D.png'></img>	89,71	2750.0	test	<img class = center src='/static/experiments/beast_fmri_test/images/redD.png'></img>	go	1950.0	1.0	17.0	go	target	D	89,Middle Finger	71,Index Finger	800.0	900.0	1950.0	1850.0	0.0	n/a	800.0	0.0	ITI
87412	500	n/a	-1	-1	500	0.0	fixation	poldrack-single-stim	235	664253	0.0-13.18-0.18	beast_fmri_test	359	663840,/	t	<div class = centerbox2><div class = fixation>+</div></div>	none	500.0	test	n/a	n/a	n/a	n/a	n/a	n/a	n/a	n/a	n/a	n/a	n/a	n/a	n/a	n/a	n/a	n/a	n/a	n/a	fixation
86611.26393917657	2750	n/a	1097	71	2750	801.736060823	stim	stop-signal	236	667004	0.0-13.18-1.18	beast_fmri_test	359	664519,/,665200,/,665879,/,666558,/,667237,/	t,t,t,t,t	<img class = center src='/static/experiments/beast_fmri_test/images/B.png'></img>	89,71	2750.0	test	<img class = center src='/static/experiments/beast_fmri_test/images/redB.png'></img>	go	1850.0	1.0	18.0	go	non-target	B	89,Middle Finger	71,Index Finger	800.0	900.0	1950.0	1850.0	1.0	n/a	900.0	1.0	go_stim
89361.26393917657	801.73606082347112	n/a	1097	71	2750	801.736060823	stim	stop-signal	236	667004	0.0-13.18-1.18	beast_fmri_test	359	664519,/,665200,/,665879,/,666558,/,667237,/	t,t,t,t,t	<img class = center src='/static/experiments/beast_fmri_test/images/B.png'></img>	89,71	2750.0	test	<img class = center src='/static/experiments/beast_fmri_test/images/redB.png'></img>	go	1850.0	1.0	18.0	go	non-target	B	89,Middle Finger	71,Index Finger	800.0	900.0	1950.0	1850.0	1.0	n/a	900.0	1.0	ITI
91497	500	n/a	-1	-1	500	0.0	fixation	poldrack-single-stim	237	668338	0.0-13.19-0.19	beast_fmri_test	359	667917,/	t	<div class = centerbox2><div class = fixation>+</div></div>	none	500.0	test	n/a	n/a	n/a	n/a	n/a	n/a	n/a	n/a	n/a	n/a	n/a	n/a	n/a	n/a	n/a	n/a	n/a	n/a	fixation
91151.308045889135	900.0	n/a	1192	89	2750	347.691954111	stim	stop-signal	238	671090	0.0-13.19-1.19	beast_fmri_test	359	668596,/,669276,/,669956,/,670636,/,671315,/	t,t,t,t,t	<img class = center src='/static/experiments/beast_fmri_test/images/P.png'></img>	89,71	2750.0	test	<img class = center src='/static/experiments/beast_fmri_test/images/redP.png'></img>	stop	1850.0	1.0	19.0	stop	non-target	P	89,Middle Finger	71,Index Finger	800.0	900.0	1950.0	1850.0	0.0	0.0	900.0	n/a	go_stim
93001.308045889135	1850.0	n/a	1192	89	2750	347.691954111	stim	stop-signal	238	671090	0.0-13.19-1.19	beast_fmri_test	359	668596,/,669276,/,669956,/,670636,/,671315,/	t,t,t,t,t	<img class = center src='/static/experiments/beast_fmri_test/images/P.png'></img>	89,71	2750.0	test	<img class = center src='/static/experiments/beast_fmri_test/images/redP.png'></img>	stop	1850.0	1.0	19.0	stop	non-target	P	89,Middle Finger	71,Index Finger	800.0	900.0	1950.0	1850.0	0.0	0.0	900.0	n/a	stop_stim
93901.308045889135	347.69195411089896	n/a	1192	89	2750	347.691954111	stim	stop-signal	238	671090	0.0-13.19-1.19	beast_fmri_test	359	668596,/,669276,/,669956,/,670636,/,671315,/	t,t,t,t,t	<img class = center src='/static/experiments/beast_fmri_test/images/P.png'></img>	89,71	2750.0	test	<img class = center src='/static/experiments/beast_fmri_test/images/redP.png'></img>	stop	1850.0	1.0	19.0	stop	non-target	P	89,Middle Finger	71,Index Finger	800.0	900.0	1950.0	1850.0	0.0	0.0	900.0	n/a	ITI
95126	500	n/a	-1	-1	500	0.0	fixation	poldrack-single-stim	239	671967	0.0-13.20-0.20	beast_fmri_test	359	n/a	n/a	<div class = centerbox2><div class = fixation>+</div></div>	none	500.0	test	n/a	n/a	n/a	n/a	n/a	n/a	n/a	n/a	n/a	n/a	n/a	n/a	n/a	n/a	n/a	n/a	n/a	n/a	fixation
94211.460439932765	2750	n/a	1272	71	2750	916.539560067	stim	stop-signal	240	674719	0.0-13.20-1.20	beast_fmri_test	359	671995,/,672675,/,673354,/,674035,/,674714,/,675394,/	t,t,t,t,t,t	<img class = center src='/static/experiments/beast_fmri_test/images/T.png'></img>	89,71	2750.0	test	<img class = center src='/static/experiments/beast_fmri_test/images/redT.png'></img>	go	1900.0	1.0	20.0	go	non-target	T	89,Middle Finger	71,Index Finger	800.0	850.0	1950.0	1900.0	1.0	n/a	850.0	1.0	go_stim
96961.460439932765	916.53956006719523	n/a	1272	71	2750	916.539560067	stim	stop-signal	240	674719	0.0-13.20-1.20	beast_fmri_test	359	671995,/,672675,/,673354,/,674035,/,674714,/,675394,/	t,t,t,t,t,t	<img class = center src='/static/experiments/beast_fmri_test/images/T.png'></img>	89,71	2750.0	test	<img class = center src='/static/experiments/beast_fmri_test/images/redT.png'></img>	go	1900.0	1.0	20.0	go	non-target	T	89,Middle Finger	71,Index Finger	800.0	850.0	1950.0	1900.0	1.0	n/a	850.0	1.0	ITI
99323	500	n/a	-1	-1	500	0.0	fixation	poldrack-single-stim	241	676164	0.0-13.21-0.21	beast_fmri_test	359	676074,/	t	<div class = centerbox2><div class = fixation>+</div></div>	none	500.0	test	n/a	n/a	n/a	n/a	n/a	n/a	n/a	n/a	n/a	n/a	n/a	n/a	n/a	n/a	n/a	n/a	n/a	n/a	fixation
99287.692876892048	800.0	n/a	-1	-1	2750	36.307123108	stim	stop-signal	242	678915	0.0-13.21-1.21	beast_fmri_test	359	676753,/,677433,/,678114,/,678793,/	t,t,t,t	<img class = center src='/static/experiments/beast_fmri_test/images/T.png'></img>	89,71	2750.0	test	<img class = center src='/static/experiments/beast_fmri_test/images/redT.png'></img>	stop	1950.0	1.0	21.0	stop	target	T	89,Middle Finger	71,Index Finger	800.0	850.0	1950.0	1900.0	0.0	1.0	800.0	n/a	go_stim
101237.69287689205	1950.0	n/a	-1	-1	2750	36.307123108	stim	stop-signal	242	678915	0.0-13.21-1.21	beast_fmri_test	359	676753,/,677433,/,678114,/,678793,/	t,t,t,t	<img class = center src='/static/experiments/beast_fmri_test/images/T.png'></img>	89,71	2750.0	test	<img class = center src='/static/experiments/beast_fmri_test/images/redT.png'></img>	stop	1950.0	1.0	21.0	stop	target	T	89,Middle Finger	71,Index Finger	800.0	850.0	1950.0	1900.0	0.0	1.0	800.0	n/a	stop_stim
102037.69287689205	36.307123107970789	n/a	-1	-1	2750	36.307123108	stim	stop-signal	242	678915	0.0-13.21-1.21	beast_fmri_test	359	676753,/,677433,/,678114,/,678793,/	t,t,t,t	<img class = center src='/static/experiments/beast_fmri_test/images/T.png'></img>	89,71	2750.0	test	<img class = center src='/static/experiments/beast_fmri_test/images/redT.png'></img>	stop	1950.0	1.0	21.0	stop	target	T	89,Middle Finger	71,Index Finger	800.0	850.0	1950.0	1900.0	0.0	1.0	800.0	n/a	ITI
102640	500	n/a	-1	-1	500	0.0	fixation	poldrack-single-stim	243	679481	0.0-13.22-0.22	beast_fmri_test	359	679472,/	t	<div class = centerbox2><div class = fixation>+</div></div>	none	500.0	test	n/a	n/a	n/a	n/a	n/a	n/a	n/a	n/a	n/a	n/a	n/a	n/a	n/a	n/a	n/a	n/a	n/a	n/a	fixation
100834.05342569971	2750	n/a	1435	71	2750	1807.9465743	stim	stop-signal	244	682233	0.0-13.22-1.22	beast_fmri_test	359	680152,/,680831,/,681511,/,682190,/,682871,/,683549,/	t,t,t,t,t,t	<img class = center src='/static/experiments/beast_fmri_test/images/T.png'></img>	89,71	2750.0	test	<img class = center src='/static/experiments/beast_fmri_test/images/redT.png'></img>	go	1900.0	1.0	22.0	go	target	T	89,Middle Finger	71,Index Finger	850.0	850.0	1900.0	1900.0	0.0	n/a	850.0	0.0	go_stim
103584.05342569971	1807.9465743003439	n/a	1435	71	2750	1807.9465743	stim	stop-signal	244	682233	0.0-13.22-1.22	beast_fmri_test	359	680152,/,680831,/,681511,/,682190,/,682871,/,683549,/	t,t,t,t,t,t	<img class = center src='/static/experiments/beast_fmri_test/images/T.png'></img>	89,71	2750.0	test	<img class = center src='/static/experiments/beast_fmri_test/images/redT.png'></img>	go	1900.0	1.0	22.0	go	target	T	89,Middle Finger	71,Index Finger	850.0	850.0	1900.0	1900.0	0.0	n/a	850.0	0.0	ITI
107730	500	n/a	-1	-1	500	0.0	fixation	poldrack-single-stim	245	684571	0.0-13.23-0.23	beast_fmri_test	359	684230,/	t	<div class = centerbox2><div class = fixation>+</div></div>	none	500.0	test	n/a	n/a	n/a	n/a	n/a	n/a	n/a	n/a	n/a	n/a	n/a	n/a	n/a	n/a	n/a	n/a	n/a	n/a	fixation
107667.28751378146	2750	n/a	1124	71	2750	63.7124862185	stim	stop-signal	246	687322	0.0-13.23-1.23	beast_fmri_test	359	684909,/,685589,/,686269,/,686950,/	t,t,t,t	<img class = center src='/static/experiments/beast_fmri_test/images/B.png'></img>	89,71	2750.0	test	<img class = center src='/static/experiments/beast_fmri_test/images/redB.png'></img>	go	1900.0	1.0	23.0	go	non-target	B	89,Middle Finger	71,Index Finger	850.0	850.0	1900.0	1900.0	1.0	n/a	850.0	1.0	go_stim
110417.28751378146	63.712486218518819	n/a	1124	71	2750	63.7124862185	stim	stop-signal	246	687322	0.0-13.23-1.23	beast_fmri_test	359	684909,/,685589,/,686269,/,686950,/	t,t,t,t	<img class = center src='/static/experiments/beast_fmri_test/images/B.png'></img>	89,71	2750.0	test	<img class = center src='/static/experiments/beast_fmri_test/images/redB.png'></img>	go	1900.0	1.0	23.0	go	non-target	B	89,Middle Finger	71,Index Finger	850.0	850.0	1900.0	1900.0	1.0	n/a	850.0	1.0	ITI
111075	500	n/a	-1	-1	500	0.0	fixation	poldrack-single-stim	247	687916	0.0-13.24-0.24	beast_fmri_test	359	687629,/	t	<div class = centerbox2><div class = fixation>+</div></div>	none	500.0	test	n/a	n/a	n/a	n/a	n/a	n/a	n/a	n/a	n/a	n/a	n/a	n/a	n/a	n/a	n/a	n/a	n/a	n/a	fixation
110661.11913023517	850.0	n/a	-1	-1	2750	414.880869765	stim	stop-signal	248	690667	0.0-13.24-1.24	beast_fmri_test	359	688309,/,688989,/,689667,/,690348,/,691027,/	t,t,t,t,t	<img class = center src='/static/experiments/beast_fmri_test/images/T.png'></img>	89,71	2750.0	test	<img class = center src='/static/experiments/beast_fmri_test/images/redT.png'></img>	stop	1900.0	1.0	24.0	stop	non-target	T	89,Middle Finger	71,Index Finger	850.0	850.0	1900.0	1900.0	0.0	1.0	850.0	n/a	go_stim
112561.11913023517	1900.0	n/a	-1	-1	2750	414.880869765	stim	stop-signal	248	690667	0.0-13.24-1.24	beast_fmri_test	359	688309,/,688989,/,689667,/,690348,/,691027,/	t,t,t,t,t	<img class = center src='/static/experiments/beast_fmri_test/images/T.png'></img>	89,71	2750.0	test	<img class = center src='/static/experiments/beast_fmri_test/images/redT.png'></img>	stop	1900.0	1.0	24.0	stop	non-target	T	89,Middle Finger	71,Index Finger	850.0	850.0	1900.0	1900.0	0.0	1.0	850.0	n/a	stop_stim
113411.11913023517	414.88086976478212	n/a	-1	-1	2750	414.880869765	stim	stop-signal	248	690667	0.0-13.24-1.24	beast_fmri_test	359	688309,/,688989,/,689667,/,690348,/,691027,/	t,t,t,t,t	<img class = center src='/static/experiments/beast_fmri_test/images/T.png'></img>	89,71	2750.0	test	<img class = center src='/static/experiments/beast_fmri_test/images/redT.png'></img>	stop	1900.0	1.0	24.0	stop	non-target	T	89,Middle Finger	71,Index Finger	850.0	850.0	1900.0	1900.0	0.0	1.0	850.0	n/a	ITI
114774	500	n/a	-1	-1	500	0.0	fixation	poldrack-single-stim	249	691615	0.0-13.25-0.25	beast_fmri_test	359	n/a	n/a	<div class = centerbox2><div class = fixation>+</div></div>	none	500.0	test	n/a	n/a	n/a	n/a	n/a	n/a	n/a	n/a	n/a	n/a	n/a	n/a	n/a	n/a	n/a	n/a	n/a	n/a	fixation
114189.37414794986	2750	n/a	1011	71	2750	585.62585205	stim	stop-signal	250	694366	0.0-13.25-1.25	beast_fmri_test	359	691707,/,692386,/,693066,/,693746,/,694424,/	t,t,t,t,t	<img class = center src='/static/experiments/beast_fmri_test/images/P.png'></img>	89,71	2750.0	test	<img class = center src='/static/experiments/beast_fmri_test/images/redP.png'></img>	go	1850.0	1.0	25.0	go	non-target	P	89,Middle Finger	71,Index Finger	850.0	900.0	1900.0	1850.0	1.0	n/a	900.0	1.0	go_stim
116939.37414794986	585.6258520501475	n/a	1011	71	2750	585.62585205	stim	stop-signal	250	694366	0.0-13.25-1.25	beast_fmri_test	359	691707,/,692386,/,693066,/,693746,/,694424,/	t,t,t,t,t	<img class = center src='/static/experiments/beast_fmri_test/images/P.png'></img>	89,71	2750.0	test	<img class = center src='/static/experiments/beast_fmri_test/images/redP.png'></img>	go	1850.0	1.0	25.0	go	non-target	P	89,Middle Finger	71,Index Finger	850.0	900.0	1900.0	1850.0	1.0	n/a	900.0	1.0	ITI
118639	500	n/a	-1	-1	500	0.0	fixation	poldrack-single-stim	251	695480	0.0-13.26-0.26	beast_fmri_test	359	695105,/	t	<div class = centerbox2><div class = fixation>+</div></div>	none	500.0	test	n/a	n/a	n/a	n/a	n/a	n/a	n/a	n/a	n/a	n/a	n/a	n/a	n/a	n/a	n/a	n/a	n/a	n/a	fixation
118460.32454752957	900.0	n/a	-1	-1	2750	179.67545247	stim	stop-signal	252	698231	0.0-13.26-1.26	beast_fmri_test	359	695785,/,696463,/,697144,/,697825,/	t,t,t,t	<img class = center src='/static/experiments/beast_fmri_test/images/T.png'></img>	89,71	2750.0	test	<img class = center src='/static/experiments/beast_fmri_test/images/redT.png'></img>	stop	1850.0	1.0	26.0	stop	non-target	T	89,Middle Finger	71,Index Finger	850.0	900.0	1900.0	1850.0	0.0	1.0	900.0	n/a	go_stim
120310.32454752957	1850.0	n/a	-1	-1	2750	179.67545247	stim	stop-signal	252	698231	0.0-13.26-1.26	beast_fmri_test	359	695785,/,696463,/,697144,/,697825,/	t,t,t,t	<img class = center src='/static/experiments/beast_fmri_test/images/T.png'></img>	89,71	2750.0	test	<img class = center src='/static/experiments/beast_fmri_test/images/redT.png'></img>	stop	1850.0	1.0	26.0	stop	non-target	T	89,Middle Finger	71,Index Finger	850.0	900.0	1900.0	1850.0	0.0	1.0	900.0	n/a	stop_stim
121210.32454752957	179.67545247042457	n/a	-1	-1	2750	179.67545247	stim	stop-signal	252	698231	0.0-13.26-1.26	beast_fmri_test	359	695785,/,696463,/,697144,/,697825,/	t,t,t,t	<img class = center src='/static/experiments/beast_fmri_test/images/T.png'></img>	89,71	2750.0	test	<img class = center src='/static/experiments/beast_fmri_test/images/redT.png'></img>	stop	1850.0	1.0	26.0	stop	non-target	T	89,Middle Finger	71,Index Finger	850.0	900.0	1900.0	1850.0	0.0	1.0	900.0	n/a	ITI
122102	500	n/a	-1	-1	500	0.0	fixation	poldrack-single-stim	253	698943	0.0-13.27-0.27	beast_fmri_test	359	698503,/	t	<div class = centerbox2><div class = fixation>+</div></div>	none	500.0	test	n/a	n/a	n/a	n/a	n/a	n/a	n/a	n/a	n/a	n/a	n/a	n/a	n/a	n/a	n/a	n/a	n/a	n/a	fixation
121961.72276727227	850.0	n/a	-1	-1	2750	141.277232728	stim	stop-signal	254	701694	0.0-13.27-1.27	beast_fmri_test	359	699183,/,699862,/,700541,/,701221,/	t,t,t,t	<img class = center src='/static/experiments/beast_fmri_test/images/T.png'></img>	89,71	2750.0	test	<img class = center src='/static/experiments/beast_fmri_test/images/redT.png'></img>	stop	1900.0	1.0	27.0	stop	target	T	89,Middle Finger	71,Index Finger	850.0	950.0	1900.0	1850.0	0.0	1.0	850.0	n/a	go_stim
123861.72276727227	1900.0	n/a	-1	-1	2750	141.277232728	stim	stop-signal	254	701694	0.0-13.27-1.27	beast_fmri_test	359	699183,/,699862,/,700541,/,701221,/	t,t,t,t	<img class = center src='/static/experiments/beast_fmri_test/images/T.png'></img>	89,71	2750.0	test	<img class = center src='/static/experiments/beast_fmri_test/images/redT.png'></img>	stop	1900.0	1.0	27.0	stop	target	T	89,Middle Finger	71,Index Finger	850.0	950.0	1900.0	1850.0	0.0	1.0	850.0	n/a	stop_stim
124711.72276727227	141.2772327276775	n/a	-1	-1	2750	141.277232728	stim	stop-signal	254	701694	0.0-13.27-1.27	beast_fmri_test	359	699183,/,699862,/,700541,/,701221,/	t,t,t,t	<img class = center src='/static/experiments/beast_fmri_test/images/T.png'></img>	89,71	2750.0	test	<img class = center src='/static/experiments/beast_fmri_test/images/redT.png'></img>	stop	1900.0	1.0	27.0	stop	target	T	89,Middle Finger	71,Index Finger	850.0	950.0	1900.0	1850.0	0.0	1.0	850.0	n/a	ITI
125527	500	n/a	-1	-1	500	0.0	fixation	poldrack-single-stim	255	702368	0.0-13.28-0.28	beast_fmri_test	359	701900,/	t	<div class = centerbox2><div class = fixation>+</div></div>	none	500.0	test	n/a	n/a	n/a	n/a	n/a	n/a	n/a	n/a	n/a	n/a	n/a	n/a	n/a	n/a	n/a	n/a	n/a	n/a	fixation
125022.97210169851	900.0	n/a	-1	-1	2750	505.027898301	stim	stop-signal	256	705119	0.0-13.28-1.28	beast_fmri_test	359	702581,/,703260,/,703940,/,704620,/,705299,/	t,t,t,t,t	<img class = center src='/static/experiments/beast_fmri_test/images/T.png'></img>	89,71	2750.0	test	<img class = center src='/static/experiments/beast_fmri_test/images/redT.png'></img>	stop	1850.0	1.0	28.0	stop	target	T	89,Middle Finger	71,Index Finger	900.0	950.0	1850.0	1850.0	0.0	1.0	900.0	n/a	go_stim
126872.97210169851	1850.0	n/a	-1	-1	2750	505.027898301	stim	stop-signal	256	705119	0.0-13.28-1.28	beast_fmri_test	359	702581,/,703260,/,703940,/,704620,/,705299,/	t,t,t,t,t	<img class = center src='/static/experiments/beast_fmri_test/images/T.png'></img>	89,71	2750.0	test	<img class = center src='/static/experiments/beast_fmri_test/images/redT.png'></img>	stop	1850.0	1.0	28.0	stop	target	T	89,Middle Finger	71,Index Finger	900.0	950.0	1850.0	1850.0	0.0	1.0	900.0	n/a	stop_stim
127772.97210169851	505.02789830145514	n/a	-1	-1	2750	505.027898301	stim	stop-signal	256	705119	0.0-13.28-1.28	beast_fmri_test	359	702581,/,703260,/,703940,/,704620,/,705299,/	t,t,t,t,t	<img class = center src='/static/experiments/beast_fmri_test/images/T.png'></img>	89,71	2750.0	test	<img class = center src='/static/experiments/beast_fmri_test/images/redT.png'></img>	stop	1850.0	1.0	28.0	stop	target	T	89,Middle Finger	71,Index Finger	900.0	950.0	1850.0	1850.0	0.0	1.0	900.0	n/a	ITI
129316	500	n/a	-1	-1	500	0.0	fixation	poldrack-single-stim	257	706157	0.0-13.29-0.29	beast_fmri_test	359	705980,/	t	<div class = centerbox2><div class = fixation>+</div></div>	none	500.0	test	n/a	n/a	n/a	n/a	n/a	n/a	n/a	n/a	n/a	n/a	n/a	n/a	n/a	n/a	n/a	n/a	n/a	n/a	fixation
128944.03488654725	950.0	n/a	-1	-1	2750	372.965113453	stim	stop-signal	258	708908	0.0-13.29-1.29	beast_fmri_test	359	706660,/,707339,/,708019,/,708698,/	t,t,t,t	<img class = center src='/static/experiments/beast_fmri_test/images/V.png'></img>	89,71	2750.0	test	<img class = center src='/static/experiments/beast_fmri_test/images/redV.png'></img>	stop	1800.0	1.0	29.0	stop	non-target	V	89,Middle Finger	71,Index Finger	950.0	950.0	1850.0	1800.0	0.0	1.0	950.0	n/a	go_stim
130744.03488654725	1800.0	n/a	-1	-1	2750	372.965113453	stim	stop-signal	258	708908	0.0-13.29-1.29	beast_fmri_test	359	706660,/,707339,/,708019,/,708698,/	t,t,t,t	<img class = center src='/static/experiments/beast_fmri_test/images/V.png'></img>	89,71	2750.0	test	<img class = center src='/static/experiments/beast_fmri_test/images/redV.png'></img>	stop	1800.0	1.0	29.0	stop	non-target	V	89,Middle Finger	71,Index Finger	950.0	950.0	1850.0	1800.0	0.0	1.0	950.0	n/a	stop_stim
131694.03488654725	372.96511345270795	n/a	-1	-1	2750	372.965113453	stim	stop-signal	258	708908	0.0-13.29-1.29	beast_fmri_test	359	706660,/,707339,/,708019,/,708698,/	t,t,t,t	<img class = center src='/static/experiments/beast_fmri_test/images/V.png'></img>	89,71	2750.0	test	<img class = center src='/static/experiments/beast_fmri_test/images/redV.png'></img>	stop	1800.0	1.0	29.0	stop	non-target	V	89,Middle Finger	71,Index Finger	950.0	950.0	1850.0	1800.0	0.0	1.0	950.0	n/a	ITI
132970	500	n/a	-1	-1	500	0.0	fixation	poldrack-single-stim	259	709811	0.0-13.30-0.30	beast_fmri_test	359	709377,/	t	<div class = centerbox2><div class = fixation>+</div></div>	none	500.0	test	n/a	n/a	n/a	n/a	n/a	n/a	n/a	n/a	n/a	n/a	n/a	n/a	n/a	n/a	n/a	n/a	n/a	n/a	fixation
132784.25129782851	2750	n/a	1195	71	2750	186.748702172	stim	stop-signal	260	712562	0.0-13.30-1.30	beast_fmri_test	359	710059,/,710738,/,711417,/,712096,/	t,t,t,t	<img class = center src='/static/experiments/beast_fmri_test/images/V.png'></img>	89,71	2750.0	test	<img class = center src='/static/experiments/beast_fmri_test/images/redV.png'></img>	go	1800.0	1.0	30.0	go	target	V	89,Middle Finger	71,Index Finger	950.0	1000.0	1800.0	1800.0	0.0	n/a	950.0	0.0	go_stim
135534.25129782851	186.74870217153202	n/a	1195	71	2750	186.748702172	stim	stop-signal	260	712562	0.0-13.30-1.30	beast_fmri_test	359	710059,/,710738,/,711417,/,712096,/	t,t,t,t	<img class = center src='/static/experiments/beast_fmri_test/images/V.png'></img>	89,71	2750.0	test	<img class = center src='/static/experiments/beast_fmri_test/images/redV.png'></img>	go	1800.0	1.0	30.0	go	target	V	89,Middle Finger	71,Index Finger	950.0	1000.0	1800.0	1800.0	0.0	n/a	950.0	0.0	ITI
136442	500	n/a	-1	-1	500	0.0	fixation	poldrack-single-stim	261	713283	0.0-13.31-0.31	beast_fmri_test	359	712781,/	t	<div class = centerbox2><div class = fixation>+</div></div>	none	500.0	test	n/a	n/a	n/a	n/a	n/a	n/a	n/a	n/a	n/a	n/a	n/a	n/a	n/a	n/a	n/a	n/a	n/a	n/a	fixation
135686.25391598092	1000.0	n/a	836	71	2750	757.746084019	stim	stop-signal	262	716035	0.0-13.31-1.31	beast_fmri_test	359	713456,/,714135,/,714815,/,715496,/,716175,/	t,t,t,t,t	<img class = center src='/static/experiments/beast_fmri_test/images/B.png'></img>	89,71	2750.0	test	<img class = center src='/static/experiments/beast_fmri_test/images/redB.png'></img>	stop	1750.0	1.0	31.0	stop	non-target	B	89,Middle Finger	71,Index Finger	950.0	1000.0	1800.0	1750.0	0.0	0.0	1000.0	n/a	go_stim
137436.25391598092	1750.0	n/a	836	71	2750	757.746084019	stim	stop-signal	262	716035	0.0-13.31-1.31	beast_fmri_test	359	713456,/,714135,/,714815,/,715496,/,716175,/	t,t,t,t,t	<img class = center src='/static/experiments/beast_fmri_test/images/B.png'></img>	89,71	2750.0	test	<img class = center src='/static/experiments/beast_fmri_test/images/redB.png'></img>	stop	1750.0	1.0	31.0	stop	non-target	B	89,Middle Finger	71,Index Finger	950.0	1000.0	1800.0	1750.0	0.0	0.0	1000.0	n/a	stop_stim
138436.25391598092	757.74608401906039	n/a	836	71	2750	757.746084019	stim	stop-signal	262	716035	0.0-13.31-1.31	beast_fmri_test	359	713456,/,714135,/,714815,/,715496,/,716175,/	t,t,t,t,t	<img class = center src='/static/experiments/beast_fmri_test/images/B.png'></img>	89,71	2750.0	test	<img class = center src='/static/experiments/beast_fmri_test/images/redB.png'></img>	stop	1750.0	1.0	31.0	stop	non-target	B	89,Middle Finger	71,Index Finger	950.0	1000.0	1800.0	1750.0	0.0	0.0	1000.0	n/a	ITI
140483	500	n/a	-1	-1	500	0.0	fixation	poldrack-single-stim	263	717324	0.0-13.32-0.32	beast_fmri_test	359	716855,/	t	<div class = centerbox2><div class = fixation>+</div></div>	none	500.0	test	n/a	n/a	n/a	n/a	n/a	n/a	n/a	n/a	n/a	n/a	n/a	n/a	n/a	n/a	n/a	n/a	n/a	n/a	fixation
140174.75743074028	2750	n/a	868	71	2750	309.24256926	stim	stop-signal	264	720075	0.0-13.32-1.32	beast_fmri_test	359	717535,/,718213,/,718893,/,719573,/,720254,/	t,t,t,t,t	<img class = center src='/static/experiments/beast_fmri_test/images/T.png'></img>	89,71	2750.0	test	<img class = center src='/static/experiments/beast_fmri_test/images/redT.png'></img>	go	1800.0	1.0	32.0	go	non-target	T	89,Middle Finger	71,Index Finger	950.0	950.0	1800.0	1800.0	1.0	n/a	950.0	1.0	go_stim
142924.75743074028	309.24256925974782	n/a	868	71	2750	309.24256926	stim	stop-signal	264	720075	0.0-13.32-1.32	beast_fmri_test	359	717535,/,718213,/,718893,/,719573,/,720254,/	t,t,t,t,t	<img class = center src='/static/experiments/beast_fmri_test/images/T.png'></img>	89,71	2750.0	test	<img class = center src='/static/experiments/beast_fmri_test/images/redT.png'></img>	go	1800.0	1.0	32.0	go	non-target	T	89,Middle Finger	71,Index Finger	950.0	950.0	1800.0	1800.0	1.0	n/a	950.0	1.0	ITI
144075	500	n/a	-1	-1	500	0.0	fixation	poldrack-single-stim	265	720916	0.0-13.33-0.33	beast_fmri_test	359	n/a	n/a	<div class = centerbox2><div class = fixation>+</div></div>	none	500.0	test	n/a	n/a	n/a	n/a	n/a	n/a	n/a	n/a	n/a	n/a	n/a	n/a	n/a	n/a	n/a	n/a	n/a	n/a	fixation
144042.32050689682	2750	n/a	800	71	2750	33.6794931032	stim	stop-signal	266	723667	0.0-13.33-1.33	beast_fmri_test	359	720933,/,721612,/,722294,/,722972,/,723651,/	t,t,t,t,t	<img class = center src='/static/experiments/beast_fmri_test/images/T.png'></img>	89,71	2750.0	test	<img class = center src='/static/experiments/beast_fmri_test/images/redT.png'></img>	go	1800.0	1.0	33.0	go	target	T	89,Middle Finger	71,Index Finger	950.0	950.0	1800.0	1800.0	0.0	n/a	950.0	0.0	go_stim
146792.32050689682	33.679493103196549	n/a	800	71	2750	33.6794931032	stim	stop-signal	266	723667	0.0-13.33-1.33	beast_fmri_test	359	720933,/,721612,/,722294,/,722972,/,723651,/	t,t,t,t,t	<img class = center src='/static/experiments/beast_fmri_test/images/T.png'></img>	89,71	2750.0	test	<img class = center src='/static/experiments/beast_fmri_test/images/redT.png'></img>	go	1800.0	1.0	33.0	go	target	T	89,Middle Finger	71,Index Finger	950.0	950.0	1800.0	1800.0	0.0	n/a	950.0	0.0	ITI
147389	500	n/a	-1	-1	500	0.0	fixation	poldrack-single-stim	267	724230	0.0-13.34-0.34	beast_fmri_test	359	n/a	n/a	<div class = centerbox2><div class = fixation>+</div></div>	none	500.0	test	n/a	n/a	n/a	n/a	n/a	n/a	n/a	n/a	n/a	n/a	n/a	n/a	n/a	n/a	n/a	n/a	n/a	n/a	fixation
147195.2127369825	950.0	n/a	841	71	2750	195.787263017	stim	stop-signal	268	726982	0.0-13.34-1.34	beast_fmri_test	359	724333,/,725011,/,725691,/,726371,/,727051,/	t,t,t,t,t	<img class = center src='/static/experiments/beast_fmri_test/images/B.png'></img>	89,71	2750.0	test	<img class = center src='/static/experiments/beast_fmri_test/images/redB.png'></img>	stop	1800.0	1.0	34.0	stop	non-target	B	89,Middle Finger	71,Index Finger	950.0	950.0	1800.0	1800.0	0.0	0.0	950.0	n/a	go_stim
148995.2127369825	1800.0	n/a	841	71	2750	195.787263017	stim	stop-signal	268	726982	0.0-13.34-1.34	beast_fmri_test	359	724333,/,725011,/,725691,/,726371,/,727051,/	t,t,t,t,t	<img class = center src='/static/experiments/beast_fmri_test/images/B.png'></img>	89,71	2750.0	test	<img class = center src='/static/experiments/beast_fmri_test/images/redB.png'></img>	stop	1800.0	1.0	34.0	stop	non-target	B	89,Middle Finger	71,Index Finger	950.0	950.0	1800.0	1800.0	0.0	0.0	950.0	n/a	stop_stim
149945.2127369825	195.7872630174659	n/a	841	71	2750	195.787263017	stim	stop-signal	268	726982	0.0-13.34-1.34	beast_fmri_test	359	724333,/,725011,/,725691,/,726371,/,727051,/	t,t,t,t,t	<img class = center src='/static/experiments/beast_fmri_test/images/B.png'></img>	89,71	2750.0	test	<img class = center src='/static/experiments/beast_fmri_test/images/redB.png'></img>	stop	1800.0	1.0	34.0	stop	non-target	B	89,Middle Finger	71,Index Finger	950.0	950.0	1800.0	1800.0	0.0	0.0	950.0	n/a	ITI
150866	500	n/a	-1	-1	500	0.0	fixation	poldrack-single-stim	269	727707	0.0-13.35-0.35	beast_fmri_test	359	n/a	n/a	<div class = centerbox2><div class = fixation>+</div></div>	none	500.0	test	n/a	n/a	n/a	n/a	n/a	n/a	n/a	n/a	n/a	n/a	n/a	n/a	n/a	n/a	n/a	n/a	n/a	n/a	fixation
150230.82284260984	2750	n/a	1097	71	2750	636.17715739	stim	stop-signal	270	730458	0.0-13.35-1.35	beast_fmri_test	359	727729,/,728410,/,729090,/,729768,/,730448,/	t,t,t,t,t	<img class = center src='/static/experiments/beast_fmri_test/images/T.png'></img>	89,71	2750.0	test	<img class = center src='/static/experiments/beast_fmri_test/images/redT.png'></img>	go	1850.0	1.0	35.0	go	non-target	T	89,Middle Finger	71,Index Finger	950.0	900.0	1800.0	1850.0	1.0	n/a	900.0	1.0	go_stim
152980.82284260984	636.17715739015648	n/a	1097	71	2750	636.17715739	stim	stop-signal	270	730458	0.0-13.35-1.35	beast_fmri_test	359	727729,/,728410,/,729090,/,729768,/,730448,/	t,t,t,t,t	<img class = center src='/static/experiments/beast_fmri_test/images/T.png'></img>	89,71	2750.0	test	<img class = center src='/static/experiments/beast_fmri_test/images/redT.png'></img>	go	1850.0	1.0	35.0	go	non-target	T	89,Middle Finger	71,Index Finger	950.0	900.0	1800.0	1850.0	1.0	n/a	900.0	1.0	ITI
154786	500	n/a	-1	-1	500	0.0	fixation	poldrack-single-stim	271	731627	0.0-13.36-0.36	beast_fmri_test	359	731127,/	t	<div class = centerbox2><div class = fixation>+</div></div>	none	500.0	test	n/a	n/a	n/a	n/a	n/a	n/a	n/a	n/a	n/a	n/a	n/a	n/a	n/a	n/a	n/a	n/a	n/a	n/a	fixation
154353.16641320242	2750	n/a	1594	71	2750	432.833586798	stim	stop-signal	272	734377	0.0-13.36-1.36	beast_fmri_test	359	731808,/,732487,/,733167,/,733846,/,734527,/	t,t,t,t,t	<img class = center src='/static/experiments/beast_fmri_test/images/V.png'></img>	89,71	2750.0	test	<img class = center src='/static/experiments/beast_fmri_test/images/redV.png'></img>	go	1850.0	1.0	36.0	go	non-target	V	89,Middle Finger	71,Index Finger	950.0	900.0	1800.0	1850.0	1.0	n/a	900.0	1.0	go_stim
157103.16641320242	432.83358679759107	n/a	1594	71	2750	432.833586798	stim	stop-signal	272	734377	0.0-13.36-1.36	beast_fmri_test	359	731808,/,732487,/,733167,/,733846,/,734527,/	t,t,t,t,t	<img class = center src='/static/experiments/beast_fmri_test/images/V.png'></img>	89,71	2750.0	test	<img class = center src='/static/experiments/beast_fmri_test/images/redV.png'></img>	go	1850.0	1.0	36.0	go	non-target	V	89,Middle Finger	71,Index Finger	950.0	900.0	1800.0	1850.0	1.0	n/a	900.0	1.0	ITI
158500	500	n/a	-1	-1	500	0.0	fixation	poldrack-single-stim	273	735341	0.0-13.37-0.37	beast_fmri_test	359	735206,/	t	<div class = centerbox2><div class = fixation>+</div></div>	none	500.0	test	n/a	n/a	n/a	n/a	n/a	n/a	n/a	n/a	n/a	n/a	n/a	n/a	n/a	n/a	n/a	n/a	n/a	n/a	fixation
155627.17696698953	900.0	n/a	730	71	2750	2874.82303301	stim	stop-signal	274	738093	0.0-13.37-1.37	beast_fmri_test	359	735887,/,736566,/,737245,/,737925,/,738604,/,739283,/,739963,/,740644,/	t,t,t,t,t,t,t,t	<img class = center src='/static/experiments/beast_fmri_test/images/D.png'></img>	89,71	2750.0	test	<img class = center src='/static/experiments/beast_fmri_test/images/redD.png'></img>	stop	1850.0	1.0	37.0	stop	non-target	D	89,Middle Finger	71,Index Finger	950.0	900.0	1800.0	1850.0	0.0	0.0	900.0	n/a	go_stim
157477.17696698953	1850.0	n/a	730	71	2750	2874.82303301	stim	stop-signal	274	738093	0.0-13.37-1.37	beast_fmri_test	359	735887,/,736566,/,737245,/,737925,/,738604,/,739283,/,739963,/,740644,/	t,t,t,t,t,t,t,t	<img class = center src='/static/experiments/beast_fmri_test/images/D.png'></img>	89,71	2750.0	test	<img class = center src='/static/experiments/beast_fmri_test/images/redD.png'></img>	stop	1850.0	1.0	37.0	stop	non-target	D	89,Middle Finger	71,Index Finger	950.0	900.0	1800.0	1850.0	0.0	0.0	900.0	n/a	stop_stim
158377.17696698953	2874.8230330104866	n/a	730	71	2750	2874.82303301	stim	stop-signal	274	738093	0.0-13.37-1.37	beast_fmri_test	359	735887,/,736566,/,737245,/,737925,/,738604,/,739283,/,739963,/,740644,/	t,t,t,t,t,t,t,t	<img class = center src='/static/experiments/beast_fmri_test/images/D.png'></img>	89,71	2750.0	test	<img class = center src='/static/experiments/beast_fmri_test/images/redD.png'></img>	stop	1850.0	1.0	37.0	stop	non-target	D	89,Middle Finger	71,Index Finger	950.0	900.0	1800.0	1850.0	0.0	0.0	900.0	n/a	ITI
164658	500	n/a	-1	-1	500	0.0	fixation	poldrack-single-stim	275	741499	0.0-13.38-0.38	beast_fmri_test	359	741325,/	t	<div class = centerbox2><div class = fixation>+</div></div>	none	500.0	test	n/a	n/a	n/a	n/a	n/a	n/a	n/a	n/a	n/a	n/a	n/a	n/a	n/a	n/a	n/a	n/a	n/a	n/a	fixation
163427.94814419944	2750	n/a	855	71	2750	1233.0518558	stim	stop-signal	276	744252	0.0-13.38-1.38	beast_fmri_test	359	742003,/,742683,/,743362,/,744044,/,744722,/,745402,/	t,t,t,t,t,t	<img class = center src='/static/experiments/beast_fmri_test/images/T.png'></img>	89,71	2750.0	test	<img class = center src='/static/experiments/beast_fmri_test/images/redT.png'></img>	go	1900.0	1.0	38.0	go	non-target	T	89,Middle Finger	71,Index Finger	950.0	850.0	1800.0	1900.0	1.0	n/a	850.0	1.0	go_stim
166177.94814419944	1233.0518558005033	n/a	855	71	2750	1233.0518558	stim	stop-signal	276	744252	0.0-13.38-1.38	beast_fmri_test	359	742003,/,742683,/,743362,/,744044,/,744722,/,745402,/	t,t,t,t,t,t	<img class = center src='/static/experiments/beast_fmri_test/images/T.png'></img>	89,71	2750.0	test	<img class = center src='/static/experiments/beast_fmri_test/images/redT.png'></img>	go	1900.0	1.0	38.0	go	non-target	T	89,Middle Finger	71,Index Finger	950.0	850.0	1800.0	1900.0	1.0	n/a	850.0	1.0	ITI
169177	500	n/a	-1	-1	500	0.0	fixation	poldrack-single-stim	277	746018	0.0-13.39-0.39	beast_fmri_test	359	n/a	n/a	<div class = centerbox2><div class = fixation>+</div></div>	none	500.0	test	n/a	n/a	n/a	n/a	n/a	n/a	n/a	n/a	n/a	n/a	n/a	n/a	n/a	n/a	n/a	n/a	n/a	n/a	fixation
169136.6061575535	2750	n/a	1003	71	2750	43.3938424465	stim	stop-signal	278	748771	0.0-13.39-1.39	beast_fmri_test	359	746082,/,746761,/,747440,/,748120,/,748800,/	t,t,t,t,t	<img class = center src='/static/experiments/beast_fmri_test/images/T.png'></img>	89,71	2750.0	test	<img class = center src='/static/experiments/beast_fmri_test/images/redT.png'></img>	go	1800.0	1.0	39.0	go	target	T	89,Middle Finger	71,Index Finger	950.0	850.0	1800.0	1900.0	0.0	n/a	950.0	0.0	go_stim
171886.6061575535	43.393842446534244	n/a	1003	71	2750	43.3938424465	stim	stop-signal	278	748771	0.0-13.39-1.39	beast_fmri_test	359	746082,/,746761,/,747440,/,748120,/,748800,/	t,t,t,t,t	<img class = center src='/static/experiments/beast_fmri_test/images/T.png'></img>	89,71	2750.0	test	<img class = center src='/static/experiments/beast_fmri_test/images/redT.png'></img>	go	1800.0	1.0	39.0	go	target	T	89,Middle Finger	71,Index Finger	950.0	850.0	1800.0	1900.0	0.0	n/a	950.0	0.0	ITI
172504	500	n/a	-1	-1	500	0.0	fixation	poldrack-single-stim	279	749345	0.0-13.40-0.40	beast_fmri_test	359	n/a	n/a	<div class = centerbox2><div class = fixation>+</div></div>	none	500.0	test	n/a	n/a	n/a	n/a	n/a	n/a	n/a	n/a	n/a	n/a	n/a	n/a	n/a	n/a	n/a	n/a	n/a	n/a	fixation
170656.44000155642	2750	n/a	1019	89	2750	1849.55999844	stim	stop-signal	280	752097	0.0-13.40-1.40	beast_fmri_test	359	749479,/,750160,/,750838,/,751519,/,752198,/,752877,/,753557,/	t,t,t,t,t,t,t	<img class = center src='/static/experiments/beast_fmri_test/images/T.png'></img>	89,71	2750.0	test	<img class = center src='/static/experiments/beast_fmri_test/images/redT.png'></img>	go	1800.0	1.0	40.0	go	target	T	89,Middle Finger	71,Index Finger	950.0	850.0	1800.0	1900.0	1.0	n/a	950.0	1.0	go_stim
173406.44000155642	1849.5599984435528	n/a	1019	89	2750	1849.55999844	stim	stop-signal	280	752097	0.0-13.40-1.40	beast_fmri_test	359	749479,/,750160,/,750838,/,751519,/,752198,/,752877,/,753557,/	t,t,t,t,t,t,t	<img class = center src='/static/experiments/beast_fmri_test/images/T.png'></img>	89,71	2750.0	test	<img class = center src='/static/experiments/beast_fmri_test/images/redT.png'></img>	go	1800.0	1.0	40.0	go	target	T	89,Middle Finger	71,Index Finger	950.0	850.0	1800.0	1900.0	1.0	n/a	950.0	1.0	ITI
177639	500	n/a	-1	-1	500	0.0	fixation	poldrack-single-stim	281	754480	0.0-13.41-0.41	beast_fmri_test	359	754239,/	t	<div class = centerbox2><div class = fixation>+</div></div>	none	500.0	test	n/a	n/a	n/a	n/a	n/a	n/a	n/a	n/a	n/a	n/a	n/a	n/a	n/a	n/a	n/a	n/a	n/a	n/a	fixation
177406.72873962065	2750	n/a	534	71	2750	234.271260379	stim	stop-signal	282	757232	0.0-13.41-1.41	beast_fmri_test	359	754917,/,755597,/,756276,/,756956,/	t,t,t,t	<img class = center src='/static/experiments/beast_fmri_test/images/P.png'></img>	89,71	2750.0	test	<img class = center src='/static/experiments/beast_fmri_test/images/redP.png'></img>	go	1900.0	1.0	41.0	go	non-target	P	89,Middle Finger	71,Index Finger	950.0	850.0	1800.0	1900.0	1.0	n/a	850.0	1.0	go_stim
180156.72873962065	234.27126037939769	n/a	534	71	2750	234.271260379	stim	stop-signal	282	757232	0.0-13.41-1.41	beast_fmri_test	359	754917,/,755597,/,756276,/,756956,/	t,t,t,t	<img class = center src='/static/experiments/beast_fmri_test/images/P.png'></img>	89,71	2750.0	test	<img class = center src='/static/experiments/beast_fmri_test/images/redP.png'></img>	go	1900.0	1.0	41.0	go	non-target	P	89,Middle Finger	71,Index Finger	950.0	850.0	1800.0	1900.0	1.0	n/a	850.0	1.0	ITI
181156	500	n/a	-1	-1	500	0.0	fixation	poldrack-single-stim	283	757997	0.0-13.42-0.42	beast_fmri_test	359	757637,/	t	<div class = centerbox2><div class = fixation>+</div></div>	none	500.0	test	n/a	n/a	n/a	n/a	n/a	n/a	n/a	n/a	n/a	n/a	n/a	n/a	n/a	n/a	n/a	n/a	n/a	n/a	fixation
180054.46130056691	2750	n/a	975	71	2750	1102.53869943	stim	stop-signal	284	760748	0.0-13.42-1.42	beast_fmri_test	359	758316,/,758996,/,759675,/,760354,/,761033,/,761713,/	t,t,t,t,t,t	<img class = center src='/static/experiments/beast_fmri_test/images/P.png'></img>	89,71	2750.0	test	<img class = center src='/static/experiments/beast_fmri_test/images/redP.png'></img>	go	1800.0	1.0	42.0	go	target	P	89,Middle Finger	71,Index Finger	950.0	850.0	1800.0	1900.0	0.0	n/a	950.0	0.0	go_stim
182804.46130056691	1102.5386994330677	n/a	975	71	2750	1102.53869943	stim	stop-signal	284	760748	0.0-13.42-1.42	beast_fmri_test	359	758316,/,758996,/,759675,/,760354,/,761033,/,761713,/	t,t,t,t,t,t	<img class = center src='/static/experiments/beast_fmri_test/images/P.png'></img>	89,71	2750.0	test	<img class = center src='/static/experiments/beast_fmri_test/images/redP.png'></img>	go	1800.0	1.0	42.0	go	target	P	89,Middle Finger	71,Index Finger	950.0	850.0	1800.0	1900.0	0.0	n/a	950.0	0.0	ITI
185543	500	n/a	-1	-1	500	0.0	fixation	poldrack-single-stim	285	762384	0.0-13.43-0.43	beast_fmri_test	359	n/a	n/a	<div class = centerbox2><div class = fixation>+</div></div>	none	500.0	test	n/a	n/a	n/a	n/a	n/a	n/a	n/a	n/a	n/a	n/a	n/a	n/a	n/a	n/a	n/a	n/a	n/a	n/a	fixation
185002.97769718664	2750	n/a	937	71	2750	540.022302813	stim	stop-signal	286	765134	0.0-13.43-1.43	beast_fmri_test	359	762393,/,763075,/,763752,/,764433,/,765112,/	t,t,t,t,t	<img class = center src='/static/experiments/beast_fmri_test/images/V.png'></img>	89,71	2750.0	test	<img class = center src='/static/experiments/beast_fmri_test/images/redV.png'></img>	go	1900.0	1.0	43.0	go	non-target	V	89,Middle Finger	71,Index Finger	950.0	850.0	1800.0	1900.0	1.0	n/a	850.0	1.0	go_stim
187752.97769718664	540.02230281332561	n/a	937	71	2750	540.022302813	stim	stop-signal	286	765134	0.0-13.43-1.43	beast_fmri_test	359	762393,/,763075,/,763752,/,764433,/,765112,/	t,t,t,t,t	<img class = center src='/static/experiments/beast_fmri_test/images/V.png'></img>	89,71	2750.0	test	<img class = center src='/static/experiments/beast_fmri_test/images/redV.png'></img>	go	1900.0	1.0	43.0	go	non-target	V	89,Middle Finger	71,Index Finger	950.0	850.0	1800.0	1900.0	1.0	n/a	850.0	1.0	ITI
189370	500	n/a	-1	-1	500	0.0	fixation	poldrack-single-stim	287	766211	0.0-13.44-0.44	beast_fmri_test	359	765791,/	t	<div class = centerbox2><div class = fixation>+</div></div>	none	500.0	test	n/a	n/a	n/a	n/a	n/a	n/a	n/a	n/a	n/a	n/a	n/a	n/a	n/a	n/a	n/a	n/a	n/a	n/a	fixation
188968.85953266558	850.0	n/a	1067	71	2750	403.140467334	stim	stop-signal	288	768963	0.0-13.44-1.44	beast_fmri_test	359	766471,/,767152,/,767831,/,768510,/,769191,/	t,t,t,t,t	<img class = center src='/static/experiments/beast_fmri_test/images/B.png'></img>	89,71	2750.0	test	<img class = center src='/static/experiments/beast_fmri_test/images/redB.png'></img>	stop	1900.0	1.0	44.0	stop	non-target	B	89,Middle Finger	71,Index Finger	950.0	850.0	1800.0	1900.0	0.0	0.0	850.0	n/a	go_stim
190868.85953266558	1900.0	n/a	1067	71	2750	403.140467334	stim	stop-signal	288	768963	0.0-13.44-1.44	beast_fmri_test	359	766471,/,767152,/,767831,/,768510,/,769191,/	t,t,t,t,t	<img class = center src='/static/experiments/beast_fmri_test/images/B.png'></img>	89,71	2750.0	test	<img class = center src='/static/experiments/beast_fmri_test/images/redB.png'></img>	stop	1900.0	1.0	44.0	stop	non-target	B	89,Middle Finger	71,Index Finger	950.0	850.0	1800.0	1900.0	0.0	0.0	850.0	n/a	stop_stim
191718.85953266558	403.14046733447367	n/a	1067	71	2750	403.140467334	stim	stop-signal	288	768963	0.0-13.44-1.44	beast_fmri_test	359	766471,/,767152,/,767831,/,768510,/,769191,/	t,t,t,t,t	<img class = center src='/static/experiments/beast_fmri_test/images/B.png'></img>	89,71	2750.0	test	<img class = center src='/static/experiments/beast_fmri_test/images/redB.png'></img>	stop	1900.0	1.0	44.0	stop	non-target	B	89,Middle Finger	71,Index Finger	950.0	850.0	1800.0	1900.0	0.0	0.0	850.0	n/a	ITI
193059	500	n/a	-1	-1	500	0.0	fixation	poldrack-single-stim	289	769900	0.0-13.45-0.45	beast_fmri_test	359	769871,/	t	<div class = centerbox2><div class = fixation>+</div></div>	none	500.0	test	n/a	n/a	n/a	n/a	n/a	n/a	n/a	n/a	n/a	n/a	n/a	n/a	n/a	n/a	n/a	n/a	n/a	n/a	fixation
192736.30172472354	2750	n/a	914	71	2750	325.698275276	stim	stop-signal	290	772653	0.0-13.45-1.45	beast_fmri_test	359	770550,/,771231,/,771910,/,772589,/	t,t,t,t	<img class = center src='/static/experiments/beast_fmri_test/images/T.png'></img>	89,71	2750.0	test	<img class = center src='/static/experiments/beast_fmri_test/images/redT.png'></img>	go	1950.0	1.0	45.0	go	non-target	T	89,Middle Finger	71,Index Finger	950.0	800.0	1800.0	1950.0	1.0	n/a	800.0	1.0	go_stim
195486.30172472354	325.69827527643622	n/a	914	71	2750	325.698275276	stim	stop-signal	290	772653	0.0-13.45-1.45	beast_fmri_test	359	770550,/,771231,/,771910,/,772589,/	t,t,t,t	<img class = center src='/static/experiments/beast_fmri_test/images/T.png'></img>	89,71	2750.0	test	<img class = center src='/static/experiments/beast_fmri_test/images/redT.png'></img>	go	1950.0	1.0	45.0	go	non-target	T	89,Middle Finger	71,Index Finger	950.0	800.0	1800.0	1950.0	1.0	n/a	800.0	1.0	ITI
211166	15000	n/a	-1	-1	15000	0.0	practice-no-stop-feedback	poldrack-single-stim	291	788007	0.0-14.0	beast_fmri_test	359	773270,/,773949,/,774628,/,775308,/,775989,/,776667,/,777348,/,778027,/,778707,/,779385,/,780065,/,780745,/,781425,/,782105,/,782785,/,783465,/,784143,/,784823,/,785504,/,786182,/,786862,/,787542,/	t,t,t,t,t,t,t,t,t,t,t,t,t,t,t,t,t,t,t,t,t,t	"<div class = ""centerbox""><p class = ""block-text"">Your delay is 1 trials.</p><p class = block-text>Please wait for the scanner to start the block</p></div>"	77	15000.0	n/a	n/a	n/a	n/a	n/a	n/a	n/a	n/a	n/a	n/a	n/a	n/a	n/a	n/a	n/a	n/a	n/a	n/a	n/a	practice-no-stop-feedback
211670	500	n/a	-1	-1	500	0.0	fixation	poldrack-single-stim	292	788511	0.0-15.0-0.0	beast_fmri_test	359	788222,/	t	<div class = centerbox2><div class = fixation>+</div></div>	none	500.0	test	n/a	n/a	n/a	n/a	n/a	n/a	n/a	n/a	n/a	n/a	n/a	n/a	n/a	n/a	n/a	n/a	n/a	n/a	fixation
210815.05271930341	2750	n/a	1870	71	2750	855.947280697	stim	stop-signal	293	791262	0.0-15.0-1.0	beast_fmri_test	359	788901,/,789581,/,790262,/,790941,/,791620,/	t,t,t,t,t	<img class = center src='/static/experiments/beast_fmri_test/images/T.png'></img>	89,71	2750.0	test	<img class = center src='/static/experiments/beast_fmri_test/images/redT.png'></img>	go	-1.0	1.0	0.0	go	temp-non-target	T	89,Middle Finger	71,Index Finger	950.0	800.0	1800.0	1950.0	0.0	n/a	n/a	n/a	go_stim
213565.05271930341	855.94728069663313	n/a	1870	71	2750	855.947280697	stim	stop-signal	293	791262	0.0-15.0-1.0	beast_fmri_test	359	788901,/,789581,/,790262,/,790941,/,791620,/	t,t,t,t,t	<img class = center src='/static/experiments/beast_fmri_test/images/T.png'></img>	89,71	2750.0	test	<img class = center src='/static/experiments/beast_fmri_test/images/redT.png'></img>	go	-1.0	1.0	0.0	go	temp-non-target	T	89,Middle Finger	71,Index Finger	950.0	800.0	1800.0	1950.0	0.0	n/a	n/a	n/a	ITI
215814	500	n/a	-1	-1	500	0.0	fixation	poldrack-single-stim	294	792655	0.0-15.1-0.1	beast_fmri_test	359	792300,/	t	<div class = centerbox2><div class = fixation>+</div></div>	none	500.0	test	n/a	n/a	n/a	n/a	n/a	n/a	n/a	n/a	n/a	n/a	n/a	n/a	n/a	n/a	n/a	n/a	n/a	n/a	fixation
214109.13675899967	800.0	n/a	905	71	2750	1706.863241	stim	stop-signal	295	795407	0.0-15.1-1.1	beast_fmri_test	359	792979,/,793659,/,794339,/,795018,/,795700,/,796378,/,797058,/	t,t,t,t,t,t,t	<img class = center src='/static/experiments/beast_fmri_test/images/P.png'></img>	89,71	2750.0	test	<img class = center src='/static/experiments/beast_fmri_test/images/redP.png'></img>	stop	1950.0	1.0	1.0	stop	non-target	P	89,Middle Finger	71,Index Finger	950.0	800.0	1800.0	1950.0	0.0	0.0	800.0	n/a	go_stim
216059.13675899967	1950.0	n/a	905	71	2750	1706.863241	stim	stop-signal	295	795407	0.0-15.1-1.1	beast_fmri_test	359	792979,/,793659,/,794339,/,795018,/,795700,/,796378,/,797058,/	t,t,t,t,t,t,t	<img class = center src='/static/experiments/beast_fmri_test/images/P.png'></img>	89,71	2750.0	test	<img class = center src='/static/experiments/beast_fmri_test/images/redP.png'></img>	stop	1950.0	1.0	1.0	stop	non-target	P	89,Middle Finger	71,Index Finger	950.0	800.0	1800.0	1950.0	0.0	0.0	800.0	n/a	stop_stim
216859.13675899967	1706.8632410003675	n/a	905	71	2750	1706.863241	stim	stop-signal	295	795407	0.0-15.1-1.1	beast_fmri_test	359	792979,/,793659,/,794339,/,795018,/,795700,/,796378,/,797058,/	t,t,t,t,t,t,t	<img class = center src='/static/experiments/beast_fmri_test/images/P.png'></img>	89,71	2750.0	test	<img class = center src='/static/experiments/beast_fmri_test/images/redP.png'></img>	stop	1950.0	1.0	1.0	stop	non-target	P	89,Middle Finger	71,Index Finger	950.0	800.0	1800.0	1950.0	0.0	0.0	800.0	n/a	ITI
220808	500	n/a	-1	-1	500	0.0	fixation	poldrack-single-stim	296	797649	0.0-15.2-0.2	beast_fmri_test	359	n/a	n/a	<div class = centerbox2><div class = fixation>+</div></div>	none	500.0	test	n/a	n/a	n/a	n/a	n/a	n/a	n/a	n/a	n/a	n/a	n/a	n/a	n/a	n/a	n/a	n/a	n/a	n/a	fixation
217795.9282959752	2750	n/a	1492	71	2750	3014.07170402	stim	stop-signal	297	800401	0.0-15.2-1.2	beast_fmri_test	359	797737,/,798416,/,799097,/,799776,/,800456,/,801136,/,801816,/,802496,/,803174,/	t,t,t,t,t,t,t,t,t	<img class = center src='/static/experiments/beast_fmri_test/images/T.png'></img>	89,71	2750.0	test	<img class = center src='/static/experiments/beast_fmri_test/images/redT.png'></img>	go	2000.0	1.0	2.0	go	non-target	T	89,Middle Finger	71,Index Finger	950.0	750.0	1800.0	2000.0	1.0	n/a	750.0	1.0	go_stim
220545.9282959752	3014.0717040248205	n/a	1492	71	2750	3014.07170402	stim	stop-signal	297	800401	0.0-15.2-1.2	beast_fmri_test	359	797737,/,798416,/,799097,/,799776,/,800456,/,801136,/,801816,/,802496,/,803174,/	t,t,t,t,t,t,t,t,t	<img class = center src='/static/experiments/beast_fmri_test/images/T.png'></img>	89,71	2750.0	test	<img class = center src='/static/experiments/beast_fmri_test/images/redT.png'></img>	go	2000.0	1.0	2.0	go	non-target	T	89,Middle Finger	71,Index Finger	950.0	750.0	1800.0	2000.0	1.0	n/a	750.0	1.0	ITI
227112	500	n/a	-1	-1	500	0.0	fixation	poldrack-single-stim	298	803953	0.0-15.3-0.3	beast_fmri_test	359	803856,/	t	<div class = centerbox2><div class = fixation>+</div></div>	none	500.0	test	n/a	n/a	n/a	n/a	n/a	n/a	n/a	n/a	n/a	n/a	n/a	n/a	n/a	n/a	n/a	n/a	n/a	n/a	fixation
226590.6100404365	2750	n/a	1082	71	2750	524.389959564	stim	stop-signal	299	806706	0.0-15.3-1.3	beast_fmri_test	359	804534,/,805215,/,805894,/,806574,/	t,t,t,t	<img class = center src='/static/experiments/beast_fmri_test/images/V.png'></img>	89,71	2750.0	test	<img class = center src='/static/experiments/beast_fmri_test/images/redV.png'></img>	go	2000.0	1.0	3.0	go	non-target	V	89,Middle Finger	71,Index Finger	950.0	750.0	1800.0	2000.0	1.0	n/a	750.0	1.0	go_stim
229340.6100404365	524.38995956352346	n/a	1082	71	2750	524.389959564	stim	stop-signal	299	806706	0.0-15.3-1.3	beast_fmri_test	359	804534,/,805215,/,805894,/,806574,/	t,t,t,t	<img class = center src='/static/experiments/beast_fmri_test/images/V.png'></img>	89,71	2750.0	test	<img class = center src='/static/experiments/beast_fmri_test/images/redV.png'></img>	go	2000.0	1.0	3.0	go	non-target	V	89,Middle Finger	71,Index Finger	950.0	750.0	1800.0	2000.0	1.0	n/a	750.0	1.0	ITI
230925	500	n/a	-1	-1	500	0.0	fixation	poldrack-single-stim	300	807766	0.0-15.4-0.4	beast_fmri_test	359	807265,/	t	<div class = centerbox2><div class = fixation>+</div></div>	none	500.0	test	n/a	n/a	n/a	n/a	n/a	n/a	n/a	n/a	n/a	n/a	n/a	n/a	n/a	n/a	n/a	n/a	n/a	n/a	fixation
228014.80708153604	2750	n/a	927	89	2750	2912.19291846	stim	stop-signal	301	810518	0.0-15.4-1.4	beast_fmri_test	359	807933,/,808612,/,809292,/,809972,/,810652,/,811332,/,812010,/,812690,/,813369,/	t,t,t,t,t,t,t,t,t	<img class = center src='/static/experiments/beast_fmri_test/images/V.png'></img>	89,71	2750.0	test	<img class = center src='/static/experiments/beast_fmri_test/images/redV.png'></img>	go	1800.0	1.0	4.0	go	target	V	89,Middle Finger	71,Index Finger	950.0	750.0	1800.0	2000.0	1.0	n/a	950.0	1.0	go_stim
230764.80708153604	2912.1929184639589	n/a	927	89	2750	2912.19291846	stim	stop-signal	301	810518	0.0-15.4-1.4	beast_fmri_test	359	807933,/,808612,/,809292,/,809972,/,810652,/,811332,/,812010,/,812690,/,813369,/	t,t,t,t,t,t,t,t,t	<img class = center src='/static/experiments/beast_fmri_test/images/V.png'></img>	89,71	2750.0	test	<img class = center src='/static/experiments/beast_fmri_test/images/redV.png'></img>	go	1800.0	1.0	4.0	go	target	V	89,Middle Finger	71,Index Finger	950.0	750.0	1800.0	2000.0	1.0	n/a	950.0	1.0	ITI
237125	500	n/a	-1	-1	500	0.0	fixation	poldrack-single-stim	302	813966	0.0-15.5-0.5	beast_fmri_test	359	n/a	n/a	<div class = centerbox2><div class = fixation>+</div></div>	none	500.0	test	n/a	n/a	n/a	n/a	n/a	n/a	n/a	n/a	n/a	n/a	n/a	n/a	n/a	n/a	n/a	n/a	n/a	n/a	fixation
235053.86516043369	2750	n/a	841	89	2750	2072.13483957	stim	stop-signal	303	816717	0.0-15.5-1.5	beast_fmri_test	359	814049,/,814730,/,815410,/,816089,/,816768,/,817447,/,818128,/	t,t,t,t,t,t,t	<img class = center src='/static/experiments/beast_fmri_test/images/V.png'></img>	89,71	2750.0	test	<img class = center src='/static/experiments/beast_fmri_test/images/redV.png'></img>	go	1800.0	1.0	5.0	go	target	V	89,Middle Finger	71,Index Finger	950.0	750.0	1800.0	2000.0	1.0	n/a	950.0	1.0	go_stim
237803.86516043369	2072.1348395663367	n/a	841	89	2750	2072.13483957	stim	stop-signal	303	816717	0.0-15.5-1.5	beast_fmri_test	359	814049,/,814730,/,815410,/,816089,/,816768,/,817447,/,818128,/	t,t,t,t,t,t,t	<img class = center src='/static/experiments/beast_fmri_test/images/V.png'></img>	89,71	2750.0	test	<img class = center src='/static/experiments/beast_fmri_test/images/redV.png'></img>	go	1800.0	1.0	5.0	go	target	V	89,Middle Finger	71,Index Finger	950.0	750.0	1800.0	2000.0	1.0	n/a	950.0	1.0	ITI
242483	500	n/a	-1	-1	500	0.0	fixation	poldrack-single-stim	304	819324	0.0-15.6-0.6	beast_fmri_test	359	818823,/	t	<div class = centerbox2><div class = fixation>+</div></div>	none	500.0	test	n/a	n/a	n/a	n/a	n/a	n/a	n/a	n/a	n/a	n/a	n/a	n/a	n/a	n/a	n/a	n/a	n/a	n/a	fixation
241976.13914678339	2750	n/a	994	71	2750	508.860853217	stim	stop-signal	305	822076	0.0-15.6-1.6	beast_fmri_test	359	819488,/,820166,/,820847,/,821526,/,822206,/	t,t,t,t,t	<img class = center src='/static/experiments/beast_fmri_test/images/P.png'></img>	89,71	2750.0	test	<img class = center src='/static/experiments/beast_fmri_test/images/redP.png'></img>	go	2000.0	1.0	6.0	go	non-target	P	89,Middle Finger	71,Index Finger	950.0	750.0	1800.0	2000.0	1.0	n/a	750.0	1.0	go_stim
244726.13914678339	508.86085321666258	n/a	994	71	2750	508.860853217	stim	stop-signal	305	822076	0.0-15.6-1.6	beast_fmri_test	359	819488,/,820166,/,820847,/,821526,/,822206,/	t,t,t,t,t	<img class = center src='/static/experiments/beast_fmri_test/images/P.png'></img>	89,71	2750.0	test	<img class = center src='/static/experiments/beast_fmri_test/images/redP.png'></img>	go	2000.0	1.0	6.0	go	non-target	P	89,Middle Finger	71,Index Finger	950.0	750.0	1800.0	2000.0	1.0	n/a	750.0	1.0	ITI
246279	500	n/a	-1	-1	500	0.0	fixation	poldrack-single-stim	306	823120	0.0-15.7-0.7	beast_fmri_test	359	822886,/	t	<div class = centerbox2><div class = fixation>+</div></div>	none	500.0	test	n/a	n/a	n/a	n/a	n/a	n/a	n/a	n/a	n/a	n/a	n/a	n/a	n/a	n/a	n/a	n/a	n/a	n/a	fixation
246090.28859353147	2750	n/a	1019	71	2750	189.711406469	stim	stop-signal	307	825871	0.0-15.7-1.7	beast_fmri_test	359	823566,/,824245,/,824925,/,825604,/	t,t,t,t	<img class = center src='/static/experiments/beast_fmri_test/images/T.png'></img>	89,71	2750.0	test	<img class = center src='/static/experiments/beast_fmri_test/images/redT.png'></img>	go	2000.0	1.0	7.0	go	non-target	T	89,Middle Finger	71,Index Finger	950.0	750.0	1800.0	2000.0	1.0	n/a	750.0	1.0	go_stim
248840.28859353147	189.71140646855201	n/a	1019	71	2750	189.711406469	stim	stop-signal	307	825871	0.0-15.7-1.7	beast_fmri_test	359	823566,/,824245,/,824925,/,825604,/	t,t,t,t	<img class = center src='/static/experiments/beast_fmri_test/images/T.png'></img>	89,71	2750.0	test	<img class = center src='/static/experiments/beast_fmri_test/images/redT.png'></img>	go	2000.0	1.0	7.0	go	non-target	T	89,Middle Finger	71,Index Finger	950.0	750.0	1800.0	2000.0	1.0	n/a	750.0	1.0	ITI
249754	500	n/a	-1	-1	500	0.0	fixation	poldrack-single-stim	308	826595	0.0-15.8-0.8	beast_fmri_test	359	826285,/	t	<div class = centerbox2><div class = fixation>+</div></div>	none	500.0	test	n/a	n/a	n/a	n/a	n/a	n/a	n/a	n/a	n/a	n/a	n/a	n/a	n/a	n/a	n/a	n/a	n/a	n/a	fixation
248669.63190620497	950.0	n/a	991	89	2750	1086.3680938	stim	stop-signal	309	829347	0.0-15.8-1.8	beast_fmri_test	359	826964,/,827645,/,828324,/,829004,/,829683,/,830362,/	t,t,t,t,t,t	<img class = center src='/static/experiments/beast_fmri_test/images/T.png'></img>	89,71	2750.0	test	<img class = center src='/static/experiments/beast_fmri_test/images/redT.png'></img>	stop	1800.0	1.0	8.0	stop	target	T	89,Middle Finger	71,Index Finger	950.0	750.0	1800.0	2000.0	0.0	0.0	950.0	n/a	go_stim
250469.63190620497	1800.0	n/a	991	89	2750	1086.3680938	stim	stop-signal	309	829347	0.0-15.8-1.8	beast_fmri_test	359	826964,/,827645,/,828324,/,829004,/,829683,/,830362,/	t,t,t,t,t,t	<img class = center src='/static/experiments/beast_fmri_test/images/T.png'></img>	89,71	2750.0	test	<img class = center src='/static/experiments/beast_fmri_test/images/redT.png'></img>	stop	1800.0	1.0	8.0	stop	target	T	89,Middle Finger	71,Index Finger	950.0	750.0	1800.0	2000.0	0.0	0.0	950.0	n/a	stop_stim
251419.63190620497	1086.3680937950103	n/a	991	89	2750	1086.3680938	stim	stop-signal	309	829347	0.0-15.8-1.8	beast_fmri_test	359	826964,/,827645,/,828324,/,829004,/,829683,/,830362,/	t,t,t,t,t,t	<img class = center src='/static/experiments/beast_fmri_test/images/T.png'></img>	89,71	2750.0	test	<img class = center src='/static/experiments/beast_fmri_test/images/redT.png'></img>	stop	1800.0	1.0	8.0	stop	target	T	89,Middle Finger	71,Index Finger	950.0	750.0	1800.0	2000.0	0.0	0.0	950.0	n/a	ITI
254129	500	n/a	-1	-1	500	0.0	fixation	poldrack-single-stim	310	830970	0.0-15.9-0.9	beast_fmri_test	359	n/a	n/a	<div class = centerbox2><div class = fixation>+</div></div>	none	500.0	test	n/a	n/a	n/a	n/a	n/a	n/a	n/a	n/a	n/a	n/a	n/a	n/a	n/a	n/a	n/a	n/a	n/a	n/a	fixation
253267.43272919068	2750	n/a	757	71	2750	861.567270809	stim	stop-signal	311	833720	0.0-15.9-1.9	beast_fmri_test	359	831042,/,831721,/,832401,/,833082,/,833760,/,834441,/	t,t,t,t,t,t	<img class = center src='/static/experiments/beast_fmri_test/images/V.png'></img>	89,71	2750.0	test	<img class = center src='/static/experiments/beast_fmri_test/images/redV.png'></img>	go	2000.0	1.0	9.0	go	non-target	V	89,Middle Finger	71,Index Finger	900.0	750.0	1800.0	2000.0	1.0	n/a	750.0	1.0	go_stim
256017.43272919068	861.56727080929261	n/a	757	71	2750	861.567270809	stim	stop-signal	311	833720	0.0-15.9-1.9	beast_fmri_test	359	831042,/,831721,/,832401,/,833082,/,833760,/,834441,/	t,t,t,t,t,t	<img class = center src='/static/experiments/beast_fmri_test/images/V.png'></img>	89,71	2750.0	test	<img class = center src='/static/experiments/beast_fmri_test/images/redV.png'></img>	go	2000.0	1.0	9.0	go	non-target	V	89,Middle Finger	71,Index Finger	900.0	750.0	1800.0	2000.0	1.0	n/a	750.0	1.0	ITI
258277	500	n/a	-1	-1	500	0.0	fixation	poldrack-single-stim	312	835118	0.0-15.10-0.10	beast_fmri_test	359	n/a	n/a	<div class = centerbox2><div class = fixation>+</div></div>	none	500.0	test	n/a	n/a	n/a	n/a	n/a	n/a	n/a	n/a	n/a	n/a	n/a	n/a	n/a	n/a	n/a	n/a	n/a	n/a	fixation
257479.44145889976	2750	n/a	1089	89	2750	798.5585411	stim	stop-signal	313	837869	0.0-15.10-1.10	beast_fmri_test	359	835121,/,835800,/,836479,/,837160,/,837840,/,838519,/	t,t,t,t,t,t	<img class = center src='/static/experiments/beast_fmri_test/images/V.png'></img>	89,71	2750.0	test	<img class = center src='/static/experiments/beast_fmri_test/images/redV.png'></img>	go	1850.0	1.0	10.0	go	target	V	89,Middle Finger	71,Index Finger	900.0	750.0	1850.0	2000.0	1.0	n/a	900.0	1.0	go_stim
260229.44145889976	798.55854110018629	n/a	1089	89	2750	798.5585411	stim	stop-signal	313	837869	0.0-15.10-1.10	beast_fmri_test	359	835121,/,835800,/,836479,/,837160,/,837840,/,838519,/	t,t,t,t,t,t	<img class = center src='/static/experiments/beast_fmri_test/images/V.png'></img>	89,71	2750.0	test	<img class = center src='/static/experiments/beast_fmri_test/images/redV.png'></img>	go	1850.0	1.0	10.0	go	target	V	89,Middle Finger	71,Index Finger	900.0	750.0	1850.0	2000.0	1.0	n/a	900.0	1.0	ITI
262364	500	n/a	-1	-1	500	0.0	fixation	poldrack-single-stim	314	839205	0.0-15.11-0.11	beast_fmri_test	359	839198,/	t	<div class = centerbox2><div class = fixation>+</div></div>	none	500.0	test	n/a	n/a	n/a	n/a	n/a	n/a	n/a	n/a	n/a	n/a	n/a	n/a	n/a	n/a	n/a	n/a	n/a	n/a	fixation
262294.76739459846	2750	n/a	1050	71	2750	70.2326054016	stim	stop-signal	315	841956	0.0-15.11-1.11	beast_fmri_test	359	839879,/,840557,/,841238,/,841916,/	t,t,t,t	<img class = center src='/static/experiments/beast_fmri_test/images/T.png'></img>	89,71	2750.0	test	<img class = center src='/static/experiments/beast_fmri_test/images/redT.png'></img>	go	2000.0	1.0	11.0	go	non-target	T	89,Middle Finger	71,Index Finger	900.0	750.0	1850.0	2000.0	1.0	n/a	750.0	1.0	go_stim
265044.76739459846	70.232605401554054	n/a	1050	71	2750	70.2326054016	stim	stop-signal	315	841956	0.0-15.11-1.11	beast_fmri_test	359	839879,/,840557,/,841238,/,841916,/	t,t,t,t	<img class = center src='/static/experiments/beast_fmri_test/images/T.png'></img>	89,71	2750.0	test	<img class = center src='/static/experiments/beast_fmri_test/images/redT.png'></img>	go	2000.0	1.0	11.0	go	non-target	T	89,Middle Finger	71,Index Finger	900.0	750.0	1850.0	2000.0	1.0	n/a	750.0	1.0	ITI
265721	500	n/a	-1	-1	500	0.0	fixation	poldrack-single-stim	316	842562	0.0-15.12-0.12	beast_fmri_test	359	n/a	n/a	<div class = centerbox2><div class = fixation>+</div></div>	none	500.0	test	n/a	n/a	n/a	n/a	n/a	n/a	n/a	n/a	n/a	n/a	n/a	n/a	n/a	n/a	n/a	n/a	n/a	n/a	fixation
264281.09118030674	2750	n/a	1475	71	2750	1440.90881969	stim	stop-signal	317	845313	0.0-15.12-1.12	beast_fmri_test	359	842596,/,843277,/,843957,/,844635,/,845315,/,845994,/,846674,/	t,t,t,t,t,t,t	<img class = center src='/static/experiments/beast_fmri_test/images/V.png'></img>	89,71	2750.0	test	<img class = center src='/static/experiments/beast_fmri_test/images/redV.png'></img>	go	2000.0	1.0	12.0	go	non-target	V	89,Middle Finger	71,Index Finger	900.0	750.0	1850.0	2000.0	1.0	n/a	750.0	1.0	go_stim
267031.09118030674	1440.9088196932987	n/a	1475	71	2750	1440.90881969	stim	stop-signal	317	845313	0.0-15.12-1.12	beast_fmri_test	359	842596,/,843277,/,843957,/,844635,/,845315,/,845994,/,846674,/	t,t,t,t,t,t,t	<img class = center src='/static/experiments/beast_fmri_test/images/V.png'></img>	89,71	2750.0	test	<img class = center src='/static/experiments/beast_fmri_test/images/redV.png'></img>	go	2000.0	1.0	12.0	go	non-target	V	89,Middle Finger	71,Index Finger	900.0	750.0	1850.0	2000.0	1.0	n/a	750.0	1.0	ITI
270450	500	n/a	-1	-1	500	0.0	fixation	poldrack-single-stim	318	847291	0.0-15.13-0.13	beast_fmri_test	359	n/a	n/a	<div class = centerbox2><div class = fixation>+</div></div>	none	500.0	test	n/a	n/a	n/a	n/a	n/a	n/a	n/a	n/a	n/a	n/a	n/a	n/a	n/a	n/a	n/a	n/a	n/a	n/a	fixation
269450.65547210653	2750	n/a	1099	71	2750	1000.34452789	stim	stop-signal	319	850042	0.0-15.13-1.13	beast_fmri_test	359	847353,/,848034,/,848715,/,849394,/,850072,/,850752,/	t,t,t,t,t,t	<img class = center src='/static/experiments/beast_fmri_test/images/B.png'></img>	89,71	2750.0	test	<img class = center src='/static/experiments/beast_fmri_test/images/redB.png'></img>	go	2000.0	1.0	13.0	go	non-target	B	89,Middle Finger	71,Index Finger	900.0	750.0	1850.0	2000.0	1.0	n/a	750.0	1.0	go_stim
272200.65547210653	1000.3445278935091	n/a	1099	71	2750	1000.34452789	stim	stop-signal	319	850042	0.0-15.13-1.13	beast_fmri_test	359	847353,/,848034,/,848715,/,849394,/,850072,/,850752,/	t,t,t,t,t,t	<img class = center src='/static/experiments/beast_fmri_test/images/B.png'></img>	89,71	2750.0	test	<img class = center src='/static/experiments/beast_fmri_test/images/redB.png'></img>	go	2000.0	1.0	13.0	go	non-target	B	89,Middle Finger	71,Index Finger	900.0	750.0	1850.0	2000.0	1.0	n/a	750.0	1.0	ITI
274738	500	n/a	-1	-1	500	0.0	fixation	poldrack-single-stim	320	851579	0.0-15.14-0.14	beast_fmri_test	359	851431,/	t	<div class = centerbox2><div class = fixation>+</div></div>	none	500.0	test	n/a	n/a	n/a	n/a	n/a	n/a	n/a	n/a	n/a	n/a	n/a	n/a	n/a	n/a	n/a	n/a	n/a	n/a	fixation
273992.81887507706	2750	n/a	1460	71	2750	745.181124923	stim	stop-signal	321	854329	0.0-15.14-1.14	beast_fmri_test	359	852112,/,852792,/,853472,/,854151,/,854831,/	t,t,t,t,t	<img class = center src='/static/experiments/beast_fmri_test/images/D.png'></img>	89,71	2750.0	test	<img class = center src='/static/experiments/beast_fmri_test/images/redD.png'></img>	go	2000.0	1.0	14.0	go	non-target	D	89,Middle Finger	71,Index Finger	900.0	750.0	1850.0	2000.0	1.0	n/a	750.0	1.0	go_stim
276742.81887507706	745.18112492290891	n/a	1460	71	2750	745.181124923	stim	stop-signal	321	854329	0.0-15.14-1.14	beast_fmri_test	359	852112,/,852792,/,853472,/,854151,/,854831,/	t,t,t,t,t	<img class = center src='/static/experiments/beast_fmri_test/images/D.png'></img>	89,71	2750.0	test	<img class = center src='/static/experiments/beast_fmri_test/images/redD.png'></img>	go	2000.0	1.0	14.0	go	non-target	D	89,Middle Finger	71,Index Finger	900.0	750.0	1850.0	2000.0	1.0	n/a	750.0	1.0	ITI
278774	500	n/a	-1	-1	500	0.0	fixation	poldrack-single-stim	322	855615	0.0-15.15-0.15	beast_fmri_test	359	855512,/	t	<div class = centerbox2><div class = fixation>+</div></div>	none	500.0	test	n/a	n/a	n/a	n/a	n/a	n/a	n/a	n/a	n/a	n/a	n/a	n/a	n/a	n/a	n/a	n/a	n/a	n/a	fixation
277852.46520979679	2750	n/a	1073	71	2750	921.534790203	stim	stop-signal	323	858365	0.0-15.15-1.15	beast_fmri_test	359	856190,/,856871,/,857551,/,858230,/,858909,/	t,t,t,t,t	<img class = center src='/static/experiments/beast_fmri_test/images/B.png'></img>	89,71	2750.0	test	<img class = center src='/static/experiments/beast_fmri_test/images/redB.png'></img>	go	2000.0	1.0	15.0	go	non-target	B	89,Middle Finger	71,Index Finger	900.0	750.0	1850.0	2000.0	1.0	n/a	750.0	1.0	go_stim
280602.46520979679	921.53479020320424	n/a	1073	71	2750	921.534790203	stim	stop-signal	323	858365	0.0-15.15-1.15	beast_fmri_test	359	856190,/,856871,/,857551,/,858230,/,858909,/	t,t,t,t,t	<img class = center src='/static/experiments/beast_fmri_test/images/B.png'></img>	89,71	2750.0	test	<img class = center src='/static/experiments/beast_fmri_test/images/redB.png'></img>	go	2000.0	1.0	15.0	go	non-target	B	89,Middle Finger	71,Index Finger	900.0	750.0	1850.0	2000.0	1.0	n/a	750.0	1.0	ITI
282986	500	n/a	-1	-1	500	0.0	fixation	poldrack-single-stim	324	859827	0.0-15.16-0.16	beast_fmri_test	359	859588,/	t	<div class = centerbox2><div class = fixation>+</div></div>	none	500.0	test	n/a	n/a	n/a	n/a	n/a	n/a	n/a	n/a	n/a	n/a	n/a	n/a	n/a	n/a	n/a	n/a	n/a	n/a	fixation
282230.66993403784	2750	n/a	1793	89	2750	756.330065962	stim	stop-signal	325	862578	0.0-15.16-1.16	beast_fmri_test	359	860268,/,860949,/,861627,/,862308,/,862989,/	t,t,t,t,t	<img class = center src='/static/experiments/beast_fmri_test/images/B.png'></img>	89,71	2750.0	test	<img class = center src='/static/experiments/beast_fmri_test/images/redB.png'></img>	go	1850.0	1.0	16.0	go	target	B	89,Middle Finger	71,Index Finger	900.0	750.0	1850.0	2000.0	1.0	n/a	900.0	1.0	go_stim
284980.66993403784	756.33006596221742	n/a	1793	89	2750	756.330065962	stim	stop-signal	325	862578	0.0-15.16-1.16	beast_fmri_test	359	860268,/,860949,/,861627,/,862308,/,862989,/	t,t,t,t,t	<img class = center src='/static/experiments/beast_fmri_test/images/B.png'></img>	89,71	2750.0	test	<img class = center src='/static/experiments/beast_fmri_test/images/redB.png'></img>	go	1850.0	1.0	16.0	go	target	B	89,Middle Finger	71,Index Finger	900.0	750.0	1850.0	2000.0	1.0	n/a	900.0	1.0	ITI
287038	500	n/a	-1	-1	500	0.0	fixation	poldrack-single-stim	326	863879	0.0-15.17-0.17	beast_fmri_test	359	863667,/	t	<div class = centerbox2><div class = fixation>+</div></div>	none	500.0	test	n/a	n/a	n/a	n/a	n/a	n/a	n/a	n/a	n/a	n/a	n/a	n/a	n/a	n/a	n/a	n/a	n/a	n/a	fixation
286989.53275860136	2750	n/a	847	89	2750	49.4672413987	stim	stop-signal	327	866630	0.0-15.17-1.17	beast_fmri_test	359	864347,/,865026,/,865707,/,866387,/	t,t,t,t	<img class = center src='/static/experiments/beast_fmri_test/images/B.png'></img>	89,71	2750.0	test	<img class = center src='/static/experiments/beast_fmri_test/images/redB.png'></img>	go	1850.0	1.0	17.0	go	target	B	89,Middle Finger	71,Index Finger	900.0	750.0	1850.0	2000.0	1.0	n/a	900.0	1.0	go_stim
289739.53275860136	49.467241398672179	n/a	847	89	2750	49.4672413987	stim	stop-signal	327	866630	0.0-15.17-1.17	beast_fmri_test	359	864347,/,865026,/,865707,/,866387,/	t,t,t,t	<img class = center src='/static/experiments/beast_fmri_test/images/B.png'></img>	89,71	2750.0	test	<img class = center src='/static/experiments/beast_fmri_test/images/redB.png'></img>	go	1850.0	1.0	17.0	go	target	B	89,Middle Finger	71,Index Finger	900.0	750.0	1850.0	2000.0	1.0	n/a	900.0	1.0	ITI
290377	500	n/a	-1	-1	500	0.0	fixation	poldrack-single-stim	328	867218	0.0-15.18-0.18	beast_fmri_test	359	867065,/	t	<div class = centerbox2><div class = fixation>+</div></div>	none	500.0	test	n/a	n/a	n/a	n/a	n/a	n/a	n/a	n/a	n/a	n/a	n/a	n/a	n/a	n/a	n/a	n/a	n/a	n/a	fixation
290084.04669377871	2750	n/a	682	71	2750	294.953306221	stim	stop-signal	329	869970	0.0-15.18-1.18	beast_fmri_test	359	867746,/,868424,/,869104,/,869783,/	t,t,t,t	<img class = center src='/static/experiments/beast_fmri_test/images/P.png'></img>	89,71	2750.0	test	<img class = center src='/static/experiments/beast_fmri_test/images/redP.png'></img>	go	2000.0	1.0	18.0	go	non-target	P	89,Middle Finger	71,Index Finger	900.0	750.0	1850.0	2000.0	1.0	n/a	750.0	1.0	go_stim
292834.04669377871	294.95330622126329	n/a	682	71	2750	294.953306221	stim	stop-signal	329	869970	0.0-15.18-1.18	beast_fmri_test	359	867746,/,868424,/,869104,/,869783,/	t,t,t,t	<img class = center src='/static/experiments/beast_fmri_test/images/P.png'></img>	89,71	2750.0	test	<img class = center src='/static/experiments/beast_fmri_test/images/redP.png'></img>	go	2000.0	1.0	18.0	go	non-target	P	89,Middle Finger	71,Index Finger	900.0	750.0	1850.0	2000.0	1.0	n/a	750.0	1.0	ITI
293964	500	n/a	-1	-1	500	0.0	fixation	poldrack-single-stim	330	870805	0.0-15.19-0.19	beast_fmri_test	359	870463,/	t	<div class = centerbox2><div class = fixation>+</div></div>	none	500.0	test	n/a	n/a	n/a	n/a	n/a	n/a	n/a	n/a	n/a	n/a	n/a	n/a	n/a	n/a	n/a	n/a	n/a	n/a	fixation
293201.94707635755	2750	n/a	730	89	2750	764.052923642	stim	stop-signal	331	873557	0.0-15.19-1.19	beast_fmri_test	359	871143,/,871824,/,872502,/,873183,/,873861,/	t,t,t,t,t	<img class = center src='/static/experiments/beast_fmri_test/images/P.png'></img>	89,71	2750.0	test	<img class = center src='/static/experiments/beast_fmri_test/images/redP.png'></img>	go	1850.0	1.0	19.0	go	target	P	89,Middle Finger	71,Index Finger	900.0	750.0	1850.0	2000.0	1.0	n/a	900.0	1.0	go_stim
295951.94707635755	764.05292364249476	n/a	730	89	2750	764.052923642	stim	stop-signal	331	873557	0.0-15.19-1.19	beast_fmri_test	359	871143,/,871824,/,872502,/,873183,/,873861,/	t,t,t,t,t	<img class = center src='/static/experiments/beast_fmri_test/images/P.png'></img>	89,71	2750.0	test	<img class = center src='/static/experiments/beast_fmri_test/images/redP.png'></img>	go	1850.0	1.0	19.0	go	target	P	89,Middle Finger	71,Index Finger	900.0	750.0	1850.0	2000.0	1.0	n/a	900.0	1.0	ITI
298017	500	n/a	-1	-1	500	0.0	fixation	poldrack-single-stim	332	874858	0.0-15.20-0.20	beast_fmri_test	359	874542,/	t	<div class = centerbox2><div class = fixation>+</div></div>	none	500.0	test	n/a	n/a	n/a	n/a	n/a	n/a	n/a	n/a	n/a	n/a	n/a	n/a	n/a	n/a	n/a	n/a	n/a	n/a	fixation
297645.08248648862	750.0	n/a	730	71	2750	373.917513511	stim	stop-signal	333	877610	0.0-15.20-1.20	beast_fmri_test	359	875222,/,875901,/,876581,/,877260,/,877940,/	t,t,t,t,t	<img class = center src='/static/experiments/beast_fmri_test/images/T.png'></img>	89,71	2750.0	test	<img class = center src='/static/experiments/beast_fmri_test/images/redT.png'></img>	stop	2000.0	1.0	20.0	stop	non-target	T	89,Middle Finger	71,Index Finger	900.0	750.0	1850.0	2000.0	0.0	0.0	750.0	n/a	go_stim
299645.08248648862	2000.0	n/a	730	71	2750	373.917513511	stim	stop-signal	333	877610	0.0-15.20-1.20	beast_fmri_test	359	875222,/,875901,/,876581,/,877260,/,877940,/	t,t,t,t,t	<img class = center src='/static/experiments/beast_fmri_test/images/T.png'></img>	89,71	2750.0	test	<img class = center src='/static/experiments/beast_fmri_test/images/redT.png'></img>	stop	2000.0	1.0	20.0	stop	non-target	T	89,Middle Finger	71,Index Finger	900.0	750.0	1850.0	2000.0	0.0	0.0	750.0	n/a	stop_stim
300395.08248648862	373.91751351139504	n/a	730	71	2750	373.917513511	stim	stop-signal	333	877610	0.0-15.20-1.20	beast_fmri_test	359	875222,/,875901,/,876581,/,877260,/,877940,/	t,t,t,t,t	<img class = center src='/static/experiments/beast_fmri_test/images/T.png'></img>	89,71	2750.0	test	<img class = center src='/static/experiments/beast_fmri_test/images/redT.png'></img>	stop	2000.0	1.0	20.0	stop	non-target	T	89,Middle Finger	71,Index Finger	900.0	750.0	1850.0	2000.0	0.0	0.0	750.0	n/a	ITI
301685	500	n/a	-1	-1	500	0.0	fixation	poldrack-single-stim	334	878526	0.0-15.21-0.21	beast_fmri_test	359	n/a	n/a	<div class = centerbox2><div class = fixation>+</div></div>	none	500.0	test	n/a	n/a	n/a	n/a	n/a	n/a	n/a	n/a	n/a	n/a	n/a	n/a	n/a	n/a	n/a	n/a	n/a	n/a	fixation
300215.21655195847	700.0	n/a	763	71	2750	1471.78344804	stim	stop-signal	335	881278	0.0-15.21-1.21	beast_fmri_test	359	878620,/,879299,/,879978,/,880659,/,881337,/,882019,/,882697,/	t,t,t,t,t,t,t	<img class = center src='/static/experiments/beast_fmri_test/images/V.png'></img>	89,71	2750.0	test	<img class = center src='/static/experiments/beast_fmri_test/images/redV.png'></img>	stop	2050.0	1.0	21.0	stop	non-target	V	89,Middle Finger	71,Index Finger	900.0	700.0	1850.0	2050.0	0.0	0.0	700.0	n/a	go_stim
302265.21655195847	2050.0	n/a	763	71	2750	1471.78344804	stim	stop-signal	335	881278	0.0-15.21-1.21	beast_fmri_test	359	878620,/,879299,/,879978,/,880659,/,881337,/,882019,/,882697,/	t,t,t,t,t,t,t	<img class = center src='/static/experiments/beast_fmri_test/images/V.png'></img>	89,71	2750.0	test	<img class = center src='/static/experiments/beast_fmri_test/images/redV.png'></img>	stop	2050.0	1.0	21.0	stop	non-target	V	89,Middle Finger	71,Index Finger	900.0	700.0	1850.0	2050.0	0.0	0.0	700.0	n/a	stop_stim
302965.21655195847	1471.7834480415704	n/a	763	71	2750	1471.78344804	stim	stop-signal	335	881278	0.0-15.21-1.21	beast_fmri_test	359	878620,/,879299,/,879978,/,880659,/,881337,/,882019,/,882697,/	t,t,t,t,t,t,t	<img class = center src='/static/experiments/beast_fmri_test/images/V.png'></img>	89,71	2750.0	test	<img class = center src='/static/experiments/beast_fmri_test/images/redV.png'></img>	stop	2050.0	1.0	21.0	stop	non-target	V	89,Middle Finger	71,Index Finger	900.0	700.0	1850.0	2050.0	0.0	0.0	700.0	n/a	ITI
306448	500	n/a	-1	-1	500	0.0	fixation	poldrack-single-stim	336	883289	0.0-15.22-0.22	beast_fmri_test	359	n/a	n/a	<div class = centerbox2><div class = fixation>+</div></div>	none	500.0	test	n/a	n/a	n/a	n/a	n/a	n/a	n/a	n/a	n/a	n/a	n/a	n/a	n/a	n/a	n/a	n/a	n/a	n/a	fixation
304441.47163498355	650.0	n/a	643	71	2750	2007.52836502	stim	stop-signal	337	886040	0.0-15.22-1.22	beast_fmri_test	359	883377,/,884056,/,884736,/,885418,/,886097,/,886778,/,887455,/	t,t,t,t,t,t,t	<img class = center src='/static/experiments/beast_fmri_test/images/T.png'></img>	89,71	2750.0	test	<img class = center src='/static/experiments/beast_fmri_test/images/redT.png'></img>	stop	2100.0	1.0	22.0	stop	non-target	T	89,Middle Finger	71,Index Finger	900.0	650.0	1850.0	2100.0	0.0	0.0	650.0	n/a	go_stim
306541.47163498355	2100.0	n/a	643	71	2750	2007.52836502	stim	stop-signal	337	886040	0.0-15.22-1.22	beast_fmri_test	359	883377,/,884056,/,884736,/,885418,/,886097,/,886778,/,887455,/	t,t,t,t,t,t,t	<img class = center src='/static/experiments/beast_fmri_test/images/T.png'></img>	89,71	2750.0	test	<img class = center src='/static/experiments/beast_fmri_test/images/redT.png'></img>	stop	2100.0	1.0	22.0	stop	non-target	T	89,Middle Finger	71,Index Finger	900.0	650.0	1850.0	2100.0	0.0	0.0	650.0	n/a	stop_stim
307191.47163498355	2007.528365016416	n/a	643	71	2750	2007.52836502	stim	stop-signal	337	886040	0.0-15.22-1.22	beast_fmri_test	359	883377,/,884056,/,884736,/,885418,/,886097,/,886778,/,887455,/	t,t,t,t,t,t,t	<img class = center src='/static/experiments/beast_fmri_test/images/T.png'></img>	89,71	2750.0	test	<img class = center src='/static/experiments/beast_fmri_test/images/redT.png'></img>	stop	2100.0	1.0	22.0	stop	non-target	T	89,Middle Finger	71,Index Finger	900.0	650.0	1850.0	2100.0	0.0	0.0	650.0	n/a	ITI
311747	500	n/a	-1	-1	500	0.0	fixation	poldrack-single-stim	338	888588	0.0-15.23-0.23	beast_fmri_test	359	888135,/	t	<div class = centerbox2><div class = fixation>+</div></div>	none	500.0	test	n/a	n/a	n/a	n/a	n/a	n/a	n/a	n/a	n/a	n/a	n/a	n/a	n/a	n/a	n/a	n/a	n/a	n/a	fixation
309987.74204262847	2750	n/a	788	89	2750	1762.25795737	stim	stop-signal	339	891341	0.0-15.23-1.23	beast_fmri_test	359	888815,/,889496,/,890176,/,890855,/,891533,/,892214,/,892894,/	t,t,t,t,t,t,t	<img class = center src='/static/experiments/beast_fmri_test/images/D.png'></img>	89,71	2750.0	test	<img class = center src='/static/experiments/beast_fmri_test/images/redD.png'></img>	go	2150.0	1.0	23.0	go	non-target	D	89,Middle Finger	71,Index Finger	900.0	600.0	1850.0	2150.0	0.0	n/a	600.0	0.0	go_stim
312737.74204262847	1762.2579573714904	n/a	788	89	2750	1762.25795737	stim	stop-signal	339	891341	0.0-15.23-1.23	beast_fmri_test	359	888815,/,889496,/,890176,/,890855,/,891533,/,892214,/,892894,/	t,t,t,t,t,t,t	<img class = center src='/static/experiments/beast_fmri_test/images/D.png'></img>	89,71	2750.0	test	<img class = center src='/static/experiments/beast_fmri_test/images/redD.png'></img>	go	2150.0	1.0	23.0	go	non-target	D	89,Middle Finger	71,Index Finger	900.0	600.0	1850.0	2150.0	0.0	n/a	600.0	0.0	ITI
316803	500	n/a	-1	-1	500	0.0	fixation	poldrack-single-stim	340	893644	0.0-15.24-0.24	beast_fmri_test	359	893572,/	t	<div class = centerbox2><div class = fixation>+</div></div>	none	500.0	test	n/a	n/a	n/a	n/a	n/a	n/a	n/a	n/a	n/a	n/a	n/a	n/a	n/a	n/a	n/a	n/a	n/a	n/a	fixation
315830.56816417677	2750	n/a	744	71	2750	973.431835823	stim	stop-signal	341	896395	0.0-15.24-1.24	beast_fmri_test	359	894253,/,894933,/,895612,/,896292,/,896972,/	t,t,t,t,t	<img class = center src='/static/experiments/beast_fmri_test/images/B.png'></img>	89,71	2750.0	test	<img class = center src='/static/experiments/beast_fmri_test/images/redB.png'></img>	go	2150.0	1.0	24.0	go	non-target	B	89,Middle Finger	71,Index Finger	900.0	600.0	1850.0	2150.0	1.0	n/a	600.0	1.0	go_stim
