onset	duration	text	rt	key_press	block_duration	timing_post_trial	trial_id	trial_type	trial_index	time_elapsed	internal_node_id	exp_id	subject_id	trigger_times	triggers	stimulus	possible_responses	stim_duration	exp_stage	SS_stimulus	SS_trial_type	SS_duration	load	trial_num	stop_trial_type	adaptive_trial_type	stim	yes_response_key	no_response_key	SSD_target	SSD_non_target	SSTarget	SSNonTarget	go_acc	stop_acc	SS_delay	adaptive_acc	new_trial_type
test	10880.0	n/a	-1	-1	10880	0.0	practice-no-stop-feedback	poldrack-single-stim	584	1598698	0.0-24.0	beast_fmri_test	313	1587818,/,1588498,/,1589178,/,1589858,/,1590538,/,1591218,/,1591897,/,1592577,/,1593258,/,1593937,/,1594618,/,1595298,/,1595977,/,1596658,/,1597337,/,1598017,/,1598697,/	t,t,t,t,t,t,t,t,t,t,t,t,t,t,t,t,t	"<div class = ""centerbox""><p class = ""center-block-text"">Your delay is 1 trials.</p><p class = center-block-text>Please wait for the scanner to start the block</p></div>"	77	10880.0	n/a	n/a	n/a	n/a	n/a	n/a	n/a	n/a	n/a	n/a	n/a	n/a	n/a	n/a	n/a	n/a	n/a	n/a	n/a	start_functional_block
11381	500.0	n/a	-1	-1	500	0.0	fixation	poldrack-single-stim	585	1599199	0.0-25.0-0.0	beast_fmri_test	313	n/a	n/a	<div class = centerbox><div class = fixation>+</div></div>	none	500.0	test	n/a	n/a	n/a	n/a	n/a	n/a	n/a	n/a	n/a	n/a	n/a	n/a	n/a	n/a	n/a	n/a	n/a	n/a	fixation
6734.7530720001087	2750.0	n/a	1269	71	2750	4647.246928	stim	stop-signal	586	1601950	0.0-25.0-1.0	beast_fmri_test	313	1599377,/,1600057,/,1600737,/,1601417,/,1602097,/,1602777,/,1603457,/,1604137,/,1604817,/,1605498,/,1606177,/	t,t,t,t,t,t,t,t,t,t,t	<img class = center src='/static/experiments/beast_fmri_test/images/P.png'></img>	89,71	2750.0	test	<img class = center src='/static/experiments/beast_fmri_test/images/redP.png'></img>	go	-1.0	1.0	0.0	go	temp-non-target	P	89,Yellow Button	71,Green Button	1000.0	1500.0	1750.0	1250.0	0.0	n/a	n/a	n/a	go_stim
9484.7530720001087	4647.246928	n/a	1269	71	2750	4647.246928	stim	stop-signal	586	1601950	0.0-25.0-1.0	beast_fmri_test	313	1599377,/,1600057,/,1600737,/,1601417,/,1602097,/,1602777,/,1603457,/,1604137,/,1604817,/,1605498,/,1606177,/	t,t,t,t,t,t,t,t,t,t,t	<img class = center src='/static/experiments/beast_fmri_test/images/P.png'></img>	89,71	2750.0	test	<img class = center src='/static/experiments/beast_fmri_test/images/redP.png'></img>	go	-1.0	1.0	0.0	go	temp-non-target	P	89,Yellow Button	71,Green Button	1000.0	1500.0	1750.0	1250.0	0.0	n/a	n/a	n/a	ITI
19304	500.0	n/a	-1	-1	500	0.0	fixation	poldrack-single-stim	587	1607122	0.0-25.1-0.1	beast_fmri_test	313	1606857,/	t	<div class = centerbox><div class = fixation>+</div></div>	none	500.0	test	n/a	n/a	n/a	n/a	n/a	n/a	n/a	n/a	n/a	n/a	n/a	n/a	n/a	n/a	n/a	n/a	n/a	n/a	fixation
18762.21120609995	2750.0	n/a	887	71	2750	542.7887939	stim	stop-signal	588	1609873	0.0-25.1-1.1	beast_fmri_test	313	1607537,/,1608218,/,1608897,/,1609578,/,1610257,/	t,t,t,t,t	<img class = center src='/static/experiments/beast_fmri_test/images/V.png'></img>	89,71	2750.0	test	<img class = center src='/static/experiments/beast_fmri_test/images/redV.png'></img>	go	1250.0	1.0	1.0	go	non-target	V	89,Yellow Button	71,Green Button	1000.0	1500.0	1750.0	1250.0	1.0	n/a	1500.0	1.0	go_stim
21512.21120609995	542.7887939	n/a	887	71	2750	542.7887939	stim	stop-signal	588	1609873	0.0-25.1-1.1	beast_fmri_test	313	1607537,/,1608218,/,1608897,/,1609578,/,1610257,/	t,t,t,t,t	<img class = center src='/static/experiments/beast_fmri_test/images/V.png'></img>	89,71	2750.0	test	<img class = center src='/static/experiments/beast_fmri_test/images/redV.png'></img>	go	1250.0	1.0	1.0	go	non-target	V	89,Yellow Button	71,Green Button	1000.0	1500.0	1750.0	1250.0	1.0	n/a	1500.0	1.0	ITI
23120	500.0	n/a	-1	-1	500	0.0	fixation	poldrack-single-stim	589	1610938	0.0-25.2-0.2	beast_fmri_test	313	1610938,/	t	<div class = centerbox><div class = fixation>+</div></div>	none	500.0	test	n/a	n/a	n/a	n/a	n/a	n/a	n/a	n/a	n/a	n/a	n/a	n/a	n/a	n/a	n/a	n/a	n/a	n/a	fixation
22660.805034500081	2750.0	n/a	860	71	2750	461.1949655	stim	stop-signal	590	1613690	0.0-25.2-1.2	beast_fmri_test	313	1611618,/,1612298,/,1612978,/,1613658,/	t,t,t,t	<img class = center src='/static/experiments/beast_fmri_test/images/T.png'></img>	89,71	2750.0	test	<img class = center src='/static/experiments/beast_fmri_test/images/redT.png'></img>	go	1250.0	1.0	2.0	go	non-target	T	89,Yellow Button	71,Green Button	1000.0	1500.0	1750.0	1250.0	1.0	n/a	1500.0	1.0	go_stim
25410.805034500081	461.1949655	n/a	860	71	2750	461.1949655	stim	stop-signal	590	1613690	0.0-25.2-1.2	beast_fmri_test	313	1611618,/,1612298,/,1612978,/,1613658,/	t,t,t,t	<img class = center src='/static/experiments/beast_fmri_test/images/T.png'></img>	89,71	2750.0	test	<img class = center src='/static/experiments/beast_fmri_test/images/redT.png'></img>	go	1250.0	1.0	2.0	go	non-target	T	89,Yellow Button	71,Green Button	1000.0	1500.0	1750.0	1250.0	1.0	n/a	1500.0	1.0	ITI
26857	500.0	n/a	-1	-1	500	0.0	fixation	poldrack-single-stim	591	1614675	0.0-25.3-0.3	beast_fmri_test	313	1614338,/	t	<div class = centerbox><div class = fixation>+</div></div>	none	500.0	test	n/a	n/a	n/a	n/a	n/a	n/a	n/a	n/a	n/a	n/a	n/a	n/a	n/a	n/a	n/a	n/a	n/a	n/a	fixation
25433.214578999905	2750.0	n/a	931	71	2750	1424.785421	stim	stop-signal	592	1617426	0.0-25.3-1.3	beast_fmri_test	313	1615018,/,1615697,/,1616378,/,1617058,/,1617738,/,1618418,/	t,t,t,t,t,t	<img class = center src='/static/experiments/beast_fmri_test/images/D.png'></img>	89,71	2750.0	test	<img class = center src='/static/experiments/beast_fmri_test/images/redD.png'></img>	go	1250.0	1.0	3.0	go	non-target	D	89,Yellow Button	71,Green Button	1000.0	1500.0	1750.0	1250.0	1.0	n/a	1500.0	1.0	go_stim
28183.214578999905	1424.785421	n/a	931	71	2750	1424.785421	stim	stop-signal	592	1617426	0.0-25.3-1.3	beast_fmri_test	313	1615018,/,1615697,/,1616378,/,1617058,/,1617738,/,1618418,/	t,t,t,t,t,t	<img class = center src='/static/experiments/beast_fmri_test/images/D.png'></img>	89,71	2750.0	test	<img class = center src='/static/experiments/beast_fmri_test/images/redD.png'></img>	go	1250.0	1.0	3.0	go	non-target	D	89,Yellow Button	71,Green Button	1000.0	1500.0	1750.0	1250.0	1.0	n/a	1500.0	1.0	ITI
31561	500.0	n/a	-1	-1	500	0.0	fixation	poldrack-single-stim	593	1619379	0.0-25.4-0.4	beast_fmri_test	313	1619098,/	t	<div class = centerbox><div class = fixation>+</div></div>	none	500.0	test	n/a	n/a	n/a	n/a	n/a	n/a	n/a	n/a	n/a	n/a	n/a	n/a	n/a	n/a	n/a	n/a	n/a	n/a	fixation
28417.436723999912	2750.0	n/a	525	71	2750	3146.563276	stim	stop-signal	594	1622132	0.0-25.4-1.4	beast_fmri_test	313	1619778,/,1620457,/,1621137,/,1621818,/,1622497,/,1623178,/,1623858,/,1624537,/,1625217,/	t,t,t,t,t,t,t,t,t	<img class = center src='/static/experiments/beast_fmri_test/images/B.png'></img>	89,71	2750.0	test	<img class = center src='/static/experiments/beast_fmri_test/images/redB.png'></img>	go	1250.0	1.0	4.0	go	non-target	B	89,Yellow Button	71,Green Button	1000.0	1500.0	1750.0	1250.0	1.0	n/a	1500.0	1.0	go_stim
31167.436723999912	3146.563276	n/a	525	71	2750	3146.563276	stim	stop-signal	594	1622132	0.0-25.4-1.4	beast_fmri_test	313	1619778,/,1620457,/,1621137,/,1621818,/,1622497,/,1623178,/,1623858,/,1624537,/,1625217,/	t,t,t,t,t,t,t,t,t	<img class = center src='/static/experiments/beast_fmri_test/images/B.png'></img>	89,71	2750.0	test	<img class = center src='/static/experiments/beast_fmri_test/images/redB.png'></img>	go	1250.0	1.0	4.0	go	non-target	B	89,Yellow Button	71,Green Button	1000.0	1500.0	1750.0	1250.0	1.0	n/a	1500.0	1.0	ITI
37984	500.0	n/a	-1	-1	500	0.0	fixation	poldrack-single-stim	595	1625802	0.0-25.5-0.5	beast_fmri_test	313	n/a	n/a	<div class = centerbox><div class = fixation>+</div></div>	none	500.0	test	n/a	n/a	n/a	n/a	n/a	n/a	n/a	n/a	n/a	n/a	n/a	n/a	n/a	n/a	n/a	n/a	n/a	n/a	fixation
37699.699862699956	2750.0	n/a	784	89	2750	285.3001373	stim	stop-signal	596	1628553	0.0-25.5-1.5	beast_fmri_test	313	1625898,/,1626577,/,1627257,/,1627937,/,1628617,/	t,t,t,t,t	<img class = center src='/static/experiments/beast_fmri_test/images/B.png'></img>	89,71	2750.0	test	<img class = center src='/static/experiments/beast_fmri_test/images/redB.png'></img>	go	1750.0	1.0	5.0	go	target	B	89,Yellow Button	71,Green Button	1000.0	1500.0	1750.0	1250.0	1.0	n/a	1000.0	1.0	go_stim
40449.699862699956	285.3001373	n/a	784	89	2750	285.3001373	stim	stop-signal	596	1628553	0.0-25.5-1.5	beast_fmri_test	313	1625898,/,1626577,/,1627257,/,1627937,/,1628617,/	t,t,t,t,t	<img class = center src='/static/experiments/beast_fmri_test/images/B.png'></img>	89,71	2750.0	test	<img class = center src='/static/experiments/beast_fmri_test/images/redB.png'></img>	go	1750.0	1.0	5.0	go	target	B	89,Yellow Button	71,Green Button	1000.0	1500.0	1750.0	1250.0	1.0	n/a	1000.0	1.0	ITI
41545	500.0	n/a	-1	-1	500	0.0	fixation	poldrack-single-stim	597	1629363	0.0-25.6-0.6	beast_fmri_test	313	1629298,/	t	<div class = centerbox><div class = fixation>+</div></div>	none	500.0	test	n/a	n/a	n/a	n/a	n/a	n/a	n/a	n/a	n/a	n/a	n/a	n/a	n/a	n/a	n/a	n/a	n/a	n/a	fixation
41489.789114739979	2750.0	n/a	908	71	2750	56.21088526	stim	stop-signal	598	1632114	0.0-25.6-1.6	beast_fmri_test	313	1629977,/,1630657,/,1631337,/,1632017,/	t,t,t,t	<img class = center src='/static/experiments/beast_fmri_test/images/P.png'></img>	89,71	2750.0	test	<img class = center src='/static/experiments/beast_fmri_test/images/redP.png'></img>	go	1250.0	1.0	6.0	go	non-target	P	89,Yellow Button	71,Green Button	1000.0	1500.0	1750.0	1250.0	1.0	n/a	1500.0	1.0	go_stim
44239.789114739979	56.21088526	n/a	908	71	2750	56.21088526	stim	stop-signal	598	1632114	0.0-25.6-1.6	beast_fmri_test	313	1629977,/,1630657,/,1631337,/,1632017,/	t,t,t,t	<img class = center src='/static/experiments/beast_fmri_test/images/P.png'></img>	89,71	2750.0	test	<img class = center src='/static/experiments/beast_fmri_test/images/redP.png'></img>	go	1250.0	1.0	6.0	go	non-target	P	89,Yellow Button	71,Green Button	1000.0	1500.0	1750.0	1250.0	1.0	n/a	1500.0	1.0	ITI
44877	500.0	n/a	-1	-1	500	0.0	fixation	poldrack-single-stim	599	1632695	0.0-25.7-0.7	beast_fmri_test	313	n/a	n/a	<div class = centerbox><div class = fixation>+</div></div>	none	500.0	test	n/a	n/a	n/a	n/a	n/a	n/a	n/a	n/a	n/a	n/a	n/a	n/a	n/a	n/a	n/a	n/a	n/a	n/a	fixation
43984.782303699991	2750.0	n/a	791	71	2750	894.2176963	stim	stop-signal	600	1635447	0.0-25.7-1.7	beast_fmri_test	313	1632698,/,1633377,/,1634057,/,1634737,/,1635417,/,1636098,/	t,t,t,t,t,t	<img class = center src='/static/experiments/beast_fmri_test/images/T.png'></img>	89,71	2750.0	test	<img class = center src='/static/experiments/beast_fmri_test/images/redT.png'></img>	go	1250.0	1.0	7.0	go	non-target	T	89,Yellow Button	71,Green Button	1000.0	1500.0	1750.0	1250.0	1.0	n/a	1500.0	1.0	go_stim
46734.782303699991	894.2176963	n/a	791	71	2750	894.2176963	stim	stop-signal	600	1635447	0.0-25.7-1.7	beast_fmri_test	313	1632698,/,1633377,/,1634057,/,1634737,/,1635417,/,1636098,/	t,t,t,t,t,t	<img class = center src='/static/experiments/beast_fmri_test/images/T.png'></img>	89,71	2750.0	test	<img class = center src='/static/experiments/beast_fmri_test/images/redT.png'></img>	go	1250.0	1.0	7.0	go	non-target	T	89,Yellow Button	71,Green Button	1000.0	1500.0	1750.0	1250.0	1.0	n/a	1500.0	1.0	ITI
49046	500.0	n/a	-1	-1	500	0.0	fixation	poldrack-single-stim	601	1636864	0.0-25.8-0.8	beast_fmri_test	313	1636777,/	t	<div class = centerbox><div class = fixation>+</div></div>	none	500.0	test	n/a	n/a	n/a	n/a	n/a	n/a	n/a	n/a	n/a	n/a	n/a	n/a	n/a	n/a	n/a	n/a	n/a	n/a	fixation
48377.602708500111	1500.0	n/a	664	71	2750	669.3972915	stim	stop-signal	602	1639615	0.0-25.8-1.8	beast_fmri_test	313	1637457,/,1638137,/,1638817,/,1639497,/,1640177,/	t,t,t,t,t	<img class = center src='/static/experiments/beast_fmri_test/images/V.png'></img>	89,71	2750.0	test	<img class = center src='/static/experiments/beast_fmri_test/images/redV.png'></img>	stop	1250.0	1.0	8.0	stop	non-target	V	89,Yellow Button	71,Green Button	1000.0	1500.0	1750.0	1250.0	0.0	0.0	1500.0	1.0	go_stim
49627.602708500111	1250.0	n/a	664	71	2750	669.3972915	stim	stop-signal	602	1639615	0.0-25.8-1.8	beast_fmri_test	313	1637457,/,1638137,/,1638817,/,1639497,/,1640177,/	t,t,t,t,t	<img class = center src='/static/experiments/beast_fmri_test/images/V.png'></img>	89,71	2750.0	test	<img class = center src='/static/experiments/beast_fmri_test/images/redV.png'></img>	stop	1250.0	1.0	8.0	stop	non-target	V	89,Yellow Button	71,Green Button	1000.0	1500.0	1750.0	1250.0	0.0	0.0	1500.0	1.0	stop_stim
51127.602708500111	669.3972915	n/a	664	71	2750	669.3972915	stim	stop-signal	602	1639615	0.0-25.8-1.8	beast_fmri_test	313	1637457,/,1638137,/,1638817,/,1639497,/,1640177,/	t,t,t,t,t	<img class = center src='/static/experiments/beast_fmri_test/images/V.png'></img>	89,71	2750.0	test	<img class = center src='/static/experiments/beast_fmri_test/images/redV.png'></img>	stop	1250.0	1.0	8.0	stop	non-target	V	89,Yellow Button	71,Green Button	1000.0	1500.0	1750.0	1250.0	0.0	0.0	1500.0	1.0	ITI
52989	500.0	n/a	-1	-1	500	0.0	fixation	poldrack-single-stim	603	1640807	0.0-25.9-0.9	beast_fmri_test	313	n/a	n/a	<div class = centerbox><div class = fixation>+</div></div>	none	500.0	test	n/a	n/a	n/a	n/a	n/a	n/a	n/a	n/a	n/a	n/a	n/a	n/a	n/a	n/a	n/a	n/a	n/a	n/a	fixation
51030.357288999949	2750.0	n/a	971	89	2750	1960.642711	stim	stop-signal	604	1643559	0.0-25.9-1.9	beast_fmri_test	313	1640857,/,1641537,/,1642217,/,1642897,/,1643578,/,1644257,/,1644937,/	t,t,t,t,t,t,t	<img class = center src='/static/experiments/beast_fmri_test/images/V.png'></img>	89,71	2750.0	test	<img class = center src='/static/experiments/beast_fmri_test/images/redV.png'></img>	go	1750.0	1.0	9.0	go	target	V	89,Yellow Button	71,Green Button	1000.0	1450.0	1750.0	1250.0	1.0	n/a	1000.0	1.0	go_stim
53780.357288999949	1960.642711	n/a	971	89	2750	1960.642711	stim	stop-signal	604	1643559	0.0-25.9-1.9	beast_fmri_test	313	1640857,/,1641537,/,1642217,/,1642897,/,1643578,/,1644257,/,1644937,/	t,t,t,t,t,t,t	<img class = center src='/static/experiments/beast_fmri_test/images/V.png'></img>	89,71	2750.0	test	<img class = center src='/static/experiments/beast_fmri_test/images/redV.png'></img>	go	1750.0	1.0	9.0	go	target	V	89,Yellow Button	71,Green Button	1000.0	1450.0	1750.0	1250.0	1.0	n/a	1000.0	1.0	ITI
58225	500.0	n/a	-1	-1	500	0.0	fixation	poldrack-single-stim	605	1646043	0.0-25.10-0.10	beast_fmri_test	313	1645618,/	t	<div class = centerbox><div class = fixation>+</div></div>	none	500.0	test	n/a	n/a	n/a	n/a	n/a	n/a	n/a	n/a	n/a	n/a	n/a	n/a	n/a	n/a	n/a	n/a	n/a	n/a	fixation
58027.168746300042	2750.0	n/a	635	71	2750	198.8312537	stim	stop-signal	606	1648794	0.0-25.10-1.10	beast_fmri_test	313	1646298,/,1646977,/,1647657,/,1648337,/	t,t,t,t	<img class = center src='/static/experiments/beast_fmri_test/images/T.png'></img>	89,71	2750.0	test	<img class = center src='/static/experiments/beast_fmri_test/images/redT.png'></img>	go	1300.0	1.0	10.0	go	non-target	T	89,Yellow Button	71,Green Button	1000.0	1450.0	1750.0	1300.0	1.0	n/a	1450.0	1.0	go_stim
60777.168746300042	198.8312537	n/a	635	71	2750	198.8312537	stim	stop-signal	606	1648794	0.0-25.10-1.10	beast_fmri_test	313	1646298,/,1646977,/,1647657,/,1648337,/	t,t,t,t	<img class = center src='/static/experiments/beast_fmri_test/images/T.png'></img>	89,71	2750.0	test	<img class = center src='/static/experiments/beast_fmri_test/images/redT.png'></img>	go	1300.0	1.0	10.0	go	non-target	T	89,Yellow Button	71,Green Button	1000.0	1450.0	1750.0	1300.0	1.0	n/a	1450.0	1.0	ITI
61698	500.0	n/a	-1	-1	500	0.0	fixation	poldrack-single-stim	607	1649516	0.0-25.11-0.11	beast_fmri_test	313	1649017,/	t	<div class = centerbox><div class = fixation>+</div></div>	none	500.0	test	n/a	n/a	n/a	n/a	n/a	n/a	n/a	n/a	n/a	n/a	n/a	n/a	n/a	n/a	n/a	n/a	n/a	n/a	fixation
59805.340747999959	2750.0	n/a	609	71	2750	1894.659252	stim	stop-signal	608	1652268	0.0-25.11-1.11	beast_fmri_test	313	1649698,/,1650378,/,1651058,/,1651738,/,1652417,/,1653097,/,1653778,/	t,t,t,t,t,t,t	<img class = center src='/static/experiments/beast_fmri_test/images/P.png'></img>	89,71	2750.0	test	<img class = center src='/static/experiments/beast_fmri_test/images/redP.png'></img>	go	1300.0	1.0	11.0	go	non-target	P	89,Yellow Button	71,Green Button	1000.0	1450.0	1750.0	1300.0	1.0	n/a	1450.0	1.0	go_stim
62555.340747999959	1894.659252	n/a	609	71	2750	1894.659252	stim	stop-signal	608	1652268	0.0-25.11-1.11	beast_fmri_test	313	1649698,/,1650378,/,1651058,/,1651738,/,1652417,/,1653097,/,1653778,/	t,t,t,t,t,t,t	<img class = center src='/static/experiments/beast_fmri_test/images/P.png'></img>	89,71	2750.0	test	<img class = center src='/static/experiments/beast_fmri_test/images/redP.png'></img>	go	1300.0	1.0	11.0	go	non-target	P	89,Yellow Button	71,Green Button	1000.0	1450.0	1750.0	1300.0	1.0	n/a	1450.0	1.0	ITI
66864	500.0	n/a	-1	-1	500	0.0	fixation	poldrack-single-stim	609	1654682	0.0-25.12-0.12	beast_fmri_test	313	1654457,/	t	<div class = centerbox><div class = fixation>+</div></div>	none	500.0	test	n/a	n/a	n/a	n/a	n/a	n/a	n/a	n/a	n/a	n/a	n/a	n/a	n/a	n/a	n/a	n/a	n/a	n/a	fixation
66443.616511299973	1000.0	n/a	450	89	2750	422.3834887	stim	stop-signal	610	1657434	0.0-25.12-1.12	beast_fmri_test	313	1655138,/,1655817,/,1656498,/,1657177,/,1657857,/	t,t,t,t,t	<img class = center src='/static/experiments/beast_fmri_test/images/P.png'></img>	89,71	2750.0	test	<img class = center src='/static/experiments/beast_fmri_test/images/redP.png'></img>	stop	1750.0	1.0	12.0	stop	target	P	89,Yellow Button	71,Green Button	1000.0	1450.0	1750.0	1300.0	0.0	0.0	1000.0	1.0	go_stim
68193.616511299973	1750.0	n/a	450	89	2750	422.3834887	stim	stop-signal	610	1657434	0.0-25.12-1.12	beast_fmri_test	313	1655138,/,1655817,/,1656498,/,1657177,/,1657857,/	t,t,t,t,t	<img class = center src='/static/experiments/beast_fmri_test/images/P.png'></img>	89,71	2750.0	test	<img class = center src='/static/experiments/beast_fmri_test/images/redP.png'></img>	stop	1750.0	1.0	12.0	stop	target	P	89,Yellow Button	71,Green Button	1000.0	1450.0	1750.0	1300.0	0.0	0.0	1000.0	1.0	stop_stim
69193.616511299973	422.3834887	n/a	450	89	2750	422.3834887	stim	stop-signal	610	1657434	0.0-25.12-1.12	beast_fmri_test	313	1655138,/,1655817,/,1656498,/,1657177,/,1657857,/	t,t,t,t,t	<img class = center src='/static/experiments/beast_fmri_test/images/P.png'></img>	89,71	2750.0	test	<img class = center src='/static/experiments/beast_fmri_test/images/redP.png'></img>	stop	1750.0	1.0	12.0	stop	target	P	89,Yellow Button	71,Green Button	1000.0	1450.0	1750.0	1300.0	0.0	0.0	1000.0	1.0	ITI
70560	500.0	n/a	-1	-1	500	0.0	fixation	poldrack-single-stim	611	1658378	0.0-25.13-0.13	beast_fmri_test	313	n/a	n/a	<div class = centerbox><div class = fixation>+</div></div>	none	500.0	test	n/a	n/a	n/a	n/a	n/a	n/a	n/a	n/a	n/a	n/a	n/a	n/a	n/a	n/a	n/a	n/a	n/a	n/a	fixation
69892.900790299987	1450.0	n/a	1480	71	2750	669.0992097	stim	stop-signal	612	1661130	0.0-25.13-1.13	beast_fmri_test	313	1658537,/,1659218,/,1659897,/,1660577,/,1661257,/	t,t,t,t,t	<img class = center src='/static/experiments/beast_fmri_test/images/T.png'></img>	89,71	2750.0	test	<img class = center src='/static/experiments/beast_fmri_test/images/redT.png'></img>	stop	1300.0	1.0	13.0	stop	non-target	T	89,Yellow Button	71,Green Button	950.0	1450.0	1750.0	1300.0	0.0	0.0	1450.0	1.0	go_stim
71192.900790299987	1300.0	n/a	1480	71	2750	669.0992097	stim	stop-signal	612	1661130	0.0-25.13-1.13	beast_fmri_test	313	1658537,/,1659218,/,1659897,/,1660577,/,1661257,/	t,t,t,t,t	<img class = center src='/static/experiments/beast_fmri_test/images/T.png'></img>	89,71	2750.0	test	<img class = center src='/static/experiments/beast_fmri_test/images/redT.png'></img>	stop	1300.0	1.0	13.0	stop	non-target	T	89,Yellow Button	71,Green Button	950.0	1450.0	1750.0	1300.0	0.0	0.0	1450.0	1.0	stop_stim
72642.900790299987	669.0992097	n/a	1480	71	2750	669.0992097	stim	stop-signal	612	1661130	0.0-25.13-1.13	beast_fmri_test	313	1658537,/,1659218,/,1659897,/,1660577,/,1661257,/	t,t,t,t,t	<img class = center src='/static/experiments/beast_fmri_test/images/T.png'></img>	89,71	2750.0	test	<img class = center src='/static/experiments/beast_fmri_test/images/redT.png'></img>	stop	1300.0	1.0	13.0	stop	non-target	T	89,Yellow Button	71,Green Button	950.0	1450.0	1750.0	1300.0	0.0	0.0	1450.0	1.0	ITI
74506	500.0	n/a	-1	-1	500	0.0	fixation	poldrack-single-stim	613	1662324	0.0-25.14-0.14	beast_fmri_test	313	1661937,/	t	<div class = centerbox><div class = fixation>+</div></div>	none	500.0	test	n/a	n/a	n/a	n/a	n/a	n/a	n/a	n/a	n/a	n/a	n/a	n/a	n/a	n/a	n/a	n/a	n/a	n/a	fixation
74200.138617600081	2750.0	n/a	1115	71	2750	308.8613824	stim	stop-signal	614	1665077	0.0-25.14-1.14	beast_fmri_test	313	1662617,/,1663297,/,1663977,/,1664657,/,1665337,/	t,t,t,t,t	<img class = center src='/static/experiments/beast_fmri_test/images/P.png'></img>	89,71	2750.0	test	<img class = center src='/static/experiments/beast_fmri_test/images/redP.png'></img>	go	1350.0	1.0	14.0	go	non-target	P	89,Yellow Button	71,Green Button	950.0	1400.0	1750.0	1350.0	1.0	n/a	1400.0	1.0	go_stim
76950.138617600081	308.8613824	n/a	1115	71	2750	308.8613824	stim	stop-signal	614	1665077	0.0-25.14-1.14	beast_fmri_test	313	1662617,/,1663297,/,1663977,/,1664657,/,1665337,/	t,t,t,t,t	<img class = center src='/static/experiments/beast_fmri_test/images/P.png'></img>	89,71	2750.0	test	<img class = center src='/static/experiments/beast_fmri_test/images/redP.png'></img>	go	1350.0	1.0	14.0	go	non-target	P	89,Yellow Button	71,Green Button	950.0	1400.0	1750.0	1350.0	1.0	n/a	1400.0	1.0	ITI
78091	500.0	n/a	-1	-1	500	0.0	fixation	poldrack-single-stim	615	1665909	0.0-25.15-0.15	beast_fmri_test	313	n/a	n/a	<div class = centerbox><div class = fixation>+</div></div>	none	500.0	test	n/a	n/a	n/a	n/a	n/a	n/a	n/a	n/a	n/a	n/a	n/a	n/a	n/a	n/a	n/a	n/a	n/a	n/a	fixation
76673.251495999983	2750.0	n/a	842	89	2750	1419.748504	stim	stop-signal	616	1668661	0.0-25.15-1.15	beast_fmri_test	313	1666018,/,1666698,/,1667377,/,1668057,/,1668737,/,1669417,/	t,t,t,t,t,t	<img class = center src='/static/experiments/beast_fmri_test/images/P.png'></img>	89,71	2750.0	test	<img class = center src='/static/experiments/beast_fmri_test/images/redP.png'></img>	go	1800.0	1.0	15.0	go	target	P	89,Yellow Button	71,Green Button	950.0	1400.0	1800.0	1350.0	1.0	n/a	950.0	1.0	go_stim
79423.251495999983	1419.748504	n/a	842	89	2750	1419.748504	stim	stop-signal	616	1668661	0.0-25.15-1.15	beast_fmri_test	313	1666018,/,1666698,/,1667377,/,1668057,/,1668737,/,1669417,/	t,t,t,t,t,t	<img class = center src='/static/experiments/beast_fmri_test/images/P.png'></img>	89,71	2750.0	test	<img class = center src='/static/experiments/beast_fmri_test/images/redP.png'></img>	go	1800.0	1.0	15.0	go	target	P	89,Yellow Button	71,Green Button	950.0	1400.0	1800.0	1350.0	1.0	n/a	950.0	1.0	ITI
82787	500.0	n/a	-1	-1	500	0.0	fixation	poldrack-single-stim	617	1670605	0.0-25.16-0.16	beast_fmri_test	313	1670104,/	t	<div class = centerbox><div class = fixation>+</div></div>	none	500.0	test	n/a	n/a	n/a	n/a	n/a	n/a	n/a	n/a	n/a	n/a	n/a	n/a	n/a	n/a	n/a	n/a	n/a	n/a	fixation
82287.531126700109	950.0	n/a	852	89	2750	500.4688733	stim	stop-signal	618	1673356	0.0-25.16-1.16	beast_fmri_test	313	1670777,/,1671457,/,1672137,/,1672817,/,1673497,/	t,t,t,t,t	<img class = center src='/static/experiments/beast_fmri_test/images/P.png'></img>	89,71	2750.0	test	<img class = center src='/static/experiments/beast_fmri_test/images/redP.png'></img>	stop	1800.0	1.0	16.0	stop	target	P	89,Yellow Button	71,Green Button	950.0	1400.0	1800.0	1350.0	0.0	0.0	950.0	1.0	go_stim
84087.531126700109	1800.0	n/a	852	89	2750	500.4688733	stim	stop-signal	618	1673356	0.0-25.16-1.16	beast_fmri_test	313	1670777,/,1671457,/,1672137,/,1672817,/,1673497,/	t,t,t,t,t	<img class = center src='/static/experiments/beast_fmri_test/images/P.png'></img>	89,71	2750.0	test	<img class = center src='/static/experiments/beast_fmri_test/images/redP.png'></img>	stop	1800.0	1.0	16.0	stop	target	P	89,Yellow Button	71,Green Button	950.0	1400.0	1800.0	1350.0	0.0	0.0	950.0	1.0	stop_stim
85037.531126700109	500.4688733	n/a	852	89	2750	500.4688733	stim	stop-signal	618	1673356	0.0-25.16-1.16	beast_fmri_test	313	1670777,/,1671457,/,1672137,/,1672817,/,1673497,/	t,t,t,t,t	<img class = center src='/static/experiments/beast_fmri_test/images/P.png'></img>	89,71	2750.0	test	<img class = center src='/static/experiments/beast_fmri_test/images/redP.png'></img>	stop	1800.0	1.0	16.0	stop	target	P	89,Yellow Button	71,Green Button	950.0	1400.0	1800.0	1350.0	0.0	0.0	950.0	1.0	ITI
86567	500.0	n/a	-1	-1	500	0.0	fixation	poldrack-single-stim	619	1674385	0.0-25.17-0.17	beast_fmri_test	313	1674177,/	t	<div class = centerbox><div class = fixation>+</div></div>	none	500.0	test	n/a	n/a	n/a	n/a	n/a	n/a	n/a	n/a	n/a	n/a	n/a	n/a	n/a	n/a	n/a	n/a	n/a	n/a	fixation
86190.907917999895	2750.0	n/a	1093	71	2750	378.092082	stim	stop-signal	620	1677137	0.0-25.17-1.17	beast_fmri_test	313	1674857,/,1675537,/,1676217,/,1676897,/	t,t,t,t	<img class = center src='/static/experiments/beast_fmri_test/images/D.png'></img>	89,71	2750.0	test	<img class = center src='/static/experiments/beast_fmri_test/images/redD.png'></img>	go	1350.0	1.0	17.0	go	non-target	D	89,Yellow Button	71,Green Button	900.0	1400.0	1800.0	1350.0	1.0	n/a	1400.0	1.0	go_stim
88940.907917999895	378.092082	n/a	1093	71	2750	378.092082	stim	stop-signal	620	1677137	0.0-25.17-1.17	beast_fmri_test	313	1674857,/,1675537,/,1676217,/,1676897,/	t,t,t,t	<img class = center src='/static/experiments/beast_fmri_test/images/D.png'></img>	89,71	2750.0	test	<img class = center src='/static/experiments/beast_fmri_test/images/redD.png'></img>	go	1350.0	1.0	17.0	go	non-target	D	89,Yellow Button	71,Green Button	900.0	1400.0	1800.0	1350.0	1.0	n/a	1400.0	1.0	ITI
90220	500.0	n/a	-1	-1	500	0.0	fixation	poldrack-single-stim	621	1678038	0.0-25.18-0.18	beast_fmri_test	313	1677577,/	t	<div class = centerbox><div class = fixation>+</div></div>	none	500.0	test	n/a	n/a	n/a	n/a	n/a	n/a	n/a	n/a	n/a	n/a	n/a	n/a	n/a	n/a	n/a	n/a	n/a	n/a	fixation
89364.610688599991	2750.0	n/a	1263	71	2750	857.3893114	stim	stop-signal	622	1680790	0.0-25.18-1.18	beast_fmri_test	313	1678257,/,1678937,/,1679618,/,1680298,/,1680977,/	t,t,t,t,t	<img class = center src='/static/experiments/beast_fmri_test/images/B.png'></img>	89,71	2750.0	test	<img class = center src='/static/experiments/beast_fmri_test/images/redB.png'></img>	go	1350.0	1.0	18.0	go	non-target	B	89,Yellow Button	71,Green Button	900.0	1400.0	1800.0	1350.0	1.0	n/a	1400.0	1.0	go_stim
92114.610688599991	857.3893114	n/a	1263	71	2750	857.3893114	stim	stop-signal	622	1680790	0.0-25.18-1.18	beast_fmri_test	313	1678257,/,1678937,/,1679618,/,1680298,/,1680977,/	t,t,t,t,t	<img class = center src='/static/experiments/beast_fmri_test/images/B.png'></img>	89,71	2750.0	test	<img class = center src='/static/experiments/beast_fmri_test/images/redB.png'></img>	go	1350.0	1.0	18.0	go	non-target	B	89,Yellow Button	71,Green Button	900.0	1400.0	1800.0	1350.0	1.0	n/a	1400.0	1.0	ITI
94353	500.0	n/a	-1	-1	500	0.0	fixation	poldrack-single-stim	623	1682171	0.0-25.19-0.19	beast_fmri_test	313	1681670,/	t	<div class = centerbox><div class = fixation>+</div></div>	none	500.0	test	n/a	n/a	n/a	n/a	n/a	n/a	n/a	n/a	n/a	n/a	n/a	n/a	n/a	n/a	n/a	n/a	n/a	n/a	fixation
94099.753648400074	1400.0	n/a	953	71	2750	254.2463516	stim	stop-signal	624	1684922	0.0-25.19-1.19	beast_fmri_test	313	1682338,/,1683018,/,1683697,/,1684378,/,1685057,/	t,t,t,t,t	<img class = center src='/static/experiments/beast_fmri_test/images/D.png'></img>	89,71	2750.0	test	<img class = center src='/static/experiments/beast_fmri_test/images/redD.png'></img>	stop	1350.0	1.0	19.0	stop	non-target	D	89,Yellow Button	71,Green Button	900.0	1400.0	1800.0	1350.0	0.0	0.0	1400.0	1.0	go_stim
95449.753648400074	1350.0	n/a	953	71	2750	254.2463516	stim	stop-signal	624	1684922	0.0-25.19-1.19	beast_fmri_test	313	1682338,/,1683018,/,1683697,/,1684378,/,1685057,/	t,t,t,t,t	<img class = center src='/static/experiments/beast_fmri_test/images/D.png'></img>	89,71	2750.0	test	<img class = center src='/static/experiments/beast_fmri_test/images/redD.png'></img>	stop	1350.0	1.0	19.0	stop	non-target	D	89,Yellow Button	71,Green Button	900.0	1400.0	1800.0	1350.0	0.0	0.0	1400.0	1.0	stop_stim
96849.753648400074	254.2463516	n/a	953	71	2750	254.2463516	stim	stop-signal	624	1684922	0.0-25.19-1.19	beast_fmri_test	313	1682338,/,1683018,/,1683697,/,1684378,/,1685057,/	t,t,t,t,t	<img class = center src='/static/experiments/beast_fmri_test/images/D.png'></img>	89,71	2750.0	test	<img class = center src='/static/experiments/beast_fmri_test/images/redD.png'></img>	stop	1350.0	1.0	19.0	stop	non-target	D	89,Yellow Button	71,Green Button	900.0	1400.0	1800.0	1350.0	0.0	0.0	1400.0	1.0	ITI
97889	500.0	n/a	-1	-1	500	0.0	fixation	poldrack-single-stim	625	1685707	0.0-25.20-0.20	beast_fmri_test	313	n/a	n/a	<div class = centerbox><div class = fixation>+</div></div>	none	500.0	test	n/a	n/a	n/a	n/a	n/a	n/a	n/a	n/a	n/a	n/a	n/a	n/a	n/a	n/a	n/a	n/a	n/a	n/a	fixation
97308.359962000046	1350.0	n/a	1217	71	2750	581.640038	stim	stop-signal	626	1688458	0.0-25.20-1.20	beast_fmri_test	313	1685738,/,1686418,/,1687098,/,1687777,/,1688458,/	t,t,t,t,t	<img class = center src='/static/experiments/beast_fmri_test/images/P.png'></img>	89,71	2750.0	test	<img class = center src='/static/experiments/beast_fmri_test/images/redP.png'></img>	stop	1400.0	1.0	20.0	stop	non-target	P	89,Yellow Button	71,Green Button	900.0	1350.0	1800.0	1400.0	0.0	0.0	1350.0	1.0	go_stim
98708.359962000046	1400.0	n/a	1217	71	2750	581.640038	stim	stop-signal	626	1688458	0.0-25.20-1.20	beast_fmri_test	313	1685738,/,1686418,/,1687098,/,1687777,/,1688458,/	t,t,t,t,t	<img class = center src='/static/experiments/beast_fmri_test/images/P.png'></img>	89,71	2750.0	test	<img class = center src='/static/experiments/beast_fmri_test/images/redP.png'></img>	stop	1400.0	1.0	20.0	stop	non-target	P	89,Yellow Button	71,Green Button	900.0	1350.0	1800.0	1400.0	0.0	0.0	1350.0	1.0	stop_stim
100058.35996200005	581.640038	n/a	1217	71	2750	581.640038	stim	stop-signal	626	1688458	0.0-25.20-1.20	beast_fmri_test	313	1685738,/,1686418,/,1687098,/,1687777,/,1688458,/	t,t,t,t,t	<img class = center src='/static/experiments/beast_fmri_test/images/P.png'></img>	89,71	2750.0	test	<img class = center src='/static/experiments/beast_fmri_test/images/redP.png'></img>	stop	1400.0	1.0	20.0	stop	non-target	P	89,Yellow Button	71,Green Button	900.0	1350.0	1800.0	1400.0	0.0	0.0	1350.0	1.0	ITI
101747	500.0	n/a	-1	-1	500	0.0	fixation	poldrack-single-stim	627	1689565	0.0-25.21-0.21	beast_fmri_test	313	1689138,/	t	<div class = centerbox><div class = fixation>+</div></div>	none	500.0	test	n/a	n/a	n/a	n/a	n/a	n/a	n/a	n/a	n/a	n/a	n/a	n/a	n/a	n/a	n/a	n/a	n/a	n/a	fixation
101351.14747780003	900.0	n/a	-1	-1	2750	397.8525222	stim	stop-signal	628	1692317	0.0-25.21-1.21	beast_fmri_test	313	1689817,/,1690498,/,1691177,/,1691858,/,1692538,/	t,t,t,t,t	<img class = center src='/static/experiments/beast_fmri_test/images/P.png'></img>	89,71	2750.0	test	<img class = center src='/static/experiments/beast_fmri_test/images/redP.png'></img>	stop	1850.0	1.0	21.0	stop	target	P	89,Yellow Button	71,Green Button	900.0	1300.0	1850.0	1400.0	0.0	1.0	900.0	0.0	go_stim
103201.14747780003	1850.0	n/a	-1	-1	2750	397.8525222	stim	stop-signal	628	1692317	0.0-25.21-1.21	beast_fmri_test	313	1689817,/,1690498,/,1691177,/,1691858,/,1692538,/	t,t,t,t,t	<img class = center src='/static/experiments/beast_fmri_test/images/P.png'></img>	89,71	2750.0	test	<img class = center src='/static/experiments/beast_fmri_test/images/redP.png'></img>	stop	1850.0	1.0	21.0	stop	target	P	89,Yellow Button	71,Green Button	900.0	1300.0	1850.0	1400.0	0.0	1.0	900.0	0.0	stop_stim
104101.14747780003	397.8525222	n/a	-1	-1	2750	397.8525222	stim	stop-signal	628	1692317	0.0-25.21-1.21	beast_fmri_test	313	1689817,/,1690498,/,1691177,/,1691858,/,1692538,/	t,t,t,t,t	<img class = center src='/static/experiments/beast_fmri_test/images/P.png'></img>	89,71	2750.0	test	<img class = center src='/static/experiments/beast_fmri_test/images/redP.png'></img>	stop	1850.0	1.0	21.0	stop	target	P	89,Yellow Button	71,Green Button	900.0	1300.0	1850.0	1400.0	0.0	1.0	900.0	0.0	ITI
105420	500.0	n/a	-1	-1	500	0.0	fixation	poldrack-single-stim	629	1693238	0.0-25.22-0.22	beast_fmri_test	313	1693217,/	t	<div class = centerbox><div class = fixation>+</div></div>	none	500.0	test	n/a	n/a	n/a	n/a	n/a	n/a	n/a	n/a	n/a	n/a	n/a	n/a	n/a	n/a	n/a	n/a	n/a	n/a	fixation
105295.3507981	1300.0	n/a	1006	71	2750	126.6492019	stim	stop-signal	630	1695990	0.0-25.22-1.22	beast_fmri_test	313	1693897,/,1694577,/,1695257,/,1695937,/	t,t,t,t	<img class = center src='/static/experiments/beast_fmri_test/images/V.png'></img>	89,71	2750.0	test	<img class = center src='/static/experiments/beast_fmri_test/images/redV.png'></img>	stop	1450.0	1.0	22.0	stop	non-target	V	89,Yellow Button	71,Green Button	950.0	1300.0	1850.0	1450.0	0.0	0.0	1300.0	1.0	go_stim
106745.3507981	1450.0	n/a	1006	71	2750	126.6492019	stim	stop-signal	630	1695990	0.0-25.22-1.22	beast_fmri_test	313	1693897,/,1694577,/,1695257,/,1695937,/	t,t,t,t	<img class = center src='/static/experiments/beast_fmri_test/images/V.png'></img>	89,71	2750.0	test	<img class = center src='/static/experiments/beast_fmri_test/images/redV.png'></img>	stop	1450.0	1.0	22.0	stop	non-target	V	89,Yellow Button	71,Green Button	950.0	1300.0	1850.0	1450.0	0.0	0.0	1300.0	1.0	stop_stim
108045.3507981	126.6492019	n/a	1006	71	2750	126.6492019	stim	stop-signal	630	1695990	0.0-25.22-1.22	beast_fmri_test	313	1693897,/,1694577,/,1695257,/,1695937,/	t,t,t,t	<img class = center src='/static/experiments/beast_fmri_test/images/V.png'></img>	89,71	2750.0	test	<img class = center src='/static/experiments/beast_fmri_test/images/redV.png'></img>	stop	1450.0	1.0	22.0	stop	non-target	V	89,Yellow Button	71,Green Button	950.0	1300.0	1850.0	1450.0	0.0	0.0	1300.0	1.0	ITI
108824	500.0	n/a	-1	-1	500	0.0	fixation	poldrack-single-stim	631	1696642	0.0-25.23-0.23	beast_fmri_test	313	1696617,/	t	<div class = centerbox><div class = fixation>+</div></div>	none	500.0	test	n/a	n/a	n/a	n/a	n/a	n/a	n/a	n/a	n/a	n/a	n/a	n/a	n/a	n/a	n/a	n/a	n/a	n/a	fixation
108552.45938570006	2750.0	n/a	989	71	2750	272.5406143	stim	stop-signal	632	1699393	0.0-25.23-1.23	beast_fmri_test	313	1697298,/,1697977,/,1698657,/,1699337,/	t,t,t,t	<img class = center src='/static/experiments/beast_fmri_test/images/B.png'></img>	89,71	2750.0	test	<img class = center src='/static/experiments/beast_fmri_test/images/redB.png'></img>	go	1500.0	1.0	23.0	go	non-target	B	89,Yellow Button	71,Green Button	950.0	1250.0	1850.0	1500.0	1.0	n/a	1250.0	1.0	go_stim
111302.45938570006	272.5406143	n/a	989	71	2750	272.5406143	stim	stop-signal	632	1699393	0.0-25.23-1.23	beast_fmri_test	313	1697298,/,1697977,/,1698657,/,1699337,/	t,t,t,t	<img class = center src='/static/experiments/beast_fmri_test/images/B.png'></img>	89,71	2750.0	test	<img class = center src='/static/experiments/beast_fmri_test/images/redB.png'></img>	go	1500.0	1.0	23.0	go	non-target	B	89,Yellow Button	71,Green Button	950.0	1250.0	1850.0	1500.0	1.0	n/a	1250.0	1.0	ITI
112370	500.0	n/a	-1	-1	500	0.0	fixation	poldrack-single-stim	633	1700188	0.0-25.24-0.24	beast_fmri_test	313	1700017,/	t	<div class = centerbox><div class = fixation>+</div></div>	none	500.0	test	n/a	n/a	n/a	n/a	n/a	n/a	n/a	n/a	n/a	n/a	n/a	n/a	n/a	n/a	n/a	n/a	n/a	n/a	fixation
112235.00139839994	2750.0	n/a	1183	89	2750	136.9986016	stim	stop-signal	634	1702940	0.0-25.24-1.24	beast_fmri_test	313	1700697,/,1701377,/,1702057,/,1702737,/	t,t,t,t	<img class = center src='/static/experiments/beast_fmri_test/images/B.png'></img>	89,71	2750.0	test	<img class = center src='/static/experiments/beast_fmri_test/images/redB.png'></img>	go	1800.0	1.0	24.0	go	target	B	89,Yellow Button	71,Green Button	950.0	1250.0	1800.0	1500.0	1.0	n/a	950.0	1.0	go_stim
114985.00139839994	136.9986016	n/a	1183	89	2750	136.9986016	stim	stop-signal	634	1702940	0.0-25.24-1.24	beast_fmri_test	313	1700697,/,1701377,/,1702057,/,1702737,/	t,t,t,t	<img class = center src='/static/experiments/beast_fmri_test/images/B.png'></img>	89,71	2750.0	test	<img class = center src='/static/experiments/beast_fmri_test/images/redB.png'></img>	go	1800.0	1.0	24.0	go	target	B	89,Yellow Button	71,Green Button	950.0	1250.0	1800.0	1500.0	1.0	n/a	950.0	1.0	ITI
115783	500.0	n/a	-1	-1	500	0.0	fixation	poldrack-single-stim	635	1703601	0.0-25.25-0.25	beast_fmri_test	313	1703418,/	t	<div class = centerbox><div class = fixation>+</div></div>	none	500.0	test	n/a	n/a	n/a	n/a	n/a	n/a	n/a	n/a	n/a	n/a	n/a	n/a	n/a	n/a	n/a	n/a	n/a	n/a	fixation
115542.30510729994	1250.0	n/a	-1	-1	2750	242.6948927	stim	stop-signal	636	1706353	0.0-25.25-1.25	beast_fmri_test	313	1704097,/,1704777,/,1705457,/,1706137,/	t,t,t,t	<img class = center src='/static/experiments/beast_fmri_test/images/T.png'></img>	89,71	2750.0	test	<img class = center src='/static/experiments/beast_fmri_test/images/redT.png'></img>	stop	1500.0	1.0	25.0	stop	non-target	T	89,Yellow Button	71,Green Button	950.0	1250.0	1800.0	1500.0	0.0	1.0	1250.0	0.0	go_stim
117042.30510729994	1500.0	n/a	-1	-1	2750	242.6948927	stim	stop-signal	636	1706353	0.0-25.25-1.25	beast_fmri_test	313	1704097,/,1704777,/,1705457,/,1706137,/	t,t,t,t	<img class = center src='/static/experiments/beast_fmri_test/images/T.png'></img>	89,71	2750.0	test	<img class = center src='/static/experiments/beast_fmri_test/images/redT.png'></img>	stop	1500.0	1.0	25.0	stop	non-target	T	89,Yellow Button	71,Green Button	950.0	1250.0	1800.0	1500.0	0.0	1.0	1250.0	0.0	stop_stim
118292.30510729994	242.6948927	n/a	-1	-1	2750	242.6948927	stim	stop-signal	636	1706353	0.0-25.25-1.25	beast_fmri_test	313	1704097,/,1704777,/,1705457,/,1706137,/	t,t,t,t	<img class = center src='/static/experiments/beast_fmri_test/images/T.png'></img>	89,71	2750.0	test	<img class = center src='/static/experiments/beast_fmri_test/images/redT.png'></img>	stop	1500.0	1.0	25.0	stop	non-target	T	89,Yellow Button	71,Green Button	950.0	1250.0	1800.0	1500.0	0.0	1.0	1250.0	0.0	ITI
119305	500.0	n/a	-1	-1	500	0.0	fixation	poldrack-single-stim	637	1707123	0.0-25.26-0.26	beast_fmri_test	313	1706817,/	t	<div class = centerbox><div class = fixation>+</div></div>	none	500.0	test	n/a	n/a	n/a	n/a	n/a	n/a	n/a	n/a	n/a	n/a	n/a	n/a	n/a	n/a	n/a	n/a	n/a	n/a	fixation
119053.18858810002	1300.0	n/a	-1	-1	2750	253.8114119	stim	stop-signal	638	1709875	0.0-25.26-1.26	beast_fmri_test	313	1707498,/,1708177,/,1708857,/,1709537,/	t,t,t,t	<img class = center src='/static/experiments/beast_fmri_test/images/V.png'></img>	89,71	2750.0	test	<img class = center src='/static/experiments/beast_fmri_test/images/redV.png'></img>	stop	1450.0	1.0	26.0	stop	non-target	V	89,Yellow Button	71,Green Button	950.0	1300.0	1800.0	1450.0	0.0	1.0	1300.0	0.0	go_stim
120503.18858810002	1450.0	n/a	-1	-1	2750	253.8114119	stim	stop-signal	638	1709875	0.0-25.26-1.26	beast_fmri_test	313	1707498,/,1708177,/,1708857,/,1709537,/	t,t,t,t	<img class = center src='/static/experiments/beast_fmri_test/images/V.png'></img>	89,71	2750.0	test	<img class = center src='/static/experiments/beast_fmri_test/images/redV.png'></img>	stop	1450.0	1.0	26.0	stop	non-target	V	89,Yellow Button	71,Green Button	950.0	1300.0	1800.0	1450.0	0.0	1.0	1300.0	0.0	stop_stim
121803.18858810002	253.8114119	n/a	-1	-1	2750	253.8114119	stim	stop-signal	638	1709875	0.0-25.26-1.26	beast_fmri_test	313	1707498,/,1708177,/,1708857,/,1709537,/	t,t,t,t	<img class = center src='/static/experiments/beast_fmri_test/images/V.png'></img>	89,71	2750.0	test	<img class = center src='/static/experiments/beast_fmri_test/images/redV.png'></img>	stop	1450.0	1.0	26.0	stop	non-target	V	89,Yellow Button	71,Green Button	950.0	1300.0	1800.0	1450.0	0.0	1.0	1300.0	0.0	ITI
122835	500.0	n/a	-1	-1	500	0.0	fixation	poldrack-single-stim	639	1710653	0.0-25.27-0.27	beast_fmri_test	313	1710217,/	t	<div class = centerbox><div class = fixation>+</div></div>	none	500.0	test	n/a	n/a	n/a	n/a	n/a	n/a	n/a	n/a	n/a	n/a	n/a	n/a	n/a	n/a	n/a	n/a	n/a	n/a	fixation
121345.81149200001	2750.0	n/a	1213	89	2750	1490.188508	stim	stop-signal	640	1713404	0.0-25.27-1.27	beast_fmri_test	313	1710897,/,1711577,/,1712257,/,1712937,/,1713617,/,1714298,/	t,t,t,t,t,t	<img class = center src='/static/experiments/beast_fmri_test/images/V.png'></img>	89,71	2750.0	test	<img class = center src='/static/experiments/beast_fmri_test/images/redV.png'></img>	go	1800.0	1.0	27.0	go	target	V	89,Yellow Button	71,Green Button	950.0	1350.0	1800.0	1450.0	1.0	n/a	950.0	1.0	go_stim
124095.81149200001	1490.188508	n/a	1213	89	2750	1490.188508	stim	stop-signal	640	1713404	0.0-25.27-1.27	beast_fmri_test	313	1710897,/,1711577,/,1712257,/,1712937,/,1713617,/,1714298,/	t,t,t,t,t,t	<img class = center src='/static/experiments/beast_fmri_test/images/V.png'></img>	89,71	2750.0	test	<img class = center src='/static/experiments/beast_fmri_test/images/redV.png'></img>	go	1800.0	1.0	27.0	go	target	V	89,Yellow Button	71,Green Button	950.0	1350.0	1800.0	1450.0	1.0	n/a	950.0	1.0	ITI
127599	500.0	n/a	-1	-1	500	0.0	fixation	poldrack-single-stim	641	1715417	0.0-25.28-0.28	beast_fmri_test	313	1714978,/	t	<div class = centerbox><div class = fixation>+</div></div>	none	500.0	test	n/a	n/a	n/a	n/a	n/a	n/a	n/a	n/a	n/a	n/a	n/a	n/a	n/a	n/a	n/a	n/a	n/a	n/a	fixation
127197.20874239993	2750.0	n/a	1208	89	2750	403.7912576	stim	stop-signal	642	1718169	0.0-25.28-1.28	beast_fmri_test	313	1715658,/,1716337,/,1717018,/,1717699,/,1718377,/	t,t,t,t,t	<img class = center src='/static/experiments/beast_fmri_test/images/V.png'></img>	89,71	2750.0	test	<img class = center src='/static/experiments/beast_fmri_test/images/redV.png'></img>	go	1800.0	1.0	28.0	go	target	V	89,Yellow Button	71,Green Button	950.0	1350.0	1800.0	1450.0	1.0	n/a	950.0	1.0	go_stim
129947.20874239993	403.7912576	n/a	1208	89	2750	403.7912576	stim	stop-signal	642	1718169	0.0-25.28-1.28	beast_fmri_test	313	1715658,/,1716337,/,1717018,/,1717699,/,1718377,/	t,t,t,t,t	<img class = center src='/static/experiments/beast_fmri_test/images/V.png'></img>	89,71	2750.0	test	<img class = center src='/static/experiments/beast_fmri_test/images/redV.png'></img>	go	1800.0	1.0	28.0	go	target	V	89,Yellow Button	71,Green Button	950.0	1350.0	1800.0	1450.0	1.0	n/a	950.0	1.0	ITI
131280	500.0	n/a	-1	-1	500	0.0	fixation	poldrack-single-stim	643	1719098	0.0-25.29-0.29	beast_fmri_test	313	1719057,/	t	<div class = centerbox><div class = fixation>+</div></div>	none	500.0	test	n/a	n/a	n/a	n/a	n/a	n/a	n/a	n/a	n/a	n/a	n/a	n/a	n/a	n/a	n/a	n/a	n/a	n/a	fixation
130194.99724199995	2750.0	n/a	2000	71	2750	1087.002758	stim	stop-signal	644	1721850	0.0-25.29-1.29	beast_fmri_test	313	1719738,/,1720418,/,1721098,/,1721777,/,1722457,/	t,t,t,t,t	<img class = center src='/static/experiments/beast_fmri_test/images/B.png'></img>	89,71	2750.0	test	<img class = center src='/static/experiments/beast_fmri_test/images/redB.png'></img>	go	1400.0	1.0	29.0	go	non-target	B	89,Yellow Button	71,Green Button	950.0	1350.0	1800.0	1400.0	1.0	n/a	1350.0	1.0	go_stim
132944.99724199995	1087.002758	n/a	2000	71	2750	1087.002758	stim	stop-signal	644	1721850	0.0-25.29-1.29	beast_fmri_test	313	1719738,/,1720418,/,1721098,/,1721777,/,1722457,/	t,t,t,t,t	<img class = center src='/static/experiments/beast_fmri_test/images/B.png'></img>	89,71	2750.0	test	<img class = center src='/static/experiments/beast_fmri_test/images/redB.png'></img>	go	1400.0	1.0	29.0	go	non-target	B	89,Yellow Button	71,Green Button	950.0	1350.0	1800.0	1400.0	1.0	n/a	1350.0	1.0	ITI
135642	500.0	n/a	-1	-1	500	0.0	fixation	poldrack-single-stim	645	1723460	0.0-25.30-0.30	beast_fmri_test	313	1723138,/	t	<div class = centerbox><div class = fixation>+</div></div>	none	500.0	test	n/a	n/a	n/a	n/a	n/a	n/a	n/a	n/a	n/a	n/a	n/a	n/a	n/a	n/a	n/a	n/a	n/a	n/a	fixation
135439.99407409993	2750.0	n/a	500	71	2750	205.0059259	stim	stop-signal	646	1726213	0.0-25.30-1.30	beast_fmri_test	313	1723817,/,1724498,/,1725177,/,1725857,/	t,t,t,t	<img class = center src='/static/experiments/beast_fmri_test/images/P.png'></img>	89,71	2750.0	test	<img class = center src='/static/experiments/beast_fmri_test/images/redP.png'></img>	go	1400.0	1.0	30.0	go	non-target	P	89,Yellow Button	71,Green Button	950.0	1350.0	1800.0	1400.0	1.0	n/a	1350.0	1.0	go_stim
138189.99407409993	205.0059259	n/a	500	71	2750	205.0059259	stim	stop-signal	646	1726213	0.0-25.30-1.30	beast_fmri_test	313	1723817,/,1724498,/,1725177,/,1725857,/	t,t,t,t	<img class = center src='/static/experiments/beast_fmri_test/images/P.png'></img>	89,71	2750.0	test	<img class = center src='/static/experiments/beast_fmri_test/images/redP.png'></img>	go	1400.0	1.0	30.0	go	non-target	P	89,Yellow Button	71,Green Button	950.0	1350.0	1800.0	1400.0	1.0	n/a	1350.0	1.0	ITI
139124	500.0	n/a	-1	-1	500	0.0	fixation	poldrack-single-stim	647	1726942	0.0-25.31-0.31	beast_fmri_test	313	1726538,/	t	<div class = centerbox><div class = fixation>+</div></div>	none	500.0	test	n/a	n/a	n/a	n/a	n/a	n/a	n/a	n/a	n/a	n/a	n/a	n/a	n/a	n/a	n/a	n/a	n/a	n/a	fixation
135420.6253800001	2750.0	n/a	1561	71	2750	3705.37462	stim	stop-signal	648	1729694	0.0-25.31-1.31	beast_fmri_test	313	1727217,/,1727898,/,1728577,/,1729257,/,1729937,/,1730617,/,1731297,/,1731977,/,1732657,/,1733337,/	t,t,t,t,t,t,t,t,t,t	<img class = center src='/static/experiments/beast_fmri_test/images/D.png'></img>	89,71	2750.0	test	<img class = center src='/static/experiments/beast_fmri_test/images/redD.png'></img>	go	1400.0	1.0	31.0	go	non-target	D	89,Yellow Button	71,Green Button	950.0	1350.0	1800.0	1400.0	1.0	n/a	1350.0	1.0	go_stim
138170.6253800001	3705.37462	n/a	1561	71	2750	3705.37462	stim	stop-signal	648	1729694	0.0-25.31-1.31	beast_fmri_test	313	1727217,/,1727898,/,1728577,/,1729257,/,1729937,/,1730617,/,1731297,/,1731977,/,1732657,/,1733337,/	t,t,t,t,t,t,t,t,t,t	<img class = center src='/static/experiments/beast_fmri_test/images/D.png'></img>	89,71	2750.0	test	<img class = center src='/static/experiments/beast_fmri_test/images/redD.png'></img>	go	1400.0	1.0	31.0	go	non-target	D	89,Yellow Button	71,Green Button	950.0	1350.0	1800.0	1400.0	1.0	n/a	1350.0	1.0	ITI
146106	500.0	n/a	-1	-1	500	0.0	fixation	poldrack-single-stim	649	1733924	0.0-25.32-0.32	beast_fmri_test	313	n/a	n/a	<div class = centerbox><div class = fixation>+</div></div>	none	500.0	test	n/a	n/a	n/a	n/a	n/a	n/a	n/a	n/a	n/a	n/a	n/a	n/a	n/a	n/a	n/a	n/a	n/a	n/a	fixation
145923.54446460004	1350.0	n/a	1018	71	2750	184.4555354	stim	stop-signal	650	1736676	0.0-25.32-1.32	beast_fmri_test	313	1734017,/,1734697,/,1735377,/,1736057,/,1736737,/	t,t,t,t,t	<img class = center src='/static/experiments/beast_fmri_test/images/T.png'></img>	89,71	2750.0	test	<img class = center src='/static/experiments/beast_fmri_test/images/redT.png'></img>	stop	1400.0	1.0	32.0	stop	non-target	T	89,Yellow Button	71,Green Button	950.0	1350.0	1800.0	1400.0	0.0	0.0	1350.0	1.0	go_stim
147323.54446460004	1400.0	n/a	1018	71	2750	184.4555354	stim	stop-signal	650	1736676	0.0-25.32-1.32	beast_fmri_test	313	1734017,/,1734697,/,1735377,/,1736057,/,1736737,/	t,t,t,t,t	<img class = center src='/static/experiments/beast_fmri_test/images/T.png'></img>	89,71	2750.0	test	<img class = center src='/static/experiments/beast_fmri_test/images/redT.png'></img>	stop	1400.0	1.0	32.0	stop	non-target	T	89,Yellow Button	71,Green Button	950.0	1350.0	1800.0	1400.0	0.0	0.0	1350.0	1.0	stop_stim
148673.54446460004	184.4555354	n/a	1018	71	2750	184.4555354	stim	stop-signal	650	1736676	0.0-25.32-1.32	beast_fmri_test	313	1734017,/,1734697,/,1735377,/,1736057,/,1736737,/	t,t,t,t,t	<img class = center src='/static/experiments/beast_fmri_test/images/T.png'></img>	89,71	2750.0	test	<img class = center src='/static/experiments/beast_fmri_test/images/redT.png'></img>	stop	1400.0	1.0	32.0	stop	non-target	T	89,Yellow Button	71,Green Button	950.0	1350.0	1800.0	1400.0	0.0	0.0	1350.0	1.0	ITI
149569	500.0	n/a	-1	-1	500	0.0	fixation	poldrack-single-stim	651	1737387	0.0-25.33-0.33	beast_fmri_test	313	n/a	n/a	<div class = centerbox><div class = fixation>+</div></div>	none	500.0	test	n/a	n/a	n/a	n/a	n/a	n/a	n/a	n/a	n/a	n/a	n/a	n/a	n/a	n/a	n/a	n/a	n/a	n/a	fixation
148976.53115399997	1300.0	n/a	444	71	2750	593.468846	stim	stop-signal	652	1740138	0.0-25.33-1.33	beast_fmri_test	313	1737417,/,1738097,/,1738777,/,1739457,/,1740137,/	t,t,t,t,t	<img class = center src='/static/experiments/beast_fmri_test/images/V.png'></img>	89,71	2750.0	test	<img class = center src='/static/experiments/beast_fmri_test/images/redV.png'></img>	stop	1450.0	1.0	33.0	stop	non-target	V	89,Yellow Button	71,Green Button	950.0	1300.0	1800.0	1450.0	0.0	0.0	1300.0	1.0	go_stim
150426.53115399997	1450.0	n/a	444	71	2750	593.468846	stim	stop-signal	652	1740138	0.0-25.33-1.33	beast_fmri_test	313	1737417,/,1738097,/,1738777,/,1739457,/,1740137,/	t,t,t,t,t	<img class = center src='/static/experiments/beast_fmri_test/images/V.png'></img>	89,71	2750.0	test	<img class = center src='/static/experiments/beast_fmri_test/images/redV.png'></img>	stop	1450.0	1.0	33.0	stop	non-target	V	89,Yellow Button	71,Green Button	950.0	1300.0	1800.0	1450.0	0.0	0.0	1300.0	1.0	stop_stim
151726.53115399997	593.468846	n/a	444	71	2750	593.468846	stim	stop-signal	652	1740138	0.0-25.33-1.33	beast_fmri_test	313	1737417,/,1738097,/,1738777,/,1739457,/,1740137,/	t,t,t,t,t	<img class = center src='/static/experiments/beast_fmri_test/images/V.png'></img>	89,71	2750.0	test	<img class = center src='/static/experiments/beast_fmri_test/images/redV.png'></img>	stop	1450.0	1.0	33.0	stop	non-target	V	89,Yellow Button	71,Green Button	950.0	1300.0	1800.0	1450.0	0.0	0.0	1300.0	1.0	ITI
153441	500.0	n/a	-1	-1	500	0.0	fixation	poldrack-single-stim	653	1741259	0.0-25.34-0.34	beast_fmri_test	313	1740817,/	t	<div class = centerbox><div class = fixation>+</div></div>	none	500.0	test	n/a	n/a	n/a	n/a	n/a	n/a	n/a	n/a	n/a	n/a	n/a	n/a	n/a	n/a	n/a	n/a	n/a	n/a	fixation
152263.90754999989	1250.0	n/a	779	71	2750	1179.09245	stim	stop-signal	654	1744011	0.0-25.34-1.34	beast_fmri_test	313	1741497,/,1742177,/,1742856,/,1743536,/,1744217,/,1744897,/	t,t,t,t,t,t	<img class = center src='/static/experiments/beast_fmri_test/images/D.png'></img>	89,71	2750.0	test	<img class = center src='/static/experiments/beast_fmri_test/images/redD.png'></img>	stop	1500.0	1.0	34.0	stop	non-target	D	89,Yellow Button	71,Green Button	950.0	1250.0	1800.0	1500.0	0.0	0.0	1250.0	1.0	go_stim
153763.90754999989	1500.0	n/a	779	71	2750	1179.09245	stim	stop-signal	654	1744011	0.0-25.34-1.34	beast_fmri_test	313	1741497,/,1742177,/,1742856,/,1743536,/,1744217,/,1744897,/	t,t,t,t,t,t	<img class = center src='/static/experiments/beast_fmri_test/images/D.png'></img>	89,71	2750.0	test	<img class = center src='/static/experiments/beast_fmri_test/images/redD.png'></img>	stop	1500.0	1.0	34.0	stop	non-target	D	89,Yellow Button	71,Green Button	950.0	1250.0	1800.0	1500.0	0.0	0.0	1250.0	1.0	stop_stim
155013.90754999989	1179.09245	n/a	779	71	2750	1179.09245	stim	stop-signal	654	1744011	0.0-25.34-1.34	beast_fmri_test	313	1741497,/,1742177,/,1742856,/,1743536,/,1744217,/,1744897,/	t,t,t,t,t,t	<img class = center src='/static/experiments/beast_fmri_test/images/D.png'></img>	89,71	2750.0	test	<img class = center src='/static/experiments/beast_fmri_test/images/redD.png'></img>	stop	1500.0	1.0	34.0	stop	non-target	D	89,Yellow Button	71,Green Button	950.0	1250.0	1800.0	1500.0	0.0	0.0	1250.0	1.0	ITI
157899	500.0	n/a	-1	-1	500	0.0	fixation	poldrack-single-stim	655	1745717	0.0-25.35-0.35	beast_fmri_test	313	1745577,/	t	<div class = centerbox><div class = fixation>+</div></div>	none	500.0	test	n/a	n/a	n/a	n/a	n/a	n/a	n/a	n/a	n/a	n/a	n/a	n/a	n/a	n/a	n/a	n/a	n/a	n/a	fixation
157340.31722069997	950.0	n/a	823	89	2750	560.6827793	stim	stop-signal	656	1748469	0.0-25.35-1.35	beast_fmri_test	313	1746257,/,1746937,/,1747617,/,1748299,/,1748978,/	t,t,t,t,t	<img class = center src='/static/experiments/beast_fmri_test/images/D.png'></img>	89,71	2750.0	test	<img class = center src='/static/experiments/beast_fmri_test/images/redD.png'></img>	stop	1800.0	1.0	35.0	stop	target	D	89,Yellow Button	71,Green Button	950.0	1200.0	1800.0	1500.0	0.0	0.0	950.0	1.0	go_stim
159140.31722069997	1800.0	n/a	823	89	2750	560.6827793	stim	stop-signal	656	1748469	0.0-25.35-1.35	beast_fmri_test	313	1746257,/,1746937,/,1747617,/,1748299,/,1748978,/	t,t,t,t,t	<img class = center src='/static/experiments/beast_fmri_test/images/D.png'></img>	89,71	2750.0	test	<img class = center src='/static/experiments/beast_fmri_test/images/redD.png'></img>	stop	1800.0	1.0	35.0	stop	target	D	89,Yellow Button	71,Green Button	950.0	1200.0	1800.0	1500.0	0.0	0.0	950.0	1.0	stop_stim
160090.31722069997	560.6827793	n/a	823	89	2750	560.6827793	stim	stop-signal	656	1748469	0.0-25.35-1.35	beast_fmri_test	313	1746257,/,1746937,/,1747617,/,1748299,/,1748978,/	t,t,t,t,t	<img class = center src='/static/experiments/beast_fmri_test/images/D.png'></img>	89,71	2750.0	test	<img class = center src='/static/experiments/beast_fmri_test/images/redD.png'></img>	stop	1800.0	1.0	35.0	stop	target	D	89,Yellow Button	71,Green Button	950.0	1200.0	1800.0	1500.0	0.0	0.0	950.0	1.0	ITI
161735	500.0	n/a	-1	-1	500	0.0	fixation	poldrack-single-stim	657	1749553	0.0-25.36-0.36	beast_fmri_test	313	n/a	n/a	<div class = centerbox><div class = fixation>+</div></div>	none	500.0	test	n/a	n/a	n/a	n/a	n/a	n/a	n/a	n/a	n/a	n/a	n/a	n/a	n/a	n/a	n/a	n/a	n/a	n/a	fixation
160768.0173378	2750.0	n/a	1775	71	2750	968.9826622	stim	stop-signal	658	1752305	0.0-25.36-1.36	beast_fmri_test	313	1749657,/,1750337,/,1751018,/,1751697,/,1752377,/,1753057,/	t,t,t,t,t,t	<img class = center src='/static/experiments/beast_fmri_test/images/V.png'></img>	89,71	2750.0	test	<img class = center src='/static/experiments/beast_fmri_test/images/redV.png'></img>	go	1550.0	1.0	36.0	go	non-target	V	89,Yellow Button	71,Green Button	900.0	1200.0	1800.0	1550.0	1.0	n/a	1200.0	1.0	go_stim
163518.0173378	968.9826622	n/a	1775	71	2750	968.9826622	stim	stop-signal	658	1752305	0.0-25.36-1.36	beast_fmri_test	313	1749657,/,1750337,/,1751018,/,1751697,/,1752377,/,1753057,/	t,t,t,t,t,t	<img class = center src='/static/experiments/beast_fmri_test/images/V.png'></img>	89,71	2750.0	test	<img class = center src='/static/experiments/beast_fmri_test/images/redV.png'></img>	go	1550.0	1.0	36.0	go	non-target	V	89,Yellow Button	71,Green Button	900.0	1200.0	1800.0	1550.0	1.0	n/a	1200.0	1.0	ITI
165982	500.0	n/a	-1	-1	500	0.0	fixation	poldrack-single-stim	659	1753800	0.0-25.37-0.37	beast_fmri_test	313	1753738,/	t	<div class = centerbox><div class = fixation>+</div></div>	none	500.0	test	n/a	n/a	n/a	n/a	n/a	n/a	n/a	n/a	n/a	n/a	n/a	n/a	n/a	n/a	n/a	n/a	n/a	n/a	fixation
164338.71363499993	2750.0	n/a	843	71	2750	1645.286365	stim	stop-signal	660	1756552	0.0-25.37-1.37	beast_fmri_test	313	1754417,/,1755097,/,1755777,/,1756457,/,1757137,/,1757818,/	t,t,t,t,t,t	<img class = center src='/static/experiments/beast_fmri_test/images/T.png'></img>	89,71	2750.0	test	<img class = center src='/static/experiments/beast_fmri_test/images/redT.png'></img>	go	1550.0	1.0	37.0	go	non-target	T	89,Yellow Button	71,Green Button	900.0	1200.0	1800.0	1550.0	1.0	n/a	1200.0	1.0	go_stim
167088.71363499993	1645.286365	n/a	843	71	2750	1645.286365	stim	stop-signal	660	1756552	0.0-25.37-1.37	beast_fmri_test	313	1754417,/,1755097,/,1755777,/,1756457,/,1757137,/,1757818,/	t,t,t,t,t,t	<img class = center src='/static/experiments/beast_fmri_test/images/T.png'></img>	89,71	2750.0	test	<img class = center src='/static/experiments/beast_fmri_test/images/redT.png'></img>	go	1550.0	1.0	37.0	go	non-target	T	89,Yellow Button	71,Green Button	900.0	1200.0	1800.0	1550.0	1.0	n/a	1200.0	1.0	ITI
170907	500.0	n/a	-1	-1	500	0.0	fixation	poldrack-single-stim	661	1758725	0.0-25.38-0.38	beast_fmri_test	313	1758498,/	t	<div class = centerbox><div class = fixation>+</div></div>	none	500.0	test	n/a	n/a	n/a	n/a	n/a	n/a	n/a	n/a	n/a	n/a	n/a	n/a	n/a	n/a	n/a	n/a	n/a	n/a	fixation
170088.4210037	2750.0	n/a	756	89	2750	820.5789963	stim	stop-signal	662	1761477	0.0-25.38-1.38	beast_fmri_test	313	1759177,/,1759857,/,1760537,/,1761217,/,1761897,/	t,t,t,t,t	<img class = center src='/static/experiments/beast_fmri_test/images/T.png'></img>	89,71	2750.0	test	<img class = center src='/static/experiments/beast_fmri_test/images/redT.png'></img>	go	1850.0	1.0	38.0	go	target	T	89,Yellow Button	71,Green Button	900.0	1200.0	1850.0	1550.0	1.0	n/a	900.0	1.0	go_stim
172838.4210037	820.5789963	n/a	756	89	2750	820.5789963	stim	stop-signal	662	1761477	0.0-25.38-1.38	beast_fmri_test	313	1759177,/,1759857,/,1760537,/,1761217,/,1761897,/	t,t,t,t,t	<img class = center src='/static/experiments/beast_fmri_test/images/T.png'></img>	89,71	2750.0	test	<img class = center src='/static/experiments/beast_fmri_test/images/redT.png'></img>	go	1850.0	1.0	38.0	go	target	T	89,Yellow Button	71,Green Button	900.0	1200.0	1850.0	1550.0	1.0	n/a	900.0	1.0	ITI
175008	500.0	n/a	-1	-1	500	0.0	fixation	poldrack-single-stim	663	1762826	0.0-25.39-0.39	beast_fmri_test	313	1762577,/	t	<div class = centerbox><div class = fixation>+</div></div>	none	500.0	test	n/a	n/a	n/a	n/a	n/a	n/a	n/a	n/a	n/a	n/a	n/a	n/a	n/a	n/a	n/a	n/a	n/a	n/a	fixation
173054.98503799993	2750.0	n/a	873	89	2750	1955.014962	stim	stop-signal	664	1765578	0.0-25.39-1.39	beast_fmri_test	313	1763257,/,1763937,/,1764617,/,1765297,/,1765977,/,1766657,/,1767337,/	t,t,t,t,t,t,t	<img class = center src='/static/experiments/beast_fmri_test/images/T.png'></img>	89,71	2750.0	test	<img class = center src='/static/experiments/beast_fmri_test/images/redT.png'></img>	go	1850.0	1.0	39.0	go	target	T	89,Yellow Button	71,Green Button	900.0	1200.0	1850.0	1550.0	1.0	n/a	900.0	1.0	go_stim
175804.98503799993	1955.014962	n/a	873	89	2750	1955.014962	stim	stop-signal	664	1765578	0.0-25.39-1.39	beast_fmri_test	313	1763257,/,1763937,/,1764617,/,1765297,/,1765977,/,1766657,/,1767337,/	t,t,t,t,t,t,t	<img class = center src='/static/experiments/beast_fmri_test/images/T.png'></img>	89,71	2750.0	test	<img class = center src='/static/experiments/beast_fmri_test/images/redT.png'></img>	go	1850.0	1.0	39.0	go	target	T	89,Yellow Button	71,Green Button	900.0	1200.0	1850.0	1550.0	1.0	n/a	900.0	1.0	ITI
180242	500.0	n/a	-1	-1	500	0.0	fixation	poldrack-single-stim	665	1768060	0.0-25.40-0.40	beast_fmri_test	313	1768017,/	t	<div class = centerbox><div class = fixation>+</div></div>	none	500.0	test	n/a	n/a	n/a	n/a	n/a	n/a	n/a	n/a	n/a	n/a	n/a	n/a	n/a	n/a	n/a	n/a	n/a	n/a	fixation
177755.99072399992	2750.0	n/a	1111	89	2750	2487.009276	stim	stop-signal	666	1770811	0.0-25.40-1.40	beast_fmri_test	313	1768698,/,1769377,/,1770057,/,1770737,/,1771417,/,1772097,/,1772777,/	t,t,t,t,t,t,t	<img class = center src='/static/experiments/beast_fmri_test/images/T.png'></img>	89,71	2750.0	test	<img class = center src='/static/experiments/beast_fmri_test/images/redT.png'></img>	go	1850.0	1.0	40.0	go	target	T	89,Yellow Button	71,Green Button	900.0	1200.0	1850.0	1550.0	1.0	n/a	900.0	1.0	go_stim
180505.99072399992	2487.009276	n/a	1111	89	2750	2487.009276	stim	stop-signal	666	1770811	0.0-25.40-1.40	beast_fmri_test	313	1768698,/,1769377,/,1770057,/,1770737,/,1771417,/,1772097,/,1772777,/	t,t,t,t,t,t,t	<img class = center src='/static/experiments/beast_fmri_test/images/T.png'></img>	89,71	2750.0	test	<img class = center src='/static/experiments/beast_fmri_test/images/redT.png'></img>	go	1850.0	1.0	40.0	go	target	T	89,Yellow Button	71,Green Button	900.0	1200.0	1850.0	1550.0	1.0	n/a	900.0	1.0	ITI
186004	500.0	n/a	-1	-1	500	0.0	fixation	poldrack-single-stim	667	1773822	0.0-25.41-0.41	beast_fmri_test	313	1773457,/	t	<div class = centerbox><div class = fixation>+</div></div>	none	500.0	test	n/a	n/a	n/a	n/a	n/a	n/a	n/a	n/a	n/a	n/a	n/a	n/a	n/a	n/a	n/a	n/a	n/a	n/a	fixation
185624.01043860009	2750.0	n/a	1063	89	2750	381.9895614	stim	stop-signal	668	1776574	0.0-25.41-1.41	beast_fmri_test	313	1774137,/,1774817,/,1775497,/,1776177,/,1776857,/	t,t,t,t,t	<img class = center src='/static/experiments/beast_fmri_test/images/T.png'></img>	89,71	2750.0	test	<img class = center src='/static/experiments/beast_fmri_test/images/redT.png'></img>	go	1850.0	1.0	41.0	go	target	T	89,Yellow Button	71,Green Button	900.0	1200.0	1850.0	1550.0	1.0	n/a	900.0	1.0	go_stim
188374.01043860009	381.9895614	n/a	1063	89	2750	381.9895614	stim	stop-signal	668	1776574	0.0-25.41-1.41	beast_fmri_test	313	1774137,/,1774817,/,1775497,/,1776177,/,1776857,/	t,t,t,t,t	<img class = center src='/static/experiments/beast_fmri_test/images/T.png'></img>	89,71	2750.0	test	<img class = center src='/static/experiments/beast_fmri_test/images/redT.png'></img>	go	1850.0	1.0	41.0	go	target	T	89,Yellow Button	71,Green Button	900.0	1200.0	1850.0	1550.0	1.0	n/a	900.0	1.0	ITI
189663	500.0	n/a	-1	-1	500	0.0	fixation	poldrack-single-stim	669	1777481	0.0-25.42-0.42	beast_fmri_test	313	n/a	n/a	<div class = centerbox><div class = fixation>+</div></div>	none	500.0	test	n/a	n/a	n/a	n/a	n/a	n/a	n/a	n/a	n/a	n/a	n/a	n/a	n/a	n/a	n/a	n/a	n/a	n/a	fixation
189086.69505150011	900.0	n/a	1092	89	2750	578.3049485	stim	stop-signal	670	1780233	0.0-25.42-1.42	beast_fmri_test	313	1777537,/,1778217,/,1778897,/,1779577,/,1780257,/	t,t,t,t,t	<img class = center src='/static/experiments/beast_fmri_test/images/T.png'></img>	89,71	2750.0	test	<img class = center src='/static/experiments/beast_fmri_test/images/redT.png'></img>	stop	1850.0	1.0	42.0	stop	target	T	89,Yellow Button	71,Green Button	900.0	1200.0	1850.0	1550.0	0.0	0.0	900.0	1.0	go_stim
190936.69505150011	1850.0	n/a	1092	89	2750	578.3049485	stim	stop-signal	670	1780233	0.0-25.42-1.42	beast_fmri_test	313	1777537,/,1778217,/,1778897,/,1779577,/,1780257,/	t,t,t,t,t	<img class = center src='/static/experiments/beast_fmri_test/images/T.png'></img>	89,71	2750.0	test	<img class = center src='/static/experiments/beast_fmri_test/images/redT.png'></img>	stop	1850.0	1.0	42.0	stop	target	T	89,Yellow Button	71,Green Button	900.0	1200.0	1850.0	1550.0	0.0	0.0	900.0	1.0	stop_stim
191836.69505150011	578.3049485	n/a	1092	89	2750	578.3049485	stim	stop-signal	670	1780233	0.0-25.42-1.42	beast_fmri_test	313	1777537,/,1778217,/,1778897,/,1779577,/,1780257,/	t,t,t,t,t	<img class = center src='/static/experiments/beast_fmri_test/images/T.png'></img>	89,71	2750.0	test	<img class = center src='/static/experiments/beast_fmri_test/images/redT.png'></img>	stop	1850.0	1.0	42.0	stop	target	T	89,Yellow Button	71,Green Button	900.0	1200.0	1850.0	1550.0	0.0	0.0	900.0	1.0	ITI
193520	500.0	n/a	-1	-1	500	0.0	fixation	poldrack-single-stim	671	1781338	0.0-25.43-0.43	beast_fmri_test	313	1780936,/	t	<div class = centerbox><div class = fixation>+</div></div>	none	500.0	test	n/a	n/a	n/a	n/a	n/a	n/a	n/a	n/a	n/a	n/a	n/a	n/a	n/a	n/a	n/a	n/a	n/a	n/a	fixation
191801.31137100002	2750.0	n/a	1850	71	2750	1720.688629	stim	stop-signal	672	1784090	0.0-25.43-1.43	beast_fmri_test	313	1781618,/,1782297,/,1782978,/,1783658,/,1784337,/,1785017,/,1785698,/	t,t,t,t,t,t,t	<img class = center src='/static/experiments/beast_fmri_test/images/B.png'></img>	89,71	2750.0	test	<img class = center src='/static/experiments/beast_fmri_test/images/redB.png'></img>	go	1550.0	1.0	43.0	go	non-target	B	89,Yellow Button	71,Green Button	850.0	1200.0	1850.0	1550.0	1.0	n/a	1200.0	1.0	go_stim
194551.31137100002	1720.688629	n/a	1850	71	2750	1720.688629	stim	stop-signal	672	1784090	0.0-25.43-1.43	beast_fmri_test	313	1781618,/,1782297,/,1782978,/,1783658,/,1784337,/,1785017,/,1785698,/	t,t,t,t,t,t,t	<img class = center src='/static/experiments/beast_fmri_test/images/B.png'></img>	89,71	2750.0	test	<img class = center src='/static/experiments/beast_fmri_test/images/redB.png'></img>	go	1550.0	1.0	43.0	go	non-target	B	89,Yellow Button	71,Green Button	850.0	1200.0	1850.0	1550.0	1.0	n/a	1200.0	1.0	ITI
198515	500.0	n/a	-1	-1	500	0.0	fixation	poldrack-single-stim	673	1786333	0.0-25.44-0.44	beast_fmri_test	313	n/a	n/a	<div class = centerbox><div class = fixation>+</div></div>	none	500.0	test	n/a	n/a	n/a	n/a	n/a	n/a	n/a	n/a	n/a	n/a	n/a	n/a	n/a	n/a	n/a	n/a	n/a	n/a	fixation
197537.21624829993	2750.0	n/a	1304	71	2750	979.7837517	stim	stop-signal	674	1789085	0.0-25.44-1.44	beast_fmri_test	313	1786378,/,1787058,/,1787737,/,1788418,/,1789098,/,1789777,/	t,t,t,t,t,t	<img class = center src='/static/experiments/beast_fmri_test/images/D.png'></img>	89,71	2750.0	test	<img class = center src='/static/experiments/beast_fmri_test/images/redD.png'></img>	go	1550.0	1.0	44.0	go	non-target	D	89,Yellow Button	71,Green Button	850.0	1200.0	1850.0	1550.0	1.0	n/a	1200.0	1.0	go_stim
200287.21624829993	979.7837517	n/a	1304	71	2750	979.7837517	stim	stop-signal	674	1789085	0.0-25.44-1.44	beast_fmri_test	313	1786378,/,1787058,/,1787737,/,1788418,/,1789098,/,1789777,/	t,t,t,t,t,t	<img class = center src='/static/experiments/beast_fmri_test/images/D.png'></img>	89,71	2750.0	test	<img class = center src='/static/experiments/beast_fmri_test/images/redD.png'></img>	go	1550.0	1.0	44.0	go	non-target	D	89,Yellow Button	71,Green Button	850.0	1200.0	1850.0	1550.0	1.0	n/a	1200.0	1.0	ITI
202772	500.0	n/a	-1	-1	500	0.0	fixation	poldrack-single-stim	675	1790590	0.0-25.45-0.45	beast_fmri_test	313	1790457,/	t	<div class = centerbox><div class = fixation>+</div></div>	none	500.0	test	n/a	n/a	n/a	n/a	n/a	n/a	n/a	n/a	n/a	n/a	n/a	n/a	n/a	n/a	n/a	n/a	n/a	n/a	fixation
201855.66067750007	2750.0	n/a	950	71	2750	918.3393225	stim	stop-signal	676	1793342	0.0-25.45-1.45	beast_fmri_test	313	1791138,/,1791817,/,1792498,/,1793177,/,1793857,/	t,t,t,t,t	<img class = center src='/static/experiments/beast_fmri_test/images/B.png'></img>	89,71	2750.0	test	<img class = center src='/static/experiments/beast_fmri_test/images/redB.png'></img>	go	1550.0	1.0	45.0	go	non-target	B	89,Yellow Button	71,Green Button	850.0	1200.0	1850.0	1550.0	1.0	n/a	1200.0	1.0	go_stim
204605.66067750007	918.3393225	n/a	950	71	2750	918.3393225	stim	stop-signal	676	1793342	0.0-25.45-1.45	beast_fmri_test	313	1791138,/,1791817,/,1792498,/,1793177,/,1793857,/	t,t,t,t,t	<img class = center src='/static/experiments/beast_fmri_test/images/B.png'></img>	89,71	2750.0	test	<img class = center src='/static/experiments/beast_fmri_test/images/redB.png'></img>	go	1550.0	1.0	45.0	go	non-target	B	89,Yellow Button	71,Green Button	850.0	1200.0	1850.0	1550.0	1.0	n/a	1200.0	1.0	ITI
221470	15000.0	n/a	-1	-1	15000	0.0	practice-no-stop-feedback	poldrack-single-stim	677	1809288	0.0-26.0	beast_fmri_test	313	1794537,/,1795217,/,1795897,/,1796577,/,1797257,/,1797937,/,1798617,/,1799298,/,1799977,/,1800657,/,1801337,/,1802017,/,1802697,/,1803377,/,1804057,/,1804737,/,1805417,/,1806097,/,1806777,/,1807457,/,1808137,/,1808817,/	t,t,t,t,t,t,t,t,t,t,t,t,t,t,t,t,t,t,t,t,t,t	"<div class = ""centerbox""><p class = ""center-block-text"">Your delay is 2 trials.</p><p class = center-block-text>Please wait for the scanner to start the block</p></div>"	77	15000.0	n/a	n/a	n/a	n/a	n/a	n/a	n/a	n/a	n/a	n/a	n/a	n/a	n/a	n/a	n/a	n/a	n/a	n/a	n/a	practice-no-stop-feedback
221972	500.0	n/a	-1	-1	500	0.0	fixation	poldrack-single-stim	678	1809790	0.0-27.0-0.0	beast_fmri_test	313	1809498,/	t	<div class = centerbox><div class = fixation>+</div></div>	none	500.0	test	n/a	n/a	n/a	n/a	n/a	n/a	n/a	n/a	n/a	n/a	n/a	n/a	n/a	n/a	n/a	n/a	n/a	n/a	fixation
221915.85681778006	2750.0	n/a	1132	71	2750	58.14318222	stim	stop-signal	679	1812542	0.0-27.0-1.0	beast_fmri_test	313	1810177,/,1810857,/,1811537,/,1812217,/	t,t,t,t	<img class = center src='/static/experiments/beast_fmri_test/images/D.png'></img>	89,71	2750.0	test	<img class = center src='/static/experiments/beast_fmri_test/images/redD.png'></img>	go	-1.0	2.0	0.0	go	temp-non-target	D	89,Yellow Button	71,Green Button	850.0	1200.0	1850.0	1550.0	0.0	n/a	n/a	n/a	go_stim
224665.85681778006	58.14318222	n/a	1132	71	2750	58.14318222	stim	stop-signal	679	1812542	0.0-27.0-1.0	beast_fmri_test	313	1810177,/,1810857,/,1811537,/,1812217,/	t,t,t,t	<img class = center src='/static/experiments/beast_fmri_test/images/D.png'></img>	89,71	2750.0	test	<img class = center src='/static/experiments/beast_fmri_test/images/redD.png'></img>	go	-1.0	2.0	0.0	go	temp-non-target	D	89,Yellow Button	71,Green Button	850.0	1200.0	1850.0	1550.0	0.0	n/a	n/a	n/a	ITI
225311	500.0	n/a	-1	-1	500	0.0	fixation	poldrack-single-stim	680	1813129	0.0-27.1-0.1	beast_fmri_test	313	1812897,/	t	<div class = centerbox><div class = fixation>+</div></div>	none	500.0	test	n/a	n/a	n/a	n/a	n/a	n/a	n/a	n/a	n/a	n/a	n/a	n/a	n/a	n/a	n/a	n/a	n/a	n/a	fixation
221409.60762099992	2750.0	n/a	1039	71	2750	3902.392379	stim	stop-signal	681	1815880	0.0-27.1-1.1	beast_fmri_test	313	1813576,/,1814258,/,1814937,/,1815618,/,1816298,/,1816977,/,1817657,/,1818338,/,1819017,/,1819698,/	t,t,t,t,t,t,t,t,t,t	<img class = center src='/static/experiments/beast_fmri_test/images/B.png'></img>	89,71	2750.0	test	<img class = center src='/static/experiments/beast_fmri_test/images/redB.png'></img>	go	-1.0	2.0	1.0	go	temp-non-target	B	89,Yellow Button	71,Green Button	850.0	1200.0	1850.0	1550.0	0.0	n/a	n/a	n/a	go_stim
224159.60762099992	3902.392379	n/a	1039	71	2750	3902.392379	stim	stop-signal	681	1815880	0.0-27.1-1.1	beast_fmri_test	313	1813576,/,1814258,/,1814937,/,1815618,/,1816298,/,1816977,/,1817657,/,1818338,/,1819017,/,1819698,/	t,t,t,t,t,t,t,t,t,t	<img class = center src='/static/experiments/beast_fmri_test/images/B.png'></img>	89,71	2750.0	test	<img class = center src='/static/experiments/beast_fmri_test/images/redB.png'></img>	go	-1.0	2.0	1.0	go	temp-non-target	B	89,Yellow Button	71,Green Button	850.0	1200.0	1850.0	1550.0	0.0	n/a	n/a	n/a	ITI
232491	500.0	n/a	-1	-1	500	0.0	fixation	poldrack-single-stim	682	1820309	0.0-27.2-0.2	beast_fmri_test	313	n/a	n/a	<div class = centerbox><div class = fixation>+</div></div>	none	500.0	test	n/a	n/a	n/a	n/a	n/a	n/a	n/a	n/a	n/a	n/a	n/a	n/a	n/a	n/a	n/a	n/a	n/a	n/a	fixation
231572.77119400003	2750.0	n/a	1443	89	2750	920.228806	stim	stop-signal	683	1823061	0.0-27.2-1.2	beast_fmri_test	313	1820378,/,1821057,/,1821738,/,1822417,/,1823097,/,1823778,/	t,t,t,t,t,t	<img class = center src='/static/experiments/beast_fmri_test/images/D.png'></img>	89,71	2750.0	test	<img class = center src='/static/experiments/beast_fmri_test/images/redD.png'></img>	go	1900.0	2.0	2.0	go	target	D	89,Yellow Button	71,Green Button	850.0	1200.0	1900.0	1550.0	1.0	n/a	850.0	1.0	go_stim
234322.77119400003	920.228806	n/a	1443	89	2750	920.228806	stim	stop-signal	683	1823061	0.0-27.2-1.2	beast_fmri_test	313	1820378,/,1821057,/,1821738,/,1822417,/,1823097,/,1823778,/	t,t,t,t,t,t	<img class = center src='/static/experiments/beast_fmri_test/images/D.png'></img>	89,71	2750.0	test	<img class = center src='/static/experiments/beast_fmri_test/images/redD.png'></img>	go	1900.0	2.0	2.0	go	target	D	89,Yellow Button	71,Green Button	850.0	1200.0	1900.0	1550.0	1.0	n/a	850.0	1.0	ITI
236692	500.0	n/a	-1	-1	500	0.0	fixation	poldrack-single-stim	684	1824510	0.0-27.3-0.3	beast_fmri_test	313	1824458,/	t	<div class = centerbox><div class = fixation>+</div></div>	none	500.0	test	n/a	n/a	n/a	n/a	n/a	n/a	n/a	n/a	n/a	n/a	n/a	n/a	n/a	n/a	n/a	n/a	n/a	n/a	fixation
235990.1313771999	2750.0	n/a	2013	71	2750	704.8686228	stim	stop-signal	685	1827263	0.0-27.3-1.3	beast_fmri_test	313	1825138,/,1825818,/,1826498,/,1827177,/,1827857,/	t,t,t,t,t	<img class = center src='/static/experiments/beast_fmri_test/images/D.png'></img>	89,71	2750.0	test	<img class = center src='/static/experiments/beast_fmri_test/images/redD.png'></img>	go	1550.0	2.0	3.0	go	non-target	D	89,Yellow Button	71,Green Button	850.0	1200.0	1900.0	1550.0	1.0	n/a	1200.0	1.0	go_stim
238740.1313771999	704.8686228	n/a	2013	71	2750	704.8686228	stim	stop-signal	685	1827263	0.0-27.3-1.3	beast_fmri_test	313	1825138,/,1825818,/,1826498,/,1827177,/,1827857,/	t,t,t,t,t	<img class = center src='/static/experiments/beast_fmri_test/images/D.png'></img>	89,71	2750.0	test	<img class = center src='/static/experiments/beast_fmri_test/images/redD.png'></img>	go	1550.0	2.0	3.0	go	non-target	D	89,Yellow Button	71,Green Button	850.0	1200.0	1900.0	1550.0	1.0	n/a	1200.0	1.0	ITI
240679	500.0	n/a	-1	-1	500	0.0	fixation	poldrack-single-stim	686	1828497	0.0-27.4-0.4	beast_fmri_test	313	n/a	n/a	<div class = centerbox><div class = fixation>+</div></div>	none	500.0	test	n/a	n/a	n/a	n/a	n/a	n/a	n/a	n/a	n/a	n/a	n/a	n/a	n/a	n/a	n/a	n/a	n/a	n/a	fixation
240510.43329480011	2750.0	n/a	1098	71	2750	171.5667052	stim	stop-signal	687	1831250	0.0-27.4-1.4	beast_fmri_test	313	1828538,/,1829217,/,1829898,/,1830577,/,1831257,/	t,t,t,t,t	<img class = center src='/static/experiments/beast_fmri_test/images/P.png'></img>	89,71	2750.0	test	<img class = center src='/static/experiments/beast_fmri_test/images/redP.png'></img>	go	1550.0	2.0	4.0	go	non-target	P	89,Yellow Button	71,Green Button	850.0	1200.0	1900.0	1550.0	1.0	n/a	1200.0	1.0	go_stim
243260.43329480011	171.5667052	n/a	1098	71	2750	171.5667052	stim	stop-signal	687	1831250	0.0-27.4-1.4	beast_fmri_test	313	1828538,/,1829217,/,1829898,/,1830577,/,1831257,/	t,t,t,t,t	<img class = center src='/static/experiments/beast_fmri_test/images/P.png'></img>	89,71	2750.0	test	<img class = center src='/static/experiments/beast_fmri_test/images/redP.png'></img>	go	1550.0	2.0	4.0	go	non-target	P	89,Yellow Button	71,Green Button	850.0	1200.0	1900.0	1550.0	1.0	n/a	1200.0	1.0	ITI
244128	500.0	n/a	-1	-1	500	0.0	fixation	poldrack-single-stim	688	1831946	0.0-27.5-0.5	beast_fmri_test	313	1831937,/	t	<div class = centerbox><div class = fixation>+</div></div>	none	500.0	test	n/a	n/a	n/a	n/a	n/a	n/a	n/a	n/a	n/a	n/a	n/a	n/a	n/a	n/a	n/a	n/a	n/a	n/a	fixation
243956.96320739994	2750.0	n/a	542	71	2750	174.0367926	stim	stop-signal	689	1834699	0.0-27.5-1.5	beast_fmri_test	313	1832617,/,1833297,/,1833977,/,1834657,/	t,t,t,t	<img class = center src='/static/experiments/beast_fmri_test/images/T.png'></img>	89,71	2750.0	test	<img class = center src='/static/experiments/beast_fmri_test/images/redT.png'></img>	go	1550.0	2.0	5.0	go	non-target	T	89,Yellow Button	71,Green Button	850.0	1200.0	1900.0	1550.0	1.0	n/a	1200.0	1.0	go_stim
246706.96320739994	174.0367926	n/a	542	71	2750	174.0367926	stim	stop-signal	689	1834699	0.0-27.5-1.5	beast_fmri_test	313	1832617,/,1833297,/,1833977,/,1834657,/	t,t,t,t	<img class = center src='/static/experiments/beast_fmri_test/images/T.png'></img>	89,71	2750.0	test	<img class = center src='/static/experiments/beast_fmri_test/images/redT.png'></img>	go	1550.0	2.0	5.0	go	non-target	T	89,Yellow Button	71,Green Button	850.0	1200.0	1900.0	1550.0	1.0	n/a	1200.0	1.0	ITI
247580	500.0	n/a	-1	-1	500	0.0	fixation	poldrack-single-stim	690	1835398	0.0-27.6-0.6	beast_fmri_test	313	1835338,/	t	<div class = centerbox><div class = fixation>+</div></div>	none	500.0	test	n/a	n/a	n/a	n/a	n/a	n/a	n/a	n/a	n/a	n/a	n/a	n/a	n/a	n/a	n/a	n/a	n/a	n/a	fixation
247193.17249220004	2750.0	n/a	943	89	2750	388.8275078	stim	stop-signal	691	1838150	0.0-27.6-1.6	beast_fmri_test	313	1836017,/,1836697,/,1837377,/,1838057,/	t,t,t,t	<img class = center src='/static/experiments/beast_fmri_test/images/P.png'></img>	89,71	2750.0	test	<img class = center src='/static/experiments/beast_fmri_test/images/redP.png'></img>	go	1900.0	2.0	6.0	go	target	P	89,Yellow Button	71,Green Button	850.0	1200.0	1900.0	1550.0	1.0	n/a	850.0	1.0	go_stim
249943.17249220004	388.8275078	n/a	943	89	2750	388.8275078	stim	stop-signal	691	1838150	0.0-27.6-1.6	beast_fmri_test	313	1836017,/,1836697,/,1837377,/,1838057,/	t,t,t,t	<img class = center src='/static/experiments/beast_fmri_test/images/P.png'></img>	89,71	2750.0	test	<img class = center src='/static/experiments/beast_fmri_test/images/redP.png'></img>	go	1900.0	2.0	6.0	go	target	P	89,Yellow Button	71,Green Button	850.0	1200.0	1900.0	1550.0	1.0	n/a	850.0	1.0	ITI
251244	500.0	n/a	-1	-1	500	0.0	fixation	poldrack-single-stim	692	1839062	0.0-27.7-0.7	beast_fmri_test	313	1838737,/	t	<div class = centerbox><div class = fixation>+</div></div>	none	500.0	test	n/a	n/a	n/a	n/a	n/a	n/a	n/a	n/a	n/a	n/a	n/a	n/a	n/a	n/a	n/a	n/a	n/a	n/a	fixation
251064.33923580009	2750.0	n/a	606	71	2750	182.6607642	stim	stop-signal	693	1841815	0.0-27.7-1.7	beast_fmri_test	313	1839417,/,1840098,/,1840777,/,1841457,/	t,t,t,t	<img class = center src='/static/experiments/beast_fmri_test/images/V.png'></img>	89,71	2750.0	test	<img class = center src='/static/experiments/beast_fmri_test/images/redV.png'></img>	go	1550.0	2.0	7.0	go	non-target	V	89,Yellow Button	71,Green Button	850.0	1200.0	1900.0	1550.0	1.0	n/a	1200.0	1.0	go_stim
253814.33923580009	182.6607642	n/a	606	71	2750	182.6607642	stim	stop-signal	693	1841815	0.0-27.7-1.7	beast_fmri_test	313	1839417,/,1840098,/,1840777,/,1841457,/	t,t,t,t	<img class = center src='/static/experiments/beast_fmri_test/images/V.png'></img>	89,71	2750.0	test	<img class = center src='/static/experiments/beast_fmri_test/images/redV.png'></img>	go	1550.0	2.0	7.0	go	non-target	V	89,Yellow Button	71,Green Button	850.0	1200.0	1900.0	1550.0	1.0	n/a	1200.0	1.0	ITI
254706	500.0	n/a	-1	-1	500	0.0	fixation	poldrack-single-stim	694	1842524	0.0-27.8-0.8	beast_fmri_test	313	1842137,/	t	<div class = centerbox><div class = fixation>+</div></div>	none	500.0	test	n/a	n/a	n/a	n/a	n/a	n/a	n/a	n/a	n/a	n/a	n/a	n/a	n/a	n/a	n/a	n/a	n/a	n/a	fixation
254445.00495869992	850.0	n/a	1052	89	2750	262.9950413	stim	stop-signal	695	1845276	0.0-27.8-1.8	beast_fmri_test	313	1842817,/,1843497,/,1844177,/,1844857,/,1845537,/	t,t,t,t,t	<img class = center src='/static/experiments/beast_fmri_test/images/P.png'></img>	89,71	2750.0	test	<img class = center src='/static/experiments/beast_fmri_test/images/redP.png'></img>	stop	1900.0	2.0	8.0	stop	target	P	89,Yellow Button	71,Green Button	850.0	1200.0	1900.0	1550.0	0.0	0.0	850.0	1.0	go_stim
256345.00495869992	1900.0	n/a	1052	89	2750	262.9950413	stim	stop-signal	695	1845276	0.0-27.8-1.8	beast_fmri_test	313	1842817,/,1843497,/,1844177,/,1844857,/,1845537,/	t,t,t,t,t	<img class = center src='/static/experiments/beast_fmri_test/images/P.png'></img>	89,71	2750.0	test	<img class = center src='/static/experiments/beast_fmri_test/images/redP.png'></img>	stop	1900.0	2.0	8.0	stop	target	P	89,Yellow Button	71,Green Button	850.0	1200.0	1900.0	1550.0	0.0	0.0	850.0	1.0	stop_stim
257195.00495869992	262.9950413	n/a	1052	89	2750	262.9950413	stim	stop-signal	695	1845276	0.0-27.8-1.8	beast_fmri_test	313	1842817,/,1843497,/,1844177,/,1844857,/,1845537,/	t,t,t,t,t	<img class = center src='/static/experiments/beast_fmri_test/images/P.png'></img>	89,71	2750.0	test	<img class = center src='/static/experiments/beast_fmri_test/images/redP.png'></img>	stop	1900.0	2.0	8.0	stop	target	P	89,Yellow Button	71,Green Button	850.0	1200.0	1900.0	1550.0	0.0	0.0	850.0	1.0	ITI
258244	500.0	n/a	-1	-1	500	0.0	fixation	poldrack-single-stim	696	1846062	0.0-27.9-0.9	beast_fmri_test	313	n/a	n/a	<div class = centerbox><div class = fixation>+</div></div>	none	500.0	test	n/a	n/a	n/a	n/a	n/a	n/a	n/a	n/a	n/a	n/a	n/a	n/a	n/a	n/a	n/a	n/a	n/a	n/a	fixation
256145.51291200006	1200.0	n/a	1890	71	2750	2100.487088	stim	stop-signal	697	1848814	0.0-27.9-1.9	beast_fmri_test	313	1846217,/,1846897,/,1847577,/,1848258,/,1848938,/,1849618,/,1850298,/	t,t,t,t,t,t,t	<img class = center src='/static/experiments/beast_fmri_test/images/D.png'></img>	89,71	2750.0	test	<img class = center src='/static/experiments/beast_fmri_test/images/redD.png'></img>	stop	1550.0	2.0	9.0	stop	non-target	D	89,Yellow Button	71,Green Button	800.0	1200.0	1900.0	1550.0	0.0	0.0	1200.0	1.0	go_stim
257695.51291200006	1550.0	n/a	1890	71	2750	2100.487088	stim	stop-signal	697	1848814	0.0-27.9-1.9	beast_fmri_test	313	1846217,/,1846897,/,1847577,/,1848258,/,1848938,/,1849618,/,1850298,/	t,t,t,t,t,t,t	<img class = center src='/static/experiments/beast_fmri_test/images/D.png'></img>	89,71	2750.0	test	<img class = center src='/static/experiments/beast_fmri_test/images/redD.png'></img>	stop	1550.0	2.0	9.0	stop	non-target	D	89,Yellow Button	71,Green Button	800.0	1200.0	1900.0	1550.0	0.0	0.0	1200.0	1.0	stop_stim
258895.51291200006	2100.487088	n/a	1890	71	2750	2100.487088	stim	stop-signal	697	1848814	0.0-27.9-1.9	beast_fmri_test	313	1846217,/,1846897,/,1847577,/,1848258,/,1848938,/,1849618,/,1850298,/	t,t,t,t,t,t,t	<img class = center src='/static/experiments/beast_fmri_test/images/D.png'></img>	89,71	2750.0	test	<img class = center src='/static/experiments/beast_fmri_test/images/redD.png'></img>	stop	1550.0	2.0	9.0	stop	non-target	D	89,Yellow Button	71,Green Button	800.0	1200.0	1900.0	1550.0	0.0	0.0	1200.0	1.0	ITI
263623	500.0	n/a	-1	-1	500	0.0	fixation	poldrack-single-stim	698	1851441	0.0-27.10-0.10	beast_fmri_test	313	1850978,/	t	<div class = centerbox><div class = fixation>+</div></div>	none	500.0	test	n/a	n/a	n/a	n/a	n/a	n/a	n/a	n/a	n/a	n/a	n/a	n/a	n/a	n/a	n/a	n/a	n/a	n/a	fixation
263002.38999309996	2750.0	n/a	994	89	2750	621.6100069	stim	stop-signal	699	1854192	0.0-27.10-1.10	beast_fmri_test	313	1851657,/,1852338,/,1853018,/,1853698,/,1854377,/	t,t,t,t,t	<img class = center src='/static/experiments/beast_fmri_test/images/D.png'></img>	89,71	2750.0	test	<img class = center src='/static/experiments/beast_fmri_test/images/redD.png'></img>	go	1600.0	2.0	10.0	go	non-target	D	89,Yellow Button	71,Green Button	800.0	1150.0	1900.0	1600.0	0.0	n/a	1150.0	0.0	go_stim
265752.38999309996	621.6100069	n/a	994	89	2750	621.6100069	stim	stop-signal	699	1854192	0.0-27.10-1.10	beast_fmri_test	313	1851657,/,1852338,/,1853018,/,1853698,/,1854377,/	t,t,t,t,t	<img class = center src='/static/experiments/beast_fmri_test/images/D.png'></img>	89,71	2750.0	test	<img class = center src='/static/experiments/beast_fmri_test/images/redD.png'></img>	go	1600.0	2.0	10.0	go	non-target	D	89,Yellow Button	71,Green Button	800.0	1150.0	1900.0	1600.0	0.0	n/a	1150.0	0.0	ITI
267522	500.0	n/a	-1	-1	500	0.0	fixation	poldrack-single-stim	700	1855340	0.0-27.11-0.11	beast_fmri_test	313	1855058,/	t	<div class = centerbox><div class = fixation>+</div></div>	none	500.0	test	n/a	n/a	n/a	n/a	n/a	n/a	n/a	n/a	n/a	n/a	n/a	n/a	n/a	n/a	n/a	n/a	n/a	n/a	fixation
266623.43353560008	2750.0	n/a	1359	89	2750	900.5664644	stim	stop-signal	701	1858092	0.0-27.11-1.11	beast_fmri_test	313	1855737,/,1856417,/,1857097,/,1857777,/,1858457,/	t,t,t,t,t	<img class = center src='/static/experiments/beast_fmri_test/images/D.png'></img>	89,71	2750.0	test	<img class = center src='/static/experiments/beast_fmri_test/images/redD.png'></img>	go	1950.0	2.0	11.0	go	target	D	89,Yellow Button	71,Green Button	800.0	1150.0	1950.0	1600.0	1.0	n/a	800.0	1.0	go_stim
269373.43353560008	900.5664644	n/a	1359	89	2750	900.5664644	stim	stop-signal	701	1858092	0.0-27.11-1.11	beast_fmri_test	313	1855737,/,1856417,/,1857097,/,1857777,/,1858457,/	t,t,t,t,t	<img class = center src='/static/experiments/beast_fmri_test/images/D.png'></img>	89,71	2750.0	test	<img class = center src='/static/experiments/beast_fmri_test/images/redD.png'></img>	go	1950.0	2.0	11.0	go	target	D	89,Yellow Button	71,Green Button	800.0	1150.0	1950.0	1600.0	1.0	n/a	800.0	1.0	ITI
271702	500.0	n/a	-1	-1	500	0.0	fixation	poldrack-single-stim	702	1859520	0.0-27.12-0.12	beast_fmri_test	313	1859138,/	t	<div class = centerbox><div class = fixation>+</div></div>	none	500.0	test	n/a	n/a	n/a	n/a	n/a	n/a	n/a	n/a	n/a	n/a	n/a	n/a	n/a	n/a	n/a	n/a	n/a	n/a	fixation
269946.09125300008	1150.0	n/a	-1	-1	2750	1757.908747	stim	stop-signal	703	1862272	0.0-27.12-1.12	beast_fmri_test	313	1859817,/,1860498,/,1861177,/,1861857,/,1862537,/,1863217,/,1863897,/	t,t,t,t,t,t,t	<img class = center src='/static/experiments/beast_fmri_test/images/B.png'></img>	89,71	2750.0	test	<img class = center src='/static/experiments/beast_fmri_test/images/redB.png'></img>	stop	1600.0	2.0	12.0	stop	non-target	B	89,Yellow Button	71,Green Button	800.0	1150.0	1950.0	1600.0	0.0	1.0	1150.0	0.0	go_stim
271546.09125300008	1600.0	n/a	-1	-1	2750	1757.908747	stim	stop-signal	703	1862272	0.0-27.12-1.12	beast_fmri_test	313	1859817,/,1860498,/,1861177,/,1861857,/,1862537,/,1863217,/,1863897,/	t,t,t,t,t,t,t	<img class = center src='/static/experiments/beast_fmri_test/images/B.png'></img>	89,71	2750.0	test	<img class = center src='/static/experiments/beast_fmri_test/images/redB.png'></img>	stop	1600.0	2.0	12.0	stop	non-target	B	89,Yellow Button	71,Green Button	800.0	1150.0	1950.0	1600.0	0.0	1.0	1150.0	0.0	stop_stim
272696.09125300008	1757.908747	n/a	-1	-1	2750	1757.908747	stim	stop-signal	703	1862272	0.0-27.12-1.12	beast_fmri_test	313	1859817,/,1860498,/,1861177,/,1861857,/,1862537,/,1863217,/,1863897,/	t,t,t,t,t,t,t	<img class = center src='/static/experiments/beast_fmri_test/images/B.png'></img>	89,71	2750.0	test	<img class = center src='/static/experiments/beast_fmri_test/images/redB.png'></img>	stop	1600.0	2.0	12.0	stop	non-target	B	89,Yellow Button	71,Green Button	800.0	1150.0	1950.0	1600.0	0.0	1.0	1150.0	0.0	ITI
276734	500.0	n/a	-1	-1	500	0.0	fixation	poldrack-single-stim	704	1864552	0.0-27.13-0.13	beast_fmri_test	313	n/a	n/a	<div class = centerbox><div class = fixation>+</div></div>	none	500.0	test	n/a	n/a	n/a	n/a	n/a	n/a	n/a	n/a	n/a	n/a	n/a	n/a	n/a	n/a	n/a	n/a	n/a	n/a	fixation
276658.39564898005	1200.0	n/a	813	71	2750	77.60435102	stim	stop-signal	705	1867304	0.0-27.13-1.13	beast_fmri_test	313	1864577,/,1865257,/,1865937,/,1866617,/,1867297,/	t,t,t,t,t	<img class = center src='/static/experiments/beast_fmri_test/images/P.png'></img>	89,71	2750.0	test	<img class = center src='/static/experiments/beast_fmri_test/images/redP.png'></img>	stop	1550.0	2.0	13.0	stop	non-target	P	89,Yellow Button	71,Green Button	800.0	1200.0	1950.0	1550.0	0.0	0.0	1200.0	1.0	go_stim
278208.39564898005	1550.0	n/a	813	71	2750	77.60435102	stim	stop-signal	705	1867304	0.0-27.13-1.13	beast_fmri_test	313	1864577,/,1865257,/,1865937,/,1866617,/,1867297,/	t,t,t,t,t	<img class = center src='/static/experiments/beast_fmri_test/images/P.png'></img>	89,71	2750.0	test	<img class = center src='/static/experiments/beast_fmri_test/images/redP.png'></img>	stop	1550.0	2.0	13.0	stop	non-target	P	89,Yellow Button	71,Green Button	800.0	1200.0	1950.0	1550.0	0.0	0.0	1200.0	1.0	stop_stim
279408.39564898005	77.60435102	n/a	813	71	2750	77.60435102	stim	stop-signal	705	1867304	0.0-27.13-1.13	beast_fmri_test	313	1864577,/,1865257,/,1865937,/,1866617,/,1867297,/	t,t,t,t,t	<img class = center src='/static/experiments/beast_fmri_test/images/P.png'></img>	89,71	2750.0	test	<img class = center src='/static/experiments/beast_fmri_test/images/redP.png'></img>	stop	1550.0	2.0	13.0	stop	non-target	P	89,Yellow Button	71,Green Button	800.0	1200.0	1950.0	1550.0	0.0	0.0	1200.0	1.0	ITI
280091	500.0	n/a	-1	-1	500	0.0	fixation	poldrack-single-stim	706	1867909	0.0-27.14-0.14	beast_fmri_test	313	n/a	n/a	<div class = centerbox><div class = fixation>+</div></div>	none	500.0	test	n/a	n/a	n/a	n/a	n/a	n/a	n/a	n/a	n/a	n/a	n/a	n/a	n/a	n/a	n/a	n/a	n/a	n/a	fixation
276863.60585599998	2750.0	n/a	2255	71	2750	3229.394144	stim	stop-signal	707	1870661	0.0-27.14-1.14	beast_fmri_test	313	1867977,/,1868657,/,1869337,/,1870017,/,1870698,/,1871377,/,1872057,/,1872737,/,1873417,/	t,t,t,t,t,t,t,t,t	<img class = center src='/static/experiments/beast_fmri_test/images/V.png'></img>	89,71	2750.0	test	<img class = center src='/static/experiments/beast_fmri_test/images/redV.png'></img>	go	1600.0	2.0	14.0	go	non-target	V	89,Yellow Button	71,Green Button	800.0	1150.0	1950.0	1600.0	1.0	n/a	1150.0	1.0	go_stim
279613.60585599998	3229.394144	n/a	2255	71	2750	3229.394144	stim	stop-signal	707	1870661	0.0-27.14-1.14	beast_fmri_test	313	1867977,/,1868657,/,1869337,/,1870017,/,1870698,/,1871377,/,1872057,/,1872737,/,1873417,/	t,t,t,t,t,t,t,t,t	<img class = center src='/static/experiments/beast_fmri_test/images/V.png'></img>	89,71	2750.0	test	<img class = center src='/static/experiments/beast_fmri_test/images/redV.png'></img>	go	1600.0	2.0	14.0	go	non-target	V	89,Yellow Button	71,Green Button	800.0	1150.0	1950.0	1600.0	1.0	n/a	1150.0	1.0	ITI
286598	500.0	n/a	-1	-1	500	0.0	fixation	poldrack-single-stim	708	1874416	0.0-27.15-0.15	beast_fmri_test	313	1874097,/	t	<div class = centerbox><div class = fixation>+</div></div>	none	500.0	test	n/a	n/a	n/a	n/a	n/a	n/a	n/a	n/a	n/a	n/a	n/a	n/a	n/a	n/a	n/a	n/a	n/a	n/a	fixation
284861.34506099997	800.0	n/a	-1	-1	2750	1737.654939	stim	stop-signal	709	1877167	0.0-27.15-1.15	beast_fmri_test	313	1874777,/,1875457,/,1876137,/,1876817,/,1877497,/,1878176,/,1878857,/	t,t,t,t,t,t,t	<img class = center src='/static/experiments/beast_fmri_test/images/P.png'></img>	89,71	2750.0	test	<img class = center src='/static/experiments/beast_fmri_test/images/redP.png'></img>	stop	1950.0	2.0	15.0	stop	target	P	89,Yellow Button	71,Green Button	800.0	1150.0	1950.0	1600.0	0.0	1.0	800.0	0.0	go_stim
286811.34506099997	1950.0	n/a	-1	-1	2750	1737.654939	stim	stop-signal	709	1877167	0.0-27.15-1.15	beast_fmri_test	313	1874777,/,1875457,/,1876137,/,1876817,/,1877497,/,1878176,/,1878857,/	t,t,t,t,t,t,t	<img class = center src='/static/experiments/beast_fmri_test/images/P.png'></img>	89,71	2750.0	test	<img class = center src='/static/experiments/beast_fmri_test/images/redP.png'></img>	stop	1950.0	2.0	15.0	stop	target	P	89,Yellow Button	71,Green Button	800.0	1150.0	1950.0	1600.0	0.0	1.0	800.0	0.0	stop_stim
287611.34506099997	1737.654939	n/a	-1	-1	2750	1737.654939	stim	stop-signal	709	1877167	0.0-27.15-1.15	beast_fmri_test	313	1874777,/,1875457,/,1876137,/,1876817,/,1877497,/,1878176,/,1878857,/	t,t,t,t,t,t,t	<img class = center src='/static/experiments/beast_fmri_test/images/P.png'></img>	89,71	2750.0	test	<img class = center src='/static/experiments/beast_fmri_test/images/redP.png'></img>	stop	1950.0	2.0	15.0	stop	target	P	89,Yellow Button	71,Green Button	800.0	1150.0	1950.0	1600.0	0.0	1.0	800.0	0.0	ITI
291615	500.0	n/a	-1	-1	500	0.0	fixation	poldrack-single-stim	710	1879433	0.0-27.16-0.16	beast_fmri_test	313	n/a	n/a	<div class = centerbox><div class = fixation>+</div></div>	none	500.0	test	n/a	n/a	n/a	n/a	n/a	n/a	n/a	n/a	n/a	n/a	n/a	n/a	n/a	n/a	n/a	n/a	n/a	n/a	fixation
290925.16383210011	2750.0	n/a	1463	71	2750	691.8361679	stim	stop-signal	711	1882185	0.0-27.16-1.16	beast_fmri_test	313	1879537,/,1880217,/,1880897,/,1881577,/,1882258,/	t,t,t,t,t	<img class = center src='/static/experiments/beast_fmri_test/images/V.png'></img>	89,71	2750.0	test	<img class = center src='/static/experiments/beast_fmri_test/images/redV.png'></img>	go	1900.0	2.0	16.0	go	target	V	89,Yellow Button	71,Green Button	850.0	1150.0	1900.0	1600.0	0.0	n/a	850.0	0.0	go_stim
293675.16383210011	691.8361679	n/a	1463	71	2750	691.8361679	stim	stop-signal	711	1882185	0.0-27.16-1.16	beast_fmri_test	313	1879537,/,1880217,/,1880897,/,1881577,/,1882258,/	t,t,t,t,t	<img class = center src='/static/experiments/beast_fmri_test/images/V.png'></img>	89,71	2750.0	test	<img class = center src='/static/experiments/beast_fmri_test/images/redV.png'></img>	go	1900.0	2.0	16.0	go	target	V	89,Yellow Button	71,Green Button	850.0	1150.0	1900.0	1600.0	0.0	n/a	850.0	0.0	ITI
295587	500.0	n/a	-1	-1	500	0.0	fixation	poldrack-single-stim	712	1883405	0.0-27.17-0.17	beast_fmri_test	313	1882938,/	t	<div class = centerbox><div class = fixation>+</div></div>	none	500.0	test	n/a	n/a	n/a	n/a	n/a	n/a	n/a	n/a	n/a	n/a	n/a	n/a	n/a	n/a	n/a	n/a	n/a	n/a	fixation
294886.42749990011	2750.0	n/a	2164	71	2750	702.5725001	stim	stop-signal	713	1886157	0.0-27.17-1.17	beast_fmri_test	313	1883617,/,1884297,/,1884977,/,1885658,/,1886337,/	t,t,t,t,t	<img class = center src='/static/experiments/beast_fmri_test/images/T.png'></img>	89,71	2750.0	test	<img class = center src='/static/experiments/beast_fmri_test/images/redT.png'></img>	go	1600.0	2.0	17.0	go	non-target	T	89,Yellow Button	71,Green Button	850.0	1150.0	1900.0	1600.0	1.0	n/a	1150.0	1.0	go_stim
297636.42749990011	702.5725001	n/a	2164	71	2750	702.5725001	stim	stop-signal	713	1886157	0.0-27.17-1.17	beast_fmri_test	313	1883617,/,1884297,/,1884977,/,1885658,/,1886337,/	t,t,t,t,t	<img class = center src='/static/experiments/beast_fmri_test/images/T.png'></img>	89,71	2750.0	test	<img class = center src='/static/experiments/beast_fmri_test/images/redT.png'></img>	go	1600.0	2.0	17.0	go	non-target	T	89,Yellow Button	71,Green Button	850.0	1150.0	1900.0	1600.0	1.0	n/a	1150.0	1.0	ITI
299572	500.0	n/a	-1	-1	500	0.0	fixation	poldrack-single-stim	714	1887390	0.0-27.18-0.18	beast_fmri_test	313	1887017,/	t	<div class = centerbox><div class = fixation>+</div></div>	none	500.0	test	n/a	n/a	n/a	n/a	n/a	n/a	n/a	n/a	n/a	n/a	n/a	n/a	n/a	n/a	n/a	n/a	n/a	n/a	fixation
299202.77205109992	1150.0	n/a	1442	71	2750	371.2279489	stim	stop-signal	715	1890142	0.0-27.18-1.18	beast_fmri_test	313	1887698,/,1888377,/,1889057,/,1889737,/,1890417,/	t,t,t,t,t	<img class = center src='/static/experiments/beast_fmri_test/images/T.png'></img>	89,71	2750.0	test	<img class = center src='/static/experiments/beast_fmri_test/images/redT.png'></img>	stop	1600.0	2.0	18.0	stop	non-target	T	89,Yellow Button	71,Green Button	850.0	1150.0	1900.0	1600.0	0.0	0.0	1150.0	1.0	go_stim
300802.77205109992	1600.0	n/a	1442	71	2750	371.2279489	stim	stop-signal	715	1890142	0.0-27.18-1.18	beast_fmri_test	313	1887698,/,1888377,/,1889057,/,1889737,/,1890417,/	t,t,t,t,t	<img class = center src='/static/experiments/beast_fmri_test/images/T.png'></img>	89,71	2750.0	test	<img class = center src='/static/experiments/beast_fmri_test/images/redT.png'></img>	stop	1600.0	2.0	18.0	stop	non-target	T	89,Yellow Button	71,Green Button	850.0	1150.0	1900.0	1600.0	0.0	0.0	1150.0	1.0	stop_stim
301952.77205109992	371.2279489	n/a	1442	71	2750	371.2279489	stim	stop-signal	715	1890142	0.0-27.18-1.18	beast_fmri_test	313	1887698,/,1888377,/,1889057,/,1889737,/,1890417,/	t,t,t,t,t	<img class = center src='/static/experiments/beast_fmri_test/images/T.png'></img>	89,71	2750.0	test	<img class = center src='/static/experiments/beast_fmri_test/images/redT.png'></img>	stop	1600.0	2.0	18.0	stop	non-target	T	89,Yellow Button	71,Green Button	850.0	1150.0	1900.0	1600.0	0.0	0.0	1150.0	1.0	ITI
303223	500.0	n/a	-1	-1	500	0.0	fixation	poldrack-single-stim	716	1891041	0.0-27.19-0.19	beast_fmri_test	313	n/a	n/a	<div class = centerbox><div class = fixation>+</div></div>	none	500.0	test	n/a	n/a	n/a	n/a	n/a	n/a	n/a	n/a	n/a	n/a	n/a	n/a	n/a	n/a	n/a	n/a	n/a	n/a	fixation
300419.51863400009	1100.0	n/a	864	71	2750	2806.481366	stim	stop-signal	717	1893794	0.0-27.19-1.19	beast_fmri_test	313	1891099,/,1891778,/,1892457,/,1893137,/,1893817,/,1894497,/,1895177,/,1895857,/,1896537,/	t,t,t,t,t,t,t,t,t	<img class = center src='/static/experiments/beast_fmri_test/images/P.png'></img>	89,71	2750.0	test	<img class = center src='/static/experiments/beast_fmri_test/images/redP.png'></img>	stop	1650.0	2.0	19.0	stop	non-target	P	89,Yellow Button	71,Green Button	850.0	1100.0	1900.0	1650.0	0.0	0.0	1100.0	1.0	go_stim
302069.51863400009	1650.0	n/a	864	71	2750	2806.481366	stim	stop-signal	717	1893794	0.0-27.19-1.19	beast_fmri_test	313	1891099,/,1891778,/,1892457,/,1893137,/,1893817,/,1894497,/,1895177,/,1895857,/,1896537,/	t,t,t,t,t,t,t,t,t	<img class = center src='/static/experiments/beast_fmri_test/images/P.png'></img>	89,71	2750.0	test	<img class = center src='/static/experiments/beast_fmri_test/images/redP.png'></img>	stop	1650.0	2.0	19.0	stop	non-target	P	89,Yellow Button	71,Green Button	850.0	1100.0	1900.0	1650.0	0.0	0.0	1100.0	1.0	stop_stim
303169.51863400009	2806.481366	n/a	864	71	2750	2806.481366	stim	stop-signal	717	1893794	0.0-27.19-1.19	beast_fmri_test	313	1891099,/,1891778,/,1892457,/,1893137,/,1893817,/,1894497,/,1895177,/,1895857,/,1896537,/	t,t,t,t,t,t,t,t,t	<img class = center src='/static/experiments/beast_fmri_test/images/P.png'></img>	89,71	2750.0	test	<img class = center src='/static/experiments/beast_fmri_test/images/redP.png'></img>	stop	1650.0	2.0	19.0	stop	non-target	P	89,Yellow Button	71,Green Button	850.0	1100.0	1900.0	1650.0	0.0	0.0	1100.0	1.0	ITI
309307	500.0	n/a	-1	-1	500	0.0	fixation	poldrack-single-stim	718	1897125	0.0-27.20-0.20	beast_fmri_test	313	n/a	n/a	<div class = centerbox><div class = fixation>+</div></div>	none	500.0	test	n/a	n/a	n/a	n/a	n/a	n/a	n/a	n/a	n/a	n/a	n/a	n/a	n/a	n/a	n/a	n/a	n/a	n/a	fixation
308249.51207900001	1050.0	n/a	-1	-1	2750	1058.487921	stim	stop-signal	719	1899876	0.0-27.20-1.20	beast_fmri_test	313	1897217,/,1897897,/,1898577,/,1899257,/,1899937,/,1900617,/	t,t,t,t,t,t	<img class = center src='/static/experiments/beast_fmri_test/images/V.png'></img>	89,71	2750.0	test	<img class = center src='/static/experiments/beast_fmri_test/images/redV.png'></img>	stop	1700.0	2.0	20.0	stop	non-target	V	89,Yellow Button	71,Green Button	850.0	1050.0	1900.0	1700.0	0.0	1.0	1050.0	0.0	go_stim
309949.51207900001	1700.0	n/a	-1	-1	2750	1058.487921	stim	stop-signal	719	1899876	0.0-27.20-1.20	beast_fmri_test	313	1897217,/,1897897,/,1898577,/,1899257,/,1899937,/,1900617,/	t,t,t,t,t,t	<img class = center src='/static/experiments/beast_fmri_test/images/V.png'></img>	89,71	2750.0	test	<img class = center src='/static/experiments/beast_fmri_test/images/redV.png'></img>	stop	1700.0	2.0	20.0	stop	non-target	V	89,Yellow Button	71,Green Button	850.0	1050.0	1900.0	1700.0	0.0	1.0	1050.0	0.0	stop_stim
310999.51207900001	1058.487921	n/a	-1	-1	2750	1058.487921	stim	stop-signal	719	1899876	0.0-27.20-1.20	beast_fmri_test	313	1897217,/,1897897,/,1898577,/,1899257,/,1899937,/,1900617,/	t,t,t,t,t,t	<img class = center src='/static/experiments/beast_fmri_test/images/V.png'></img>	89,71	2750.0	test	<img class = center src='/static/experiments/beast_fmri_test/images/redV.png'></img>	stop	1700.0	2.0	20.0	stop	non-target	V	89,Yellow Button	71,Green Button	850.0	1050.0	1900.0	1700.0	0.0	1.0	1050.0	0.0	ITI
313645	500.0	n/a	-1	-1	500	0.0	fixation	poldrack-single-stim	720	1901463	0.0-27.21-0.21	beast_fmri_test	313	1901298,/	t	<div class = centerbox><div class = fixation>+</div></div>	none	500.0	test	n/a	n/a	n/a	n/a	n/a	n/a	n/a	n/a	n/a	n/a	n/a	n/a	n/a	n/a	n/a	n/a	n/a	n/a	fixation
313345.40320859989	2750.0	n/a	1937	71	2750	300.5967914	stim	stop-signal	721	1904214	0.0-27.21-1.21	beast_fmri_test	313	1901977,/,1902657,/,1903337,/,1904017,/	t,t,t,t	<img class = center src='/static/experiments/beast_fmri_test/images/T.png'></img>	89,71	2750.0	test	<img class = center src='/static/experiments/beast_fmri_test/images/redT.png'></img>	go	1650.0	2.0	21.0	go	non-target	T	89,Yellow Button	71,Green Button	850.0	1100.0	1900.0	1650.0	1.0	n/a	1100.0	1.0	go_stim
316095.40320859989	300.5967914	n/a	1937	71	2750	300.5967914	stim	stop-signal	721	1904214	0.0-27.21-1.21	beast_fmri_test	313	1901977,/,1902657,/,1903337,/,1904017,/	t,t,t,t	<img class = center src='/static/experiments/beast_fmri_test/images/T.png'></img>	89,71	2750.0	test	<img class = center src='/static/experiments/beast_fmri_test/images/redT.png'></img>	go	1650.0	2.0	21.0	go	non-target	T	89,Yellow Button	71,Green Button	850.0	1100.0	1900.0	1650.0	1.0	n/a	1100.0	1.0	ITI
317227	500.0	n/a	-1	-1	500	0.0	fixation	poldrack-single-stim	722	1905045	0.0-27.22-0.22	beast_fmri_test	313	1904697,/	t	<div class = centerbox><div class = fixation>+</div></div>	none	500.0	test	n/a	n/a	n/a	n/a	n/a	n/a	n/a	n/a	n/a	n/a	n/a	n/a	n/a	n/a	n/a	n/a	n/a	n/a	fixation
315774.0717480001	850.0	n/a	-1	-1	2750	1454.928252	stim	stop-signal	723	1907797	0.0-27.22-1.22	beast_fmri_test	313	1905377,/,1906057,/,1906737,/,1907417,/,1908097,/,1908777,/	t,t,t,t,t,t	<img class = center src='/static/experiments/beast_fmri_test/images/V.png'></img>	89,71	2750.0	test	<img class = center src='/static/experiments/beast_fmri_test/images/redV.png'></img>	stop	1900.0	2.0	22.0	stop	target	V	89,Yellow Button	71,Green Button	850.0	1100.0	1900.0	1650.0	0.0	1.0	850.0	0.0	go_stim
317674.0717480001	1900.0	n/a	-1	-1	2750	1454.928252	stim	stop-signal	723	1907797	0.0-27.22-1.22	beast_fmri_test	313	1905377,/,1906057,/,1906737,/,1907417,/,1908097,/,1908777,/	t,t,t,t,t,t	<img class = center src='/static/experiments/beast_fmri_test/images/V.png'></img>	89,71	2750.0	test	<img class = center src='/static/experiments/beast_fmri_test/images/redV.png'></img>	stop	1900.0	2.0	22.0	stop	target	V	89,Yellow Button	71,Green Button	850.0	1100.0	1900.0	1650.0	0.0	1.0	850.0	0.0	stop_stim
