onset	duration	ttttttttttttttttttt	rt	key_press	block_duration	timing_post_trial	trial_id	trial_type	trial_index	time_elapsed	internal_node_id	exp_id	subject_id	trigger_times	triggers	stimulus	possible_responses	stim_duration	exp_stage	SS_stimulus	SS_trial_type	SS_duration	load	trial_num	stop_trial_type	adaptive_trial_type	stim	yes_response_key	no_response_key	SSD_target	SSD_non_target	SSTarget	SSNonTarget	go_acc	stop_acc	SS_delay	adaptive_acc	new_trial_type
test	10880	n/a	-1	-1	10880	0.0	practice-no-stop-feedback	poldrack-single-stim	394	1086186	0.0-18.0	beast_fmri_test	386	1075306,/,1075984,/,1076664,/,1077344,/,1078024,/,1078704,/,1079384,/,1080064,/,1080744,/,1081424,/,1082104,/,1082785,/,1083464,/,1084144,/,1084824,/,1085504,/,1086184,/	t,t,t,t,t,t,t,t,t,t,t,t,t,t,t,t,t	"<div class = ""centerbox2_2""><p class = ""block-text2"">Your delay is 2 trials.</p><p class = block-text2>Please wait for the scanner to start the block</p></div>"	77	10880.0	n/a	n/a	n/a	n/a	n/a	n/a	n/a	n/a	n/a	n/a	n/a	n/a	n/a	n/a	n/a	n/a	n/a	n/a	n/a	start_functional_block
11382	500	n/a	-1	-1	500	0.0	fixation	poldrack-single-stim	395	1086688	0.0-19.0-0.0	beast_fmri_test	386	n/a	n/a	<div class = centerbox2><div class = fixation>+</div></div>	none	500.0	test	n/a	n/a	n/a	n/a	n/a	n/a	n/a	n/a	n/a	n/a	n/a	n/a	n/a	n/a	n/a	n/a	n/a	n/a	fixation
9117.2344690000173	2750	n/a	881	89	2750	2266.765531	stim	stop-signal	396	1089440	0.0-19.0-1.0	beast_fmri_test	386	1086864,/,1087544,/,1088224,/,1088904,/,1089584,/,1090264,/,1090944,/,1091624,/	t,t,t,t,t,t,t,t	<img class = center src='/static/experiments/beast_fmri_test/images/P.png'></img>	71,89	2750.0	test	<img class = center src='/static/experiments/beast_fmri_test/images/redP.png'></img>	go	-1.0	2.0	0.0	go	temp-non-target	P	71,Index Finger	89,Middle Finger	800.0	1000.0	2000.0	1750.0	0.0	n/a	n/a	n/a	go_stim
11867.234469000017	2266.765531	n/a	881	89	2750	2266.765531	stim	stop-signal	396	1089440	0.0-19.0-1.0	beast_fmri_test	386	1086864,/,1087544,/,1088224,/,1088904,/,1089584,/,1090264,/,1090944,/,1091624,/	t,t,t,t,t,t,t,t	<img class = center src='/static/experiments/beast_fmri_test/images/P.png'></img>	71,89	2750.0	test	<img class = center src='/static/experiments/beast_fmri_test/images/redP.png'></img>	go	-1.0	2.0	0.0	go	temp-non-target	P	71,Index Finger	89,Middle Finger	800.0	1000.0	2000.0	1750.0	0.0	n/a	n/a	n/a	ITI
16914	500	n/a	-1	-1	500	0.0	fixation	poldrack-single-stim	397	1092220	0.0-19.1-0.1	beast_fmri_test	386	n/a	n/a	<div class = centerbox2><div class = fixation>+</div></div>	none	500.0	test	n/a	n/a	n/a	n/a	n/a	n/a	n/a	n/a	n/a	n/a	n/a	n/a	n/a	n/a	n/a	n/a	n/a	n/a	fixation
16597.876189700095	temp_go_duration	n/a	694	89	2750	319.1238103	stim	stop-signal	398	1094973	0.0-19.1-1.1	beast_fmri_test	386	1092304,/,1092984,/,1093664,/,1094343,/,1095023,/	t,t,t,t,t	<img class = center src='/static/experiments/beast_fmri_test/images/V.png'></img>	71,89	2750.0	test	<img class = center src='/static/experiments/beast_fmri_test/images/redV.png'></img>	stop	-1.0	2.0	1.0	stop	temp-non-target	V	71,Index Finger	89,Middle Finger	800.0	1000.0	2000.0	1750.0	0.0	0.0	n/a	n/a	go_stim
temp-non-target	temp_stop_duration	n/a	694	89	2750	319.1238103	stim	stop-signal	398	1094973	0.0-19.1-1.1	beast_fmri_test	386	1092304,/,1092984,/,1093664,/,1094343,/,1095023,/	t,t,t,t,t	<img class = center src='/static/experiments/beast_fmri_test/images/V.png'></img>	71,89	2750.0	test	<img class = center src='/static/experiments/beast_fmri_test/images/redV.png'></img>	stop	-1.0	2.0	1.0	stop	temp-non-target	V	71,Index Finger	89,Middle Finger	800.0	1000.0	2000.0	1750.0	0.0	0.0	n/a	n/a	stop_stim
19347.876189700095	319.1238103	n/a	694	89	2750	319.1238103	stim	stop-signal	398	1094973	0.0-19.1-1.1	beast_fmri_test	386	1092304,/,1092984,/,1093664,/,1094343,/,1095023,/	t,t,t,t,t	<img class = center src='/static/experiments/beast_fmri_test/images/V.png'></img>	71,89	2750.0	test	<img class = center src='/static/experiments/beast_fmri_test/images/redV.png'></img>	stop	-1.0	2.0	1.0	stop	temp-non-target	V	71,Index Finger	89,Middle Finger	800.0	1000.0	2000.0	1750.0	0.0	0.0	n/a	n/a	ITI
20501	500	n/a	-1	-1	500	0.0	fixation	poldrack-single-stim	399	1095807	0.0-19.2-0.2	beast_fmri_test	386	1095704,/	t	<div class = centerbox2><div class = fixation>+</div></div>	none	500.0	test	n/a	n/a	n/a	n/a	n/a	n/a	n/a	n/a	n/a	n/a	n/a	n/a	n/a	n/a	n/a	n/a	n/a	n/a	fixation
18990.726138999918	1000.0	n/a	722	89	2750	1513.273861	stim	stop-signal	400	1098560	0.0-19.2-1.2	beast_fmri_test	386	1096384,/,1097063,/,1097744,/,1098424,/,1099104,/,1099784,/	t,t,t,t,t,t	<img class = center src='/static/experiments/beast_fmri_test/images/D.png'></img>	71,89	2750.0	test	<img class = center src='/static/experiments/beast_fmri_test/images/redD.png'></img>	stop	1750.0	2.0	2.0	stop	non-target	D	71,Index Finger	89,Middle Finger	800.0	1000.0	2000.0	1750.0	0.0	0.0	1000.0	n/a	go_stim
20740.726138999918	1750.0	n/a	722	89	2750	1513.273861	stim	stop-signal	400	1098560	0.0-19.2-1.2	beast_fmri_test	386	1096384,/,1097063,/,1097744,/,1098424,/,1099104,/,1099784,/	t,t,t,t,t,t	<img class = center src='/static/experiments/beast_fmri_test/images/D.png'></img>	71,89	2750.0	test	<img class = center src='/static/experiments/beast_fmri_test/images/redD.png'></img>	stop	1750.0	2.0	2.0	stop	non-target	D	71,Index Finger	89,Middle Finger	800.0	1000.0	2000.0	1750.0	0.0	0.0	1000.0	n/a	stop_stim
21740.726138999918	1513.2738609999999	n/a	722	89	2750	1513.273861	stim	stop-signal	400	1098560	0.0-19.2-1.2	beast_fmri_test	386	1096384,/,1097063,/,1097744,/,1098424,/,1099104,/,1099784,/	t,t,t,t,t,t	<img class = center src='/static/experiments/beast_fmri_test/images/D.png'></img>	71,89	2750.0	test	<img class = center src='/static/experiments/beast_fmri_test/images/redD.png'></img>	stop	1750.0	2.0	2.0	stop	non-target	D	71,Index Finger	89,Middle Finger	800.0	1000.0	2000.0	1750.0	0.0	0.0	1000.0	n/a	ITI
25283	500	n/a	-1	-1	500	0.0	fixation	poldrack-single-stim	401	1100589	0.0-19.3-0.3	beast_fmri_test	386	1100463,/	t	<div class = centerbox2><div class = fixation>+</div></div>	none	500.0	test	n/a	n/a	n/a	n/a	n/a	n/a	n/a	n/a	n/a	n/a	n/a	n/a	n/a	n/a	n/a	n/a	n/a	n/a	fixation
24191.137945000082	950.0	n/a	848	89	2750	1093.862055	stim	stop-signal	402	1103341	0.0-19.3-1.3	beast_fmri_test	386	1101143,/,1101823,/,1102503,/,1103184,/,1103863,/	t,t,t,t,t	<img class = center src='/static/experiments/beast_fmri_test/images/T.png'></img>	71,89	2750.0	test	<img class = center src='/static/experiments/beast_fmri_test/images/redT.png'></img>	stop	1800.0	2.0	3.0	stop	non-target	T	71,Index Finger	89,Middle Finger	800.0	950.0	2000.0	1800.0	0.0	0.0	950.0	n/a	go_stim
25991.137945000082	1800.0	n/a	848	89	2750	1093.862055	stim	stop-signal	402	1103341	0.0-19.3-1.3	beast_fmri_test	386	1101143,/,1101823,/,1102503,/,1103184,/,1103863,/	t,t,t,t,t	<img class = center src='/static/experiments/beast_fmri_test/images/T.png'></img>	71,89	2750.0	test	<img class = center src='/static/experiments/beast_fmri_test/images/redT.png'></img>	stop	1800.0	2.0	3.0	stop	non-target	T	71,Index Finger	89,Middle Finger	800.0	950.0	2000.0	1800.0	0.0	0.0	950.0	n/a	stop_stim
26941.137945000082	1093.8620550000001	n/a	848	89	2750	1093.862055	stim	stop-signal	402	1103341	0.0-19.3-1.3	beast_fmri_test	386	1101143,/,1101823,/,1102503,/,1103184,/,1103863,/	t,t,t,t,t	<img class = center src='/static/experiments/beast_fmri_test/images/T.png'></img>	71,89	2750.0	test	<img class = center src='/static/experiments/beast_fmri_test/images/redT.png'></img>	stop	1800.0	2.0	3.0	stop	non-target	T	71,Index Finger	89,Middle Finger	800.0	950.0	2000.0	1800.0	0.0	0.0	950.0	n/a	ITI
29644	500	n/a	-1	-1	500	0.0	fixation	poldrack-single-stim	403	1104950	0.0-19.4-0.4	beast_fmri_test	386	1104544,/	t	<div class = centerbox2><div class = fixation>+</div></div>	none	500.0	test	n/a	n/a	n/a	n/a	n/a	n/a	n/a	n/a	n/a	n/a	n/a	n/a	n/a	n/a	n/a	n/a	n/a	n/a	fixation
25433.673575999914	2750	n/a	1117	89	2750	4211.326424	stim	stop-signal	404	1107701	0.0-19.4-1.4	beast_fmri_test	386	1105225,/,1105904,/,1106584,/,1107265,/,1107944,/,1108624,/,1109304,/,1109984,/,1110664,/,1111344,/	t,t,t,t,t,t,t,t,t,t	<img class = center src='/static/experiments/beast_fmri_test/images/T.png'></img>	71,89	2750.0	test	<img class = center src='/static/experiments/beast_fmri_test/images/redT.png'></img>	go	1850.0	2.0	4.0	go	non-target	T	71,Index Finger	89,Middle Finger	800.0	900.0	2000.0	1850.0	1.0	n/a	900.0	1.0	go_stim
28183.673575999914	4211.3264239999999	n/a	1117	89	2750	4211.326424	stim	stop-signal	404	1107701	0.0-19.4-1.4	beast_fmri_test	386	1105225,/,1105904,/,1106584,/,1107265,/,1107944,/,1108624,/,1109304,/,1109984,/,1110664,/,1111344,/	t,t,t,t,t,t,t,t,t,t	<img class = center src='/static/experiments/beast_fmri_test/images/T.png'></img>	71,89	2750.0	test	<img class = center src='/static/experiments/beast_fmri_test/images/redT.png'></img>	go	1850.0	2.0	4.0	go	non-target	T	71,Index Finger	89,Middle Finger	800.0	900.0	2000.0	1850.0	1.0	n/a	900.0	1.0	ITI
37121	500	n/a	-1	-1	500	0.0	fixation	poldrack-single-stim	405	1112427	0.0-19.5-0.5	beast_fmri_test	386	1112024,/	t	<div class = centerbox2><div class = fixation>+</div></div>	none	500.0	test	n/a	n/a	n/a	n/a	n/a	n/a	n/a	n/a	n/a	n/a	n/a	n/a	n/a	n/a	n/a	n/a	n/a	n/a	fixation
36633.04302709992	2750	n/a	882	71	2750	489.9569729	stim	stop-signal	406	1115179	0.0-19.5-1.5	beast_fmri_test	386	1112704,/,1113384,/,1114064,/,1114744,/,1115424,/	t,t,t,t,t	<img class = center src='/static/experiments/beast_fmri_test/images/T.png'></img>	71,89	2750.0	test	<img class = center src='/static/experiments/beast_fmri_test/images/redT.png'></img>	go	1950.0	2.0	5.0	go	target	T	71,Index Finger	89,Middle Finger	800.0	900.0	1950.0	1850.0	1.0	n/a	800.0	1.0	go_stim
39383.04302709992	489.95697289999993	n/a	882	71	2750	489.9569729	stim	stop-signal	406	1115179	0.0-19.5-1.5	beast_fmri_test	386	1112704,/,1113384,/,1114064,/,1114744,/,1115424,/	t,t,t,t,t	<img class = center src='/static/experiments/beast_fmri_test/images/T.png'></img>	71,89	2750.0	test	<img class = center src='/static/experiments/beast_fmri_test/images/redT.png'></img>	go	1950.0	2.0	5.0	go	target	T	71,Index Finger	89,Middle Finger	800.0	900.0	1950.0	1850.0	1.0	n/a	800.0	1.0	ITI
40875	500	n/a	-1	-1	500	0.0	fixation	poldrack-single-stim	407	1116181	0.0-19.6-0.6	beast_fmri_test	386	1116104,/	t	<div class = centerbox2><div class = fixation>+</div></div>	none	500.0	test	n/a	n/a	n/a	n/a	n/a	n/a	n/a	n/a	n/a	n/a	n/a	n/a	n/a	n/a	n/a	n/a	n/a	n/a	fixation
39818.114093000069	2750	n/a	1011	89	2750	1058.885907	stim	stop-signal	408	1118933	0.0-19.6-1.6	beast_fmri_test	386	1116784,/,1117464,/,1118144,/,1118824,/,1119504,/	t,t,t,t,t	<img class = center src='/static/experiments/beast_fmri_test/images/V.png'></img>	71,89	2750.0	test	<img class = center src='/static/experiments/beast_fmri_test/images/redV.png'></img>	go	1850.0	2.0	6.0	go	non-target	V	71,Index Finger	89,Middle Finger	800.0	900.0	1950.0	1850.0	1.0	n/a	900.0	1.0	go_stim
42568.114093000069	1058.8859070000001	n/a	1011	89	2750	1058.885907	stim	stop-signal	408	1118933	0.0-19.6-1.6	beast_fmri_test	386	1116784,/,1117464,/,1118144,/,1118824,/,1119504,/	t,t,t,t,t	<img class = center src='/static/experiments/beast_fmri_test/images/V.png'></img>	71,89	2750.0	test	<img class = center src='/static/experiments/beast_fmri_test/images/redV.png'></img>	go	1850.0	2.0	6.0	go	non-target	V	71,Index Finger	89,Middle Finger	800.0	900.0	1950.0	1850.0	1.0	n/a	900.0	1.0	ITI
45200	500	n/a	-1	-1	500	0.0	fixation	poldrack-single-stim	409	1120506	0.0-19.7-0.7	beast_fmri_test	386	1120184,/	t	<div class = centerbox2><div class = fixation>+</div></div>	none	500.0	test	n/a	n/a	n/a	n/a	n/a	n/a	n/a	n/a	n/a	n/a	n/a	n/a	n/a	n/a	n/a	n/a	n/a	n/a	fixation
42948.256938999984	900.0	n/a	-1	-1	2750	2253.743061	stim	stop-signal	410	1123258	0.0-19.7-1.7	beast_fmri_test	386	1120864,/,1121543,/,1122224,/,1122904,/,1123584,/,1124264,/,1124944,/	t,t,t,t,t,t,t	<img class = center src='/static/experiments/beast_fmri_test/images/V.png'></img>	71,89	2750.0	test	<img class = center src='/static/experiments/beast_fmri_test/images/redV.png'></img>	stop	1850.0	2.0	7.0	stop	non-target	V	71,Index Finger	89,Middle Finger	800.0	900.0	1950.0	1850.0	0.0	1.0	900.0	n/a	go_stim
44798.256938999984	1850.0	n/a	-1	-1	2750	2253.743061	stim	stop-signal	410	1123258	0.0-19.7-1.7	beast_fmri_test	386	1120864,/,1121543,/,1122224,/,1122904,/,1123584,/,1124264,/,1124944,/	t,t,t,t,t,t,t	<img class = center src='/static/experiments/beast_fmri_test/images/V.png'></img>	71,89	2750.0	test	<img class = center src='/static/experiments/beast_fmri_test/images/redV.png'></img>	stop	1850.0	2.0	7.0	stop	non-target	V	71,Index Finger	89,Middle Finger	800.0	900.0	1950.0	1850.0	0.0	1.0	900.0	n/a	stop_stim
45698.256938999984	2253.7430610000001	n/a	-1	-1	2750	2253.743061	stim	stop-signal	410	1123258	0.0-19.7-1.7	beast_fmri_test	386	1120864,/,1121543,/,1122224,/,1122904,/,1123584,/,1124264,/,1124944,/	t,t,t,t,t,t,t	<img class = center src='/static/experiments/beast_fmri_test/images/V.png'></img>	71,89	2750.0	test	<img class = center src='/static/experiments/beast_fmri_test/images/redV.png'></img>	stop	1850.0	2.0	7.0	stop	non-target	V	71,Index Finger	89,Middle Finger	800.0	900.0	1950.0	1850.0	0.0	1.0	900.0	n/a	ITI
50717	500	n/a	-1	-1	500	0.0	fixation	poldrack-single-stim	411	1126023	0.0-19.8-0.8	beast_fmri_test	386	1125624,/	t	<div class = centerbox2><div class = fixation>+</div></div>	none	500.0	test	n/a	n/a	n/a	n/a	n/a	n/a	n/a	n/a	n/a	n/a	n/a	n/a	n/a	n/a	n/a	n/a	n/a	n/a	fixation
50405.882804099936	2750	n/a	887	71	2750	314.1171959	stim	stop-signal	412	1128776	0.0-19.8-1.8	beast_fmri_test	386	1126304,/,1126984,/,1127664,/,1128344,/,1129024,/	t,t,t,t,t	<img class = center src='/static/experiments/beast_fmri_test/images/V.png'></img>	71,89	2750.0	test	<img class = center src='/static/experiments/beast_fmri_test/images/redV.png'></img>	go	1950.0	2.0	8.0	go	target	V	71,Index Finger	89,Middle Finger	800.0	950.0	1950.0	1850.0	1.0	n/a	800.0	1.0	go_stim
53155.882804099936	314.11719589999996	n/a	887	71	2750	314.1171959	stim	stop-signal	412	1128776	0.0-19.8-1.8	beast_fmri_test	386	1126304,/,1126984,/,1127664,/,1128344,/,1129024,/	t,t,t,t,t	<img class = center src='/static/experiments/beast_fmri_test/images/V.png'></img>	71,89	2750.0	test	<img class = center src='/static/experiments/beast_fmri_test/images/redV.png'></img>	go	1950.0	2.0	8.0	go	target	V	71,Index Finger	89,Middle Finger	800.0	950.0	1950.0	1850.0	1.0	n/a	800.0	1.0	ITI
54297	500	n/a	-1	-1	500	0.0	fixation	poldrack-single-stim	413	1129603	0.0-19.9-0.9	beast_fmri_test	386	n/a	n/a	<div class = centerbox2><div class = fixation>+</div></div>	none	500.0	test	n/a	n/a	n/a	n/a	n/a	n/a	n/a	n/a	n/a	n/a	n/a	n/a	n/a	n/a	n/a	n/a	n/a	n/a	fixation
52866.004753000103	2750	n/a	1096	71	2750	1432.995247	stim	stop-signal	414	1132355	0.0-19.9-1.9	beast_fmri_test	386	1129704,/,1130384,/,1131063,/,1131744,/,1132423,/,1133104,/,1133785,/	t,t,t,t,t,t,t	<img class = center src='/static/experiments/beast_fmri_test/images/V.png'></img>	71,89	2750.0	test	<img class = center src='/static/experiments/beast_fmri_test/images/redV.png'></img>	go	1950.0	2.0	9.0	go	target	V	71,Index Finger	89,Middle Finger	800.0	950.0	1950.0	1850.0	1.0	n/a	800.0	1.0	go_stim
55616.004753000103	1432.9952470000001	n/a	1096	71	2750	1432.995247	stim	stop-signal	414	1132355	0.0-19.9-1.9	beast_fmri_test	386	1129704,/,1130384,/,1131063,/,1131744,/,1132423,/,1133104,/,1133785,/	t,t,t,t,t,t,t	<img class = center src='/static/experiments/beast_fmri_test/images/V.png'></img>	71,89	2750.0	test	<img class = center src='/static/experiments/beast_fmri_test/images/redV.png'></img>	go	1950.0	2.0	9.0	go	target	V	71,Index Finger	89,Middle Finger	800.0	950.0	1950.0	1850.0	1.0	n/a	800.0	1.0	ITI
58994	500	n/a	-1	-1	500	0.0	fixation	poldrack-single-stim	415	1134300	0.0-19.10-0.10	beast_fmri_test	386	n/a	n/a	<div class = centerbox2><div class = fixation>+</div></div>	none	500.0	test	n/a	n/a	n/a	n/a	n/a	n/a	n/a	n/a	n/a	n/a	n/a	n/a	n/a	n/a	n/a	n/a	n/a	n/a	fixation
58837.270491200034	2750	n/a	948	89	2750	158.7295088	stim	stop-signal	416	1137052	0.0-19.10-1.10	beast_fmri_test	386	1134463,/,1135143,/,1135823,/,1136503,/,1137183,/	t,t,t,t,t	<img class = center src='/static/experiments/beast_fmri_test/images/B.png'></img>	71,89	2750.0	test	<img class = center src='/static/experiments/beast_fmri_test/images/redB.png'></img>	go	1800.0	2.0	10.0	go	non-target	B	71,Index Finger	89,Middle Finger	800.0	950.0	1950.0	1800.0	1.0	n/a	950.0	1.0	go_stim
61587.270491200034	158.72950880000002	n/a	948	89	2750	158.7295088	stim	stop-signal	416	1137052	0.0-19.10-1.10	beast_fmri_test	386	1134463,/,1135143,/,1135823,/,1136503,/,1137183,/	t,t,t,t,t	<img class = center src='/static/experiments/beast_fmri_test/images/B.png'></img>	71,89	2750.0	test	<img class = center src='/static/experiments/beast_fmri_test/images/redB.png'></img>	go	1800.0	2.0	10.0	go	non-target	B	71,Index Finger	89,Middle Finger	800.0	950.0	1950.0	1800.0	1.0	n/a	950.0	1.0	ITI
62421	500	n/a	-1	-1	500	0.0	fixation	poldrack-single-stim	417	1137727	0.0-19.11-0.11	beast_fmri_test	386	n/a	n/a	<div class = centerbox2><div class = fixation>+</div></div>	none	500.0	test	n/a	n/a	n/a	n/a	n/a	n/a	n/a	n/a	n/a	n/a	n/a	n/a	n/a	n/a	n/a	n/a	n/a	n/a	fixation
61623.069221999962	2750	n/a	1274	89	2750	799.930778	stim	stop-signal	418	1140479	0.0-19.11-1.11	beast_fmri_test	386	1137864,/,1138544,/,1139224,/,1139904,/,1140584,/,1141264,/	t,t,t,t,t,t	<img class = center src='/static/experiments/beast_fmri_test/images/B.png'></img>	71,89	2750.0	test	<img class = center src='/static/experiments/beast_fmri_test/images/redB.png'></img>	go	1800.0	2.0	11.0	go	non-target	B	71,Index Finger	89,Middle Finger	800.0	950.0	1950.0	1800.0	1.0	n/a	950.0	1.0	go_stim
64373.069221999962	799.93077800000003	n/a	1274	89	2750	799.930778	stim	stop-signal	418	1140479	0.0-19.11-1.11	beast_fmri_test	386	1137864,/,1138544,/,1139224,/,1139904,/,1140584,/,1141264,/	t,t,t,t,t,t	<img class = center src='/static/experiments/beast_fmri_test/images/B.png'></img>	71,89	2750.0	test	<img class = center src='/static/experiments/beast_fmri_test/images/redB.png'></img>	go	1800.0	2.0	11.0	go	non-target	B	71,Index Finger	89,Middle Finger	800.0	950.0	1950.0	1800.0	1.0	n/a	950.0	1.0	ITI
66485	500	n/a	-1	-1	500	0.0	fixation	poldrack-single-stim	419	1141791	0.0-19.12-0.12	beast_fmri_test	386	n/a	n/a	<div class = centerbox2><div class = fixation>+</div></div>	none	500.0	test	n/a	n/a	n/a	n/a	n/a	n/a	n/a	n/a	n/a	n/a	n/a	n/a	n/a	n/a	n/a	n/a	n/a	n/a	fixation
66466.543315639952	2750	n/a	883	71	2750	20.45668436	stim	stop-signal	420	1144543	0.0-19.12-1.12	beast_fmri_test	386	1141945,/,1142624,/,1143304,/,1143984,/	t,t,t,t	<img class = center src='/static/experiments/beast_fmri_test/images/B.png'></img>	71,89	2750.0	test	<img class = center src='/static/experiments/beast_fmri_test/images/redB.png'></img>	go	1950.0	2.0	12.0	go	target	B	71,Index Finger	89,Middle Finger	800.0	950.0	1950.0	1800.0	1.0	n/a	800.0	1.0	go_stim
69216.543315639952	20.456684360000001	n/a	883	71	2750	20.45668436	stim	stop-signal	420	1144543	0.0-19.12-1.12	beast_fmri_test	386	1141945,/,1142624,/,1143304,/,1143984,/	t,t,t,t	<img class = center src='/static/experiments/beast_fmri_test/images/B.png'></img>	71,89	2750.0	test	<img class = center src='/static/experiments/beast_fmri_test/images/redB.png'></img>	go	1950.0	2.0	12.0	go	target	B	71,Index Finger	89,Middle Finger	800.0	950.0	1950.0	1800.0	1.0	n/a	800.0	1.0	ITI
69769	500	n/a	-1	-1	500	0.0	fixation	poldrack-single-stim	421	1145075	0.0-19.13-0.13	beast_fmri_test	386	1144664,/	t	<div class = centerbox2><div class = fixation>+</div></div>	none	500.0	test	n/a	n/a	n/a	n/a	n/a	n/a	n/a	n/a	n/a	n/a	n/a	n/a	n/a	n/a	n/a	n/a	n/a	n/a	fixation
68827.416568600107	2750	n/a	1015	89	2750	943.5834314	stim	stop-signal	422	1147827	0.0-19.13-1.13	beast_fmri_test	386	1145344,/,1146024,/,1146704,/,1147384,/,1148064,/,1148744,/	t,t,t,t,t,t	<img class = center src='/static/experiments/beast_fmri_test/images/D.png'></img>	71,89	2750.0	test	<img class = center src='/static/experiments/beast_fmri_test/images/redD.png'></img>	go	1800.0	2.0	13.0	go	non-target	D	71,Index Finger	89,Middle Finger	800.0	950.0	1950.0	1800.0	1.0	n/a	950.0	1.0	go_stim
71577.416568600107	943.58343139999988	n/a	1015	89	2750	943.5834314	stim	stop-signal	422	1147827	0.0-19.13-1.13	beast_fmri_test	386	1145344,/,1146024,/,1146704,/,1147384,/,1148064,/,1148744,/	t,t,t,t,t,t	<img class = center src='/static/experiments/beast_fmri_test/images/D.png'></img>	71,89	2750.0	test	<img class = center src='/static/experiments/beast_fmri_test/images/redD.png'></img>	go	1800.0	2.0	13.0	go	non-target	D	71,Index Finger	89,Middle Finger	800.0	950.0	1950.0	1800.0	1.0	n/a	950.0	1.0	ITI
73981	500	n/a	-1	-1	500	0.0	fixation	poldrack-single-stim	423	1149287	0.0-19.14-0.14	beast_fmri_test	386	n/a	n/a	<div class = centerbox2><div class = fixation>+</div></div>	none	500.0	test	n/a	n/a	n/a	n/a	n/a	n/a	n/a	n/a	n/a	n/a	n/a	n/a	n/a	n/a	n/a	n/a	n/a	n/a	fixation
73743.775393699994	2750	n/a	899	89	2750	239.2246063	stim	stop-signal	424	1152039	0.0-19.14-1.14	beast_fmri_test	386	1149424,/,1150104,/,1150784,/,1151464,/,1152144,/	t,t,t,t,t	<img class = center src='/static/experiments/beast_fmri_test/images/P.png'></img>	71,89	2750.0	test	<img class = center src='/static/experiments/beast_fmri_test/images/redP.png'></img>	go	1800.0	2.0	14.0	go	non-target	P	71,Index Finger	89,Middle Finger	800.0	950.0	1950.0	1800.0	1.0	n/a	950.0	1.0	go_stim
76493.775393699994	239.2246063	n/a	899	89	2750	239.2246063	stim	stop-signal	424	1152039	0.0-19.14-1.14	beast_fmri_test	386	1149424,/,1150104,/,1150784,/,1151464,/,1152144,/	t,t,t,t,t	<img class = center src='/static/experiments/beast_fmri_test/images/P.png'></img>	71,89	2750.0	test	<img class = center src='/static/experiments/beast_fmri_test/images/redP.png'></img>	go	1800.0	2.0	14.0	go	non-target	P	71,Index Finger	89,Middle Finger	800.0	950.0	1950.0	1800.0	1.0	n/a	950.0	1.0	ITI
77488	500	n/a	-1	-1	500	0.0	fixation	poldrack-single-stim	425	1152794	0.0-19.15-0.15	beast_fmri_test	386	n/a	n/a	<div class = centerbox2><div class = fixation>+</div></div>	none	500.0	test	n/a	n/a	n/a	n/a	n/a	n/a	n/a	n/a	n/a	n/a	n/a	n/a	n/a	n/a	n/a	n/a	n/a	n/a	fixation
76082.450214999961	2750	n/a	984	89	2750	1406.549785	stim	stop-signal	426	1155545	0.0-19.15-1.15	beast_fmri_test	386	1152824,/,1153504,/,1154185,/,1154864,/,1155543,/,1156224,/,1156904,/	t,t,t,t,t,t,t	<img class = center src='/static/experiments/beast_fmri_test/images/P.png'></img>	71,89	2750.0	test	<img class = center src='/static/experiments/beast_fmri_test/images/redP.png'></img>	go	1800.0	2.0	15.0	go	non-target	P	71,Index Finger	89,Middle Finger	800.0	950.0	1950.0	1800.0	1.0	n/a	950.0	1.0	go_stim
78832.450214999961	1406.5497849999999	n/a	984	89	2750	1406.549785	stim	stop-signal	426	1155545	0.0-19.15-1.15	beast_fmri_test	386	1152824,/,1153504,/,1154185,/,1154864,/,1155543,/,1156224,/,1156904,/	t,t,t,t,t,t,t	<img class = center src='/static/experiments/beast_fmri_test/images/P.png'></img>	71,89	2750.0	test	<img class = center src='/static/experiments/beast_fmri_test/images/redP.png'></img>	go	1800.0	2.0	15.0	go	non-target	P	71,Index Finger	89,Middle Finger	800.0	950.0	1950.0	1800.0	1.0	n/a	950.0	1.0	ITI
82158	500	n/a	-1	-1	500	0.0	fixation	poldrack-single-stim	427	1157464	0.0-19.16-0.16	beast_fmri_test	386	n/a	n/a	<div class = centerbox2><div class = fixation>+</div></div>	none	500.0	test	n/a	n/a	n/a	n/a	n/a	n/a	n/a	n/a	n/a	n/a	n/a	n/a	n/a	n/a	n/a	n/a	n/a	n/a	fixation
81704.482853899943	2750	n/a	803	71	2750	455.5171461	stim	stop-signal	428	1160216	0.0-19.16-1.16	beast_fmri_test	386	1157583,/,1158264,/,1158944,/,1159624,/,1160304,/	t,t,t,t,t	<img class = center src='/static/experiments/beast_fmri_test/images/P.png'></img>	71,89	2750.0	test	<img class = center src='/static/experiments/beast_fmri_test/images/redP.png'></img>	go	1950.0	2.0	16.0	go	target	P	71,Index Finger	89,Middle Finger	800.0	950.0	1950.0	1800.0	1.0	n/a	800.0	1.0	go_stim
84454.482853899943	455.51714609999999	n/a	803	71	2750	455.5171461	stim	stop-signal	428	1160216	0.0-19.16-1.16	beast_fmri_test	386	1157583,/,1158264,/,1158944,/,1159624,/,1160304,/	t,t,t,t,t	<img class = center src='/static/experiments/beast_fmri_test/images/P.png'></img>	71,89	2750.0	test	<img class = center src='/static/experiments/beast_fmri_test/images/redP.png'></img>	go	1950.0	2.0	16.0	go	target	P	71,Index Finger	89,Middle Finger	800.0	950.0	1950.0	1800.0	1.0	n/a	800.0	1.0	ITI
85881	500	n/a	-1	-1	500	0.0	fixation	poldrack-single-stim	429	1161187	0.0-19.17-0.17	beast_fmri_test	386	1160984,/	t	<div class = centerbox2><div class = fixation>+</div></div>	none	500.0	test	n/a	n/a	n/a	n/a	n/a	n/a	n/a	n/a	n/a	n/a	n/a	n/a	n/a	n/a	n/a	n/a	n/a	n/a	fixation
85032.752220799914	800.0	n/a	-1	-1	2750	850.2477792	stim	stop-signal	430	1163939	0.0-19.17-1.17	beast_fmri_test	386	1161664,/,1162344,/,1163024,/,1163704,/,1164385,/	t,t,t,t,t	<img class = center src='/static/experiments/beast_fmri_test/images/P.png'></img>	71,89	2750.0	test	<img class = center src='/static/experiments/beast_fmri_test/images/redP.png'></img>	stop	1950.0	2.0	17.0	stop	target	P	71,Index Finger	89,Middle Finger	800.0	950.0	1950.0	1800.0	0.0	1.0	800.0	n/a	go_stim
86982.752220799914	1950.0	n/a	-1	-1	2750	850.2477792	stim	stop-signal	430	1163939	0.0-19.17-1.17	beast_fmri_test	386	1161664,/,1162344,/,1163024,/,1163704,/,1164385,/	t,t,t,t,t	<img class = center src='/static/experiments/beast_fmri_test/images/P.png'></img>	71,89	2750.0	test	<img class = center src='/static/experiments/beast_fmri_test/images/redP.png'></img>	stop	1950.0	2.0	17.0	stop	target	P	71,Index Finger	89,Middle Finger	800.0	950.0	1950.0	1800.0	0.0	1.0	800.0	n/a	stop_stim
87782.752220799914	850.24777920000008	n/a	-1	-1	2750	850.2477792	stim	stop-signal	430	1163939	0.0-19.17-1.17	beast_fmri_test	386	1161664,/,1162344,/,1163024,/,1163704,/,1164385,/	t,t,t,t,t	<img class = center src='/static/experiments/beast_fmri_test/images/P.png'></img>	71,89	2750.0	test	<img class = center src='/static/experiments/beast_fmri_test/images/redP.png'></img>	stop	1950.0	2.0	17.0	stop	target	P	71,Index Finger	89,Middle Finger	800.0	950.0	1950.0	1800.0	0.0	1.0	800.0	n/a	ITI
89999	500	n/a	-1	-1	500	0.0	fixation	poldrack-single-stim	431	1165305	0.0-19.18-0.18	beast_fmri_test	386	1165064,/	t	<div class = centerbox2><div class = fixation>+</div></div>	none	500.0	test	n/a	n/a	n/a	n/a	n/a	n/a	n/a	n/a	n/a	n/a	n/a	n/a	n/a	n/a	n/a	n/a	n/a	n/a	fixation
89674.5204694001	2750	n/a	911	71	2750	326.4795306	stim	stop-signal	432	1168057	0.0-19.18-1.18	beast_fmri_test	386	1165744,/,1166424,/,1167103,/,1167784,/	t,t,t,t	<img class = center src='/static/experiments/beast_fmri_test/images/P.png'></img>	71,89	2750.0	test	<img class = center src='/static/experiments/beast_fmri_test/images/redP.png'></img>	go	1900.0	2.0	18.0	go	target	P	71,Index Finger	89,Middle Finger	850.0	950.0	1900.0	1800.0	1.0	n/a	850.0	1.0	go_stim
92424.5204694001	326.47953060000003	n/a	911	71	2750	326.4795306	stim	stop-signal	432	1168057	0.0-19.18-1.18	beast_fmri_test	386	1165744,/,1166424,/,1167103,/,1167784,/	t,t,t,t	<img class = center src='/static/experiments/beast_fmri_test/images/P.png'></img>	71,89	2750.0	test	<img class = center src='/static/experiments/beast_fmri_test/images/redP.png'></img>	go	1900.0	2.0	18.0	go	target	P	71,Index Finger	89,Middle Finger	850.0	950.0	1900.0	1800.0	1.0	n/a	850.0	1.0	ITI
93593	500	n/a	-1	-1	500	0.0	fixation	poldrack-single-stim	433	1168899	0.0-19.19-0.19	beast_fmri_test	386	1168463,/	t	<div class = centerbox2><div class = fixation>+</div></div>	none	500.0	test	n/a	n/a	n/a	n/a	n/a	n/a	n/a	n/a	n/a	n/a	n/a	n/a	n/a	n/a	n/a	n/a	n/a	n/a	fixation
92905.394556500018	2750	n/a	953	89	2750	689.6054435	stim	stop-signal	434	1171651	0.0-19.19-1.19	beast_fmri_test	386	1169144,/,1169823,/,1170503,/,1171183,/,1171863,/	t,t,t,t,t	<img class = center src='/static/experiments/beast_fmri_test/images/D.png'></img>	71,89	2750.0	test	<img class = center src='/static/experiments/beast_fmri_test/images/redD.png'></img>	go	1800.0	2.0	19.0	go	non-target	D	71,Index Finger	89,Middle Finger	850.0	950.0	1900.0	1800.0	1.0	n/a	950.0	1.0	go_stim
95655.394556500018	689.60544349999998	n/a	953	89	2750	689.6054435	stim	stop-signal	434	1171651	0.0-19.19-1.19	beast_fmri_test	386	1169144,/,1169823,/,1170503,/,1171183,/,1171863,/	t,t,t,t,t	<img class = center src='/static/experiments/beast_fmri_test/images/D.png'></img>	71,89	2750.0	test	<img class = center src='/static/experiments/beast_fmri_test/images/redD.png'></img>	go	1800.0	2.0	19.0	go	non-target	D	71,Index Finger	89,Middle Finger	850.0	950.0	1900.0	1800.0	1.0	n/a	950.0	1.0	ITI
97549	500	n/a	-1	-1	500	0.0	fixation	poldrack-single-stim	435	1172855	0.0-19.20-0.20	beast_fmri_test	386	1172544,/	t	<div class = centerbox2><div class = fixation>+</div></div>	none	500.0	test	n/a	n/a	n/a	n/a	n/a	n/a	n/a	n/a	n/a	n/a	n/a	n/a	n/a	n/a	n/a	n/a	n/a	n/a	fixation
97451.10624997993	2750	n/a	1017	71	2750	99.89375002	stim	stop-signal	436	1175607	0.0-19.20-1.20	beast_fmri_test	386	1173224,/,1173904,/,1174584,/,1175264,/	t,t,t,t	<img class = center src='/static/experiments/beast_fmri_test/images/P.png'></img>	71,89	2750.0	test	<img class = center src='/static/experiments/beast_fmri_test/images/redP.png'></img>	go	1900.0	2.0	20.0	go	target	P	71,Index Finger	89,Middle Finger	850.0	950.0	1900.0	1800.0	1.0	n/a	850.0	1.0	go_stim
100201.10624997993	99.893750019999999	n/a	1017	71	2750	99.89375002	stim	stop-signal	436	1175607	0.0-19.20-1.20	beast_fmri_test	386	1173224,/,1173904,/,1174584,/,1175264,/	t,t,t,t	<img class = center src='/static/experiments/beast_fmri_test/images/P.png'></img>	71,89	2750.0	test	<img class = center src='/static/experiments/beast_fmri_test/images/redP.png'></img>	go	1900.0	2.0	20.0	go	target	P	71,Index Finger	89,Middle Finger	850.0	950.0	1900.0	1800.0	1.0	n/a	850.0	1.0	ITI
100914	500	n/a	-1	-1	500	0.0	fixation	poldrack-single-stim	437	1176220	0.0-19.21-0.21	beast_fmri_test	386	1175944,/	t	<div class = centerbox2><div class = fixation>+</div></div>	none	500.0	test	n/a	n/a	n/a	n/a	n/a	n/a	n/a	n/a	n/a	n/a	n/a	n/a	n/a	n/a	n/a	n/a	n/a	n/a	fixation
99309.247883999953	2750	n/a	1214	71	2750	1606.752116	stim	stop-signal	438	1178972	0.0-19.21-1.21	beast_fmri_test	386	1176624,/,1177304,/,1177984,/,1178664,/,1179344,/,1180024,/	t,t,t,t,t,t	<img class = center src='/static/experiments/beast_fmri_test/images/D.png'></img>	71,89	2750.0	test	<img class = center src='/static/experiments/beast_fmri_test/images/redD.png'></img>	go	1900.0	2.0	21.0	go	target	D	71,Index Finger	89,Middle Finger	850.0	950.0	1900.0	1800.0	1.0	n/a	850.0	1.0	go_stim
102059.24788399995	1606.7521160000001	n/a	1214	71	2750	1606.752116	stim	stop-signal	438	1178972	0.0-19.21-1.21	beast_fmri_test	386	1176624,/,1177304,/,1177984,/,1178664,/,1179344,/,1180024,/	t,t,t,t,t,t	<img class = center src='/static/experiments/beast_fmri_test/images/D.png'></img>	71,89	2750.0	test	<img class = center src='/static/experiments/beast_fmri_test/images/redD.png'></img>	go	1900.0	2.0	21.0	go	target	D	71,Index Finger	89,Middle Finger	850.0	950.0	1900.0	1800.0	1.0	n/a	850.0	1.0	ITI
105784	500	n/a	-1	-1	500	0.0	fixation	poldrack-single-stim	439	1181090	0.0-19.22-0.22	beast_fmri_test	386	1180704,/	t	<div class = centerbox2><div class = fixation>+</div></div>	none	500.0	test	n/a	n/a	n/a	n/a	n/a	n/a	n/a	n/a	n/a	n/a	n/a	n/a	n/a	n/a	n/a	n/a	n/a	n/a	fixation
105782.36696213204	2750	n/a	1352	71	2750	3.633037868	stim	stop-signal	440	1183842	0.0-19.22-1.22	beast_fmri_test	386	1181384,/,1182064,/,1182744,/,1183424,/	t,t,t,t	<img class = center src='/static/experiments/beast_fmri_test/images/P.png'></img>	71,89	2750.0	test	<img class = center src='/static/experiments/beast_fmri_test/images/redP.png'></img>	go	1900.0	2.0	22.0	go	target	P	71,Index Finger	89,Middle Finger	850.0	950.0	1900.0	1800.0	1.0	n/a	850.0	1.0	go_stim
108532.36696213204	3.6330378680000002	n/a	1352	71	2750	3.633037868	stim	stop-signal	440	1183842	0.0-19.22-1.22	beast_fmri_test	386	1181384,/,1182064,/,1182744,/,1183424,/	t,t,t,t	<img class = center src='/static/experiments/beast_fmri_test/images/P.png'></img>	71,89	2750.0	test	<img class = center src='/static/experiments/beast_fmri_test/images/redP.png'></img>	go	1900.0	2.0	22.0	go	target	P	71,Index Finger	89,Middle Finger	850.0	950.0	1900.0	1800.0	1.0	n/a	850.0	1.0	ITI
109053	500	n/a	-1	-1	500	0.0	fixation	poldrack-single-stim	441	1184359	0.0-19.23-0.23	beast_fmri_test	386	1184104,/	t	<div class = centerbox2><div class = fixation>+</div></div>	none	500.0	test	n/a	n/a	n/a	n/a	n/a	n/a	n/a	n/a	n/a	n/a	n/a	n/a	n/a	n/a	n/a	n/a	n/a	n/a	fixation
108941.25294369995	2750	n/a	1011	89	2750	113.7470563	stim	stop-signal	442	1187111	0.0-19.23-1.23	beast_fmri_test	386	1184785,/,1185463,/,1186144,/,1186824,/	t,t,t,t	<img class = center src='/static/experiments/beast_fmri_test/images/P.png'></img>	71,89	2750.0	test	<img class = center src='/static/experiments/beast_fmri_test/images/redP.png'></img>	go	1800.0	2.0	23.0	go	non-target	P	71,Index Finger	89,Middle Finger	850.0	950.0	1900.0	1800.0	1.0	n/a	950.0	1.0	go_stim
111691.25294369995	113.74705630000001	n/a	1011	89	2750	113.7470563	stim	stop-signal	442	1187111	0.0-19.23-1.23	beast_fmri_test	386	1184785,/,1185463,/,1186144,/,1186824,/	t,t,t,t	<img class = center src='/static/experiments/beast_fmri_test/images/P.png'></img>	71,89	2750.0	test	<img class = center src='/static/experiments/beast_fmri_test/images/redP.png'></img>	go	1800.0	2.0	23.0	go	non-target	P	71,Index Finger	89,Middle Finger	850.0	950.0	1900.0	1800.0	1.0	n/a	950.0	1.0	ITI
112433	500	n/a	-1	-1	500	0.0	fixation	poldrack-single-stim	443	1187739	0.0-19.24-0.24	beast_fmri_test	386	1187504,/	t	<div class = centerbox2><div class = fixation>+</div></div>	none	500.0	test	n/a	n/a	n/a	n/a	n/a	n/a	n/a	n/a	n/a	n/a	n/a	n/a	n/a	n/a	n/a	n/a	n/a	n/a	fixation
111900.6790285001	950.0	n/a	-1	-1	2750	533.3209715	stim	stop-signal	444	1190490	0.0-19.24-1.24	beast_fmri_test	386	1188184,/,1188864,/,1189543,/,1190224,/,1190904,/	t,t,t,t,t	<img class = center src='/static/experiments/beast_fmri_test/images/T.png'></img>	71,89	2750.0	test	<img class = center src='/static/experiments/beast_fmri_test/images/redT.png'></img>	stop	1800.0	2.0	24.0	stop	non-target	T	71,Index Finger	89,Middle Finger	850.0	950.0	1900.0	1800.0	0.0	1.0	950.0	n/a	go_stim
113700.6790285001	1800.0	n/a	-1	-1	2750	533.3209715	stim	stop-signal	444	1190490	0.0-19.24-1.24	beast_fmri_test	386	1188184,/,1188864,/,1189543,/,1190224,/,1190904,/	t,t,t,t,t	<img class = center src='/static/experiments/beast_fmri_test/images/T.png'></img>	71,89	2750.0	test	<img class = center src='/static/experiments/beast_fmri_test/images/redT.png'></img>	stop	1800.0	2.0	24.0	stop	non-target	T	71,Index Finger	89,Middle Finger	850.0	950.0	1900.0	1800.0	0.0	1.0	950.0	n/a	stop_stim
114650.6790285001	533.32097150000004	n/a	-1	-1	2750	533.3209715	stim	stop-signal	444	1190490	0.0-19.24-1.24	beast_fmri_test	386	1188184,/,1188864,/,1189543,/,1190224,/,1190904,/	t,t,t,t,t	<img class = center src='/static/experiments/beast_fmri_test/images/T.png'></img>	71,89	2750.0	test	<img class = center src='/static/experiments/beast_fmri_test/images/redT.png'></img>	stop	1800.0	2.0	24.0	stop	non-target	T	71,Index Finger	89,Middle Finger	850.0	950.0	1900.0	1800.0	0.0	1.0	950.0	n/a	ITI
116233	500	n/a	-1	-1	500	0.0	fixation	poldrack-single-stim	445	1191539	0.0-19.25-0.25	beast_fmri_test	386	n/a	n/a	<div class = centerbox2><div class = fixation>+</div></div>	none	500.0	test	n/a	n/a	n/a	n/a	n/a	n/a	n/a	n/a	n/a	n/a	n/a	n/a	n/a	n/a	n/a	n/a	n/a	n/a	fixation
115965.5014855999	2750	n/a	973	89	2750	269.4985144	stim	stop-signal	446	1194291	0.0-19.25-1.25	beast_fmri_test	386	1191584,/,1192264,/,1192944,/,1193624,/,1194304,/	t,t,t,t,t	<img class = center src='/static/experiments/beast_fmri_test/images/B.png'></img>	71,89	2750.0	test	<img class = center src='/static/experiments/beast_fmri_test/images/redB.png'></img>	go	1750.0	2.0	25.0	go	non-target	B	71,Index Finger	89,Middle Finger	850.0	1000.0	1900.0	1750.0	1.0	n/a	1000.0	1.0	go_stim
118715.5014855999	269.49851439999998	n/a	973	89	2750	269.4985144	stim	stop-signal	446	1194291	0.0-19.25-1.25	beast_fmri_test	386	1191584,/,1192264,/,1192944,/,1193624,/,1194304,/	t,t,t,t,t	<img class = center src='/static/experiments/beast_fmri_test/images/B.png'></img>	71,89	2750.0	test	<img class = center src='/static/experiments/beast_fmri_test/images/redB.png'></img>	go	1750.0	2.0	25.0	go	non-target	B	71,Index Finger	89,Middle Finger	850.0	1000.0	1900.0	1750.0	1.0	n/a	1000.0	1.0	ITI
119769	500	n/a	-1	-1	500	0.0	fixation	poldrack-single-stim	447	1195075	0.0-19.26-0.26	beast_fmri_test	386	1194985,/	t	<div class = centerbox2><div class = fixation>+</div></div>	none	500.0	test	n/a	n/a	n/a	n/a	n/a	n/a	n/a	n/a	n/a	n/a	n/a	n/a	n/a	n/a	n/a	n/a	n/a	n/a	fixation
119603.06544700009	850.0	n/a	992	71	2750	167.934553	stim	stop-signal	448	1197827	0.0-19.26-1.26	beast_fmri_test	386	1195664,/,1196344,/,1197023,/,1197704,/	t,t,t,t	<img class = center src='/static/experiments/beast_fmri_test/images/T.png'></img>	71,89	2750.0	test	<img class = center src='/static/experiments/beast_fmri_test/images/redT.png'></img>	stop	1900.0	2.0	26.0	stop	target	T	71,Index Finger	89,Middle Finger	850.0	1000.0	1900.0	1750.0	0.0	0.0	850.0	n/a	go_stim
121503.06544700009	1900.0	n/a	992	71	2750	167.934553	stim	stop-signal	448	1197827	0.0-19.26-1.26	beast_fmri_test	386	1195664,/,1196344,/,1197023,/,1197704,/	t,t,t,t	<img class = center src='/static/experiments/beast_fmri_test/images/T.png'></img>	71,89	2750.0	test	<img class = center src='/static/experiments/beast_fmri_test/images/redT.png'></img>	stop	1900.0	2.0	26.0	stop	target	T	71,Index Finger	89,Middle Finger	850.0	1000.0	1900.0	1750.0	0.0	0.0	850.0	n/a	stop_stim
122353.06544700009	167.93455299999999	n/a	992	71	2750	167.934553	stim	stop-signal	448	1197827	0.0-19.26-1.26	beast_fmri_test	386	1195664,/,1196344,/,1197023,/,1197704,/	t,t,t,t	<img class = center src='/static/experiments/beast_fmri_test/images/T.png'></img>	71,89	2750.0	test	<img class = center src='/static/experiments/beast_fmri_test/images/redT.png'></img>	stop	1900.0	2.0	26.0	stop	target	T	71,Index Finger	89,Middle Finger	850.0	1000.0	1900.0	1750.0	0.0	0.0	850.0	n/a	ITI
123204	500	n/a	-1	-1	500	0.0	fixation	poldrack-single-stim	449	1198510	0.0-19.27-0.27	beast_fmri_test	386	1198384,/	t	<div class = centerbox2><div class = fixation>+</div></div>	none	500.0	test	n/a	n/a	n/a	n/a	n/a	n/a	n/a	n/a	n/a	n/a	n/a	n/a	n/a	n/a	n/a	n/a	n/a	n/a	fixation
122839.63919660007	800.0	n/a	-1	-1	2750	365.3608034	stim	stop-signal	450	1201261	0.0-19.27-1.27	beast_fmri_test	386	1199064,/,1199744,/,1200424,/,1201103,/	t,t,t,t	<img class = center src='/static/experiments/beast_fmri_test/images/B.png'></img>	71,89	2750.0	test	<img class = center src='/static/experiments/beast_fmri_test/images/redB.png'></img>	stop	1950.0	2.0	27.0	stop	target	B	71,Index Finger	89,Middle Finger	800.0	1000.0	1950.0	1750.0	0.0	1.0	800.0	n/a	go_stim
124789.63919660007	1950.0	n/a	-1	-1	2750	365.3608034	stim	stop-signal	450	1201261	0.0-19.27-1.27	beast_fmri_test	386	1199064,/,1199744,/,1200424,/,1201103,/	t,t,t,t	<img class = center src='/static/experiments/beast_fmri_test/images/B.png'></img>	71,89	2750.0	test	<img class = center src='/static/experiments/beast_fmri_test/images/redB.png'></img>	stop	1950.0	2.0	27.0	stop	target	B	71,Index Finger	89,Middle Finger	800.0	1000.0	1950.0	1750.0	0.0	1.0	800.0	n/a	stop_stim
125589.63919660007	365.36080340000001	n/a	-1	-1	2750	365.3608034	stim	stop-signal	450	1201261	0.0-19.27-1.27	beast_fmri_test	386	1199064,/,1199744,/,1200424,/,1201103,/	t,t,t,t	<img class = center src='/static/experiments/beast_fmri_test/images/B.png'></img>	71,89	2750.0	test	<img class = center src='/static/experiments/beast_fmri_test/images/redB.png'></img>	stop	1950.0	2.0	27.0	stop	target	B	71,Index Finger	89,Middle Finger	800.0	1000.0	1950.0	1750.0	0.0	1.0	800.0	n/a	ITI
126836	500	n/a	-1	-1	500	0.0	fixation	poldrack-single-stim	451	1202142	0.0-19.28-0.28	beast_fmri_test	386	1201784,/	t	<div class = centerbox2><div class = fixation>+</div></div>	none	500.0	test	n/a	n/a	n/a	n/a	n/a	n/a	n/a	n/a	n/a	n/a	n/a	n/a	n/a	n/a	n/a	n/a	n/a	n/a	fixation
125450.21116800001	1000.0	n/a	976	89	2750	1386.788832	stim	stop-signal	452	1204893	0.0-19.28-1.28	beast_fmri_test	386	1202464,/,1203144,/,1203823,/,1204504,/,1205184,/,1205865,/	t,t,t,t,t,t	<img class = center src='/static/experiments/beast_fmri_test/images/D.png'></img>	71,89	2750.0	test	<img class = center src='/static/experiments/beast_fmri_test/images/redD.png'></img>	stop	1750.0	2.0	28.0	stop	non-target	D	71,Index Finger	89,Middle Finger	850.0	1000.0	1950.0	1750.0	0.0	0.0	1000.0	n/a	go_stim
127200.21116800001	1750.0	n/a	976	89	2750	1386.788832	stim	stop-signal	452	1204893	0.0-19.28-1.28	beast_fmri_test	386	1202464,/,1203144,/,1203823,/,1204504,/,1205184,/,1205865,/	t,t,t,t,t,t	<img class = center src='/static/experiments/beast_fmri_test/images/D.png'></img>	71,89	2750.0	test	<img class = center src='/static/experiments/beast_fmri_test/images/redD.png'></img>	stop	1750.0	2.0	28.0	stop	non-target	D	71,Index Finger	89,Middle Finger	850.0	1000.0	1950.0	1750.0	0.0	0.0	1000.0	n/a	stop_stim
128200.21116800001	1386.788832	n/a	976	89	2750	1386.788832	stim	stop-signal	452	1204893	0.0-19.28-1.28	beast_fmri_test	386	1202464,/,1203144,/,1203823,/,1204504,/,1205184,/,1205865,/	t,t,t,t,t,t	<img class = center src='/static/experiments/beast_fmri_test/images/D.png'></img>	71,89	2750.0	test	<img class = center src='/static/experiments/beast_fmri_test/images/redD.png'></img>	stop	1750.0	2.0	28.0	stop	non-target	D	71,Index Finger	89,Middle Finger	850.0	1000.0	1950.0	1750.0	0.0	0.0	1000.0	n/a	ITI
131488	500	n/a	-1	-1	500	0.0	fixation	poldrack-single-stim	453	1206794	0.0-19.29-0.29	beast_fmri_test	386	1206544,/	t	<div class = centerbox2><div class = fixation>+</div></div>	none	500.0	test	n/a	n/a	n/a	n/a	n/a	n/a	n/a	n/a	n/a	n/a	n/a	n/a	n/a	n/a	n/a	n/a	n/a	n/a	fixation
130437.36406999989	850.0	n/a	-1	-1	2750	1053.63593	stim	stop-signal	454	1209547	0.0-19.29-1.29	beast_fmri_test	386	1207225,/,1207905,/,1208584,/,1209264,/,1209944,/	t,t,t,t,t	<img class = center src='/static/experiments/beast_fmri_test/images/B.png'></img>	71,89	2750.0	test	<img class = center src='/static/experiments/beast_fmri_test/images/redB.png'></img>	stop	1900.0	2.0	29.0	stop	target	B	71,Index Finger	89,Middle Finger	850.0	950.0	1900.0	1750.0	0.0	1.0	850.0	n/a	go_stim
132337.36406999989	1900.0	n/a	-1	-1	2750	1053.63593	stim	stop-signal	454	1209547	0.0-19.29-1.29	beast_fmri_test	386	1207225,/,1207905,/,1208584,/,1209264,/,1209944,/	t,t,t,t,t	<img class = center src='/static/experiments/beast_fmri_test/images/B.png'></img>	71,89	2750.0	test	<img class = center src='/static/experiments/beast_fmri_test/images/redB.png'></img>	stop	1900.0	2.0	29.0	stop	target	B	71,Index Finger	89,Middle Finger	850.0	950.0	1900.0	1750.0	0.0	1.0	850.0	n/a	stop_stim
133187.36406999989	1053.6359300000001	n/a	-1	-1	2750	1053.63593	stim	stop-signal	454	1209547	0.0-19.29-1.29	beast_fmri_test	386	1207225,/,1207905,/,1208584,/,1209264,/,1209944,/	t,t,t,t,t	<img class = center src='/static/experiments/beast_fmri_test/images/B.png'></img>	71,89	2750.0	test	<img class = center src='/static/experiments/beast_fmri_test/images/redB.png'></img>	stop	1900.0	2.0	29.0	stop	target	B	71,Index Finger	89,Middle Finger	850.0	950.0	1900.0	1750.0	0.0	1.0	850.0	n/a	ITI
135809	500	n/a	-1	-1	500	0.0	fixation	poldrack-single-stim	455	1211115	0.0-19.30-0.30	beast_fmri_test	386	1210624,/	t	<div class = centerbox2><div class = fixation>+</div></div>	none	500.0	test	n/a	n/a	n/a	n/a	n/a	n/a	n/a	n/a	n/a	n/a	n/a	n/a	n/a	n/a	n/a	n/a	n/a	n/a	fixation
135599.62854920002	2750	n/a	1237	89	2750	212.3714508	stim	stop-signal	456	1213868	0.0-19.30-1.30	beast_fmri_test	386	1211304,/,1211984,/,1212666,/,1213344,/,1214024,/	t,t,t,t,t	<img class = center src='/static/experiments/beast_fmri_test/images/B.png'></img>	71,89	2750.0	test	<img class = center src='/static/experiments/beast_fmri_test/images/redB.png'></img>	go	1800.0	2.0	30.0	go	non-target	B	71,Index Finger	89,Middle Finger	900.0	950.0	1900.0	1800.0	1.0	n/a	950.0	1.0	go_stim
138349.62854920002	212.37145079999999	n/a	1237	89	2750	212.3714508	stim	stop-signal	456	1213868	0.0-19.30-1.30	beast_fmri_test	386	1211304,/,1211984,/,1212666,/,1213344,/,1214024,/	t,t,t,t,t	<img class = center src='/static/experiments/beast_fmri_test/images/B.png'></img>	71,89	2750.0	test	<img class = center src='/static/experiments/beast_fmri_test/images/redB.png'></img>	go	1800.0	2.0	30.0	go	non-target	B	71,Index Finger	89,Middle Finger	900.0	950.0	1900.0	1800.0	1.0	n/a	950.0	1.0	ITI
139290	500	n/a	-1	-1	500	0.0	fixation	poldrack-single-stim	457	1214596	0.0-19.31-0.31	beast_fmri_test	386	n/a	n/a	<div class = centerbox2><div class = fixation>+</div></div>	none	500.0	test	n/a	n/a	n/a	n/a	n/a	n/a	n/a	n/a	n/a	n/a	n/a	n/a	n/a	n/a	n/a	n/a	n/a	n/a	fixation
138915.48629150004	2750	n/a	1171	71	2750	376.5137085	stim	stop-signal	458	1217348	0.0-19.31-1.31	beast_fmri_test	386	1214704,/,1215385,/,1216064,/,1216744,/,1217424,/	t,t,t,t,t	<img class = center src='/static/experiments/beast_fmri_test/images/B.png'></img>	71,89	2750.0	test	<img class = center src='/static/experiments/beast_fmri_test/images/redB.png'></img>	go	1850.0	2.0	31.0	go	target	B	71,Index Finger	89,Middle Finger	900.0	950.0	1850.0	1800.0	1.0	n/a	900.0	1.0	go_stim
141665.48629150004	376.51370850000001	n/a	1171	71	2750	376.5137085	stim	stop-signal	458	1217348	0.0-19.31-1.31	beast_fmri_test	386	1214704,/,1215385,/,1216064,/,1216744,/,1217424,/	t,t,t,t,t	<img class = center src='/static/experiments/beast_fmri_test/images/B.png'></img>	71,89	2750.0	test	<img class = center src='/static/experiments/beast_fmri_test/images/redB.png'></img>	go	1850.0	2.0	31.0	go	target	B	71,Index Finger	89,Middle Finger	900.0	950.0	1850.0	1800.0	1.0	n/a	900.0	1.0	ITI
142934	500	n/a	-1	-1	500	0.0	fixation	poldrack-single-stim	459	1218240	0.0-19.32-0.32	beast_fmri_test	386	1218104,/	t	<div class = centerbox2><div class = fixation>+</div></div>	none	500.0	test	n/a	n/a	n/a	n/a	n/a	n/a	n/a	n/a	n/a	n/a	n/a	n/a	n/a	n/a	n/a	n/a	n/a	n/a	fixation
142801.47447920009	950.0	n/a	994	89	2750	133.5255208	stim	stop-signal	460	1220991	0.0-19.32-1.32	beast_fmri_test	386	1218784,/,1219464,/,1220144,/,1220824,/	t,t,t,t	<img class = center src='/static/experiments/beast_fmri_test/images/P.png'></img>	71,89	2750.0	test	<img class = center src='/static/experiments/beast_fmri_test/images/redP.png'></img>	stop	1800.0	2.0	32.0	stop	non-target	P	71,Index Finger	89,Middle Finger	900.0	950.0	1850.0	1800.0	0.0	0.0	950.0	n/a	go_stim
144601.47447920009	1800.0	n/a	994	89	2750	133.5255208	stim	stop-signal	460	1220991	0.0-19.32-1.32	beast_fmri_test	386	1218784,/,1219464,/,1220144,/,1220824,/	t,t,t,t	<img class = center src='/static/experiments/beast_fmri_test/images/P.png'></img>	71,89	2750.0	test	<img class = center src='/static/experiments/beast_fmri_test/images/redP.png'></img>	stop	1800.0	2.0	32.0	stop	non-target	P	71,Index Finger	89,Middle Finger	900.0	950.0	1850.0	1800.0	0.0	0.0	950.0	n/a	stop_stim
145551.47447920009	133.52552079999998	n/a	994	89	2750	133.5255208	stim	stop-signal	460	1220991	0.0-19.32-1.32	beast_fmri_test	386	1218784,/,1219464,/,1220144,/,1220824,/	t,t,t,t	<img class = center src='/static/experiments/beast_fmri_test/images/P.png'></img>	71,89	2750.0	test	<img class = center src='/static/experiments/beast_fmri_test/images/redP.png'></img>	stop	1800.0	2.0	32.0	stop	non-target	P	71,Index Finger	89,Middle Finger	900.0	950.0	1850.0	1800.0	0.0	0.0	950.0	n/a	ITI
146334	500	n/a	-1	-1	500	0.0	fixation	poldrack-single-stim	461	1221640	0.0-19.33-0.33	beast_fmri_test	386	1221504,/	t	<div class = centerbox2><div class = fixation>+</div></div>	none	500.0	test	n/a	n/a	n/a	n/a	n/a	n/a	n/a	n/a	n/a	n/a	n/a	n/a	n/a	n/a	n/a	n/a	n/a	n/a	fixation
146200.58167660004	2750	n/a	1544	89	2750	135.4183234	stim	stop-signal	462	1224392	0.0-19.33-1.33	beast_fmri_test	386	1222184,/,1222864,/,1223544,/,1224224,/	t,t,t,t	<img class = center src='/static/experiments/beast_fmri_test/images/D.png'></img>	71,89	2750.0	test	<img class = center src='/static/experiments/beast_fmri_test/images/redD.png'></img>	go	1850.0	2.0	33.0	go	non-target	D	71,Index Finger	89,Middle Finger	900.0	900.0	1850.0	1850.0	1.0	n/a	900.0	1.0	go_stim
148950.58167660004	135.41832340000002	n/a	1544	89	2750	135.4183234	stim	stop-signal	462	1224392	0.0-19.33-1.33	beast_fmri_test	386	1222184,/,1222864,/,1223544,/,1224224,/	t,t,t,t	<img class = center src='/static/experiments/beast_fmri_test/images/D.png'></img>	71,89	2750.0	test	<img class = center src='/static/experiments/beast_fmri_test/images/redD.png'></img>	go	1850.0	2.0	33.0	go	non-target	D	71,Index Finger	89,Middle Finger	900.0	900.0	1850.0	1850.0	1.0	n/a	900.0	1.0	ITI
149737	500	n/a	-1	-1	500	0.0	fixation	poldrack-single-stim	463	1225043	0.0-19.34-0.34	beast_fmri_test	386	1224904,/	t	<div class = centerbox2><div class = fixation>+</div></div>	none	500.0	test	n/a	n/a	n/a	n/a	n/a	n/a	n/a	n/a	n/a	n/a	n/a	n/a	n/a	n/a	n/a	n/a	n/a	n/a	fixation
149217.23267489998	2750	n/a	1280	89	2750	521.7673251	stim	stop-signal	464	1227795	0.0-19.34-1.34	beast_fmri_test	386	1225584,/,1226264,/,1226944,/,1227624,/,1228304,/	t,t,t,t,t	<img class = center src='/static/experiments/beast_fmri_test/images/B.png'></img>	71,89	2750.0	test	<img class = center src='/static/experiments/beast_fmri_test/images/redB.png'></img>	go	1850.0	2.0	34.0	go	non-target	B	71,Index Finger	89,Middle Finger	900.0	900.0	1850.0	1850.0	1.0	n/a	900.0	1.0	go_stim
151967.23267489998	521.76732509999999	n/a	1280	89	2750	521.7673251	stim	stop-signal	464	1227795	0.0-19.34-1.34	beast_fmri_test	386	1225584,/,1226264,/,1226944,/,1227624,/,1228304,/	t,t,t,t,t	<img class = center src='/static/experiments/beast_fmri_test/images/B.png'></img>	71,89	2750.0	test	<img class = center src='/static/experiments/beast_fmri_test/images/redB.png'></img>	go	1850.0	2.0	34.0	go	non-target	B	71,Index Finger	89,Middle Finger	900.0	900.0	1850.0	1850.0	1.0	n/a	900.0	1.0	ITI
153526	500	n/a	-1	-1	500	0.0	fixation	poldrack-single-stim	465	1228832	0.0-19.35-0.35	beast_fmri_test	386	n/a	n/a	<div class = centerbox2><div class = fixation>+</div></div>	none	500.0	test	n/a	n/a	n/a	n/a	n/a	n/a	n/a	n/a	n/a	n/a	n/a	n/a	n/a	n/a	n/a	n/a	n/a	n/a	fixation
152846.4243055	900.0	n/a	1021	71	2750	681.5756945	stim	stop-signal	466	1231584	0.0-19.35-1.35	beast_fmri_test	386	1228984,/,1229664,/,1230344,/,1231023,/,1231704,/	t,t,t,t,t	<img class = center src='/static/experiments/beast_fmri_test/images/D.png'></img>	71,89	2750.0	test	<img class = center src='/static/experiments/beast_fmri_test/images/redD.png'></img>	stop	1850.0	2.0	35.0	stop	target	D	71,Index Finger	89,Middle Finger	900.0	900.0	1850.0	1850.0	0.0	0.0	900.0	n/a	go_stim
154696.4243055	1850.0	n/a	1021	71	2750	681.5756945	stim	stop-signal	466	1231584	0.0-19.35-1.35	beast_fmri_test	386	1228984,/,1229664,/,1230344,/,1231023,/,1231704,/	t,t,t,t,t	<img class = center src='/static/experiments/beast_fmri_test/images/D.png'></img>	71,89	2750.0	test	<img class = center src='/static/experiments/beast_fmri_test/images/redD.png'></img>	stop	1850.0	2.0	35.0	stop	target	D	71,Index Finger	89,Middle Finger	900.0	900.0	1850.0	1850.0	0.0	0.0	900.0	n/a	stop_stim
155596.4243055	681.57569450000005	n/a	1021	71	2750	681.5756945	stim	stop-signal	466	1231584	0.0-19.35-1.35	beast_fmri_test	386	1228984,/,1229664,/,1230344,/,1231023,/,1231704,/	t,t,t,t,t	<img class = center src='/static/experiments/beast_fmri_test/images/D.png'></img>	71,89	2750.0	test	<img class = center src='/static/experiments/beast_fmri_test/images/redD.png'></img>	stop	1850.0	2.0	35.0	stop	target	D	71,Index Finger	89,Middle Finger	900.0	900.0	1850.0	1850.0	0.0	0.0	900.0	n/a	ITI
157475	500	n/a	-1	-1	500	0.0	fixation	poldrack-single-stim	467	1232781	0.0-19.36-0.36	beast_fmri_test	386	1232384,/	t	<div class = centerbox2><div class = fixation>+</div></div>	none	500.0	test	n/a	n/a	n/a	n/a	n/a	n/a	n/a	n/a	n/a	n/a	n/a	n/a	n/a	n/a	n/a	n/a	n/a	n/a	fixation
155110.02167699998	900.0	n/a	-1	-1	2750	2366.978323	stim	stop-signal	468	1235533	0.0-19.36-1.36	beast_fmri_test	386	1233063,/,1233744,/,1234424,/,1235104,/,1235784,/,1236463,/,1237144,/,1237823,/	t,t,t,t,t,t,t,t	<img class = center src='/static/experiments/beast_fmri_test/images/D.png'></img>	71,89	2750.0	test	<img class = center src='/static/experiments/beast_fmri_test/images/redD.png'></img>	stop	1850.0	2.0	36.0	stop	non-target	D	71,Index Finger	89,Middle Finger	850.0	900.0	1850.0	1850.0	0.0	1.0	900.0	n/a	go_stim
156960.02167699998	1850.0	n/a	-1	-1	2750	2366.978323	stim	stop-signal	468	1235533	0.0-19.36-1.36	beast_fmri_test	386	1233063,/,1233744,/,1234424,/,1235104,/,1235784,/,1236463,/,1237144,/,1237823,/	t,t,t,t,t,t,t,t	<img class = center src='/static/experiments/beast_fmri_test/images/D.png'></img>	71,89	2750.0	test	<img class = center src='/static/experiments/beast_fmri_test/images/redD.png'></img>	stop	1850.0	2.0	36.0	stop	non-target	D	71,Index Finger	89,Middle Finger	850.0	900.0	1850.0	1850.0	0.0	1.0	900.0	n/a	stop_stim
157860.02167699998	2366.9783229999998	n/a	-1	-1	2750	2366.978323	stim	stop-signal	468	1235533	0.0-19.36-1.36	beast_fmri_test	386	1233063,/,1233744,/,1234424,/,1235104,/,1235784,/,1236463,/,1237144,/,1237823,/	t,t,t,t,t,t,t,t	<img class = center src='/static/experiments/beast_fmri_test/images/D.png'></img>	71,89	2750.0	test	<img class = center src='/static/experiments/beast_fmri_test/images/redD.png'></img>	stop	1850.0	2.0	36.0	stop	non-target	D	71,Index Finger	89,Middle Finger	850.0	900.0	1850.0	1850.0	0.0	1.0	900.0	n/a	ITI
163110	500	n/a	-1	-1	500	0.0	fixation	poldrack-single-stim	469	1238416	0.0-19.37-0.37	beast_fmri_test	386	n/a	n/a	<div class = centerbox2><div class = fixation>+</div></div>	none	500.0	test	n/a	n/a	n/a	n/a	n/a	n/a	n/a	n/a	n/a	n/a	n/a	n/a	n/a	n/a	n/a	n/a	n/a	n/a	fixation
162684.81833070004	2750	n/a	1155	89	2750	427.1816693	stim	stop-signal	470	1241168	0.0-19.37-1.37	beast_fmri_test	386	1238503,/,1239184,/,1239864,/,1240544,/,1241224,/	t,t,t,t,t	<img class = center src='/static/experiments/beast_fmri_test/images/P.png'></img>	71,89	2750.0	test	<img class = center src='/static/experiments/beast_fmri_test/images/redP.png'></img>	go	1800.0	2.0	37.0	go	non-target	P	71,Index Finger	89,Middle Finger	850.0	950.0	1850.0	1800.0	1.0	n/a	950.0	1.0	go_stim
165434.81833070004	427.18166930000001	n/a	1155	89	2750	427.1816693	stim	stop-signal	470	1241168	0.0-19.37-1.37	beast_fmri_test	386	1238503,/,1239184,/,1239864,/,1240544,/,1241224,/	t,t,t,t,t	<img class = center src='/static/experiments/beast_fmri_test/images/P.png'></img>	71,89	2750.0	test	<img class = center src='/static/experiments/beast_fmri_test/images/redP.png'></img>	go	1800.0	2.0	37.0	go	non-target	P	71,Index Finger	89,Middle Finger	850.0	950.0	1850.0	1800.0	1.0	n/a	950.0	1.0	ITI
166806	500	n/a	-1	-1	500	0.0	fixation	poldrack-single-stim	471	1242112	0.0-19.38-0.38	beast_fmri_test	386	1241904,/	t	<div class = centerbox2><div class = fixation>+</div></div>	none	500.0	test	n/a	n/a	n/a	n/a	n/a	n/a	n/a	n/a	n/a	n/a	n/a	n/a	n/a	n/a	n/a	n/a	n/a	n/a	fixation
164693.389922	2750	n/a	1569	89	2750	2114.610078	stim	stop-signal	472	1244864	0.0-19.38-1.38	beast_fmri_test	386	1242585,/,1243264,/,1243944,/,1244624,/,1245304,/,1245985,/,1246664,/	t,t,t,t,t,t,t	<img class = center src='/static/experiments/beast_fmri_test/images/T.png'></img>	71,89	2750.0	test	<img class = center src='/static/experiments/beast_fmri_test/images/redT.png'></img>	go	1800.0	2.0	38.0	go	non-target	T	71,Index Finger	89,Middle Finger	850.0	950.0	1850.0	1800.0	1.0	n/a	950.0	1.0	go_stim
167443.389922	2114.6100780000002	n/a	1569	89	2750	2114.610078	stim	stop-signal	472	1244864	0.0-19.38-1.38	beast_fmri_test	386	1242585,/,1243264,/,1243944,/,1244624,/,1245304,/,1245985,/,1246664,/	t,t,t,t,t,t,t	<img class = center src='/static/experiments/beast_fmri_test/images/T.png'></img>	71,89	2750.0	test	<img class = center src='/static/experiments/beast_fmri_test/images/redT.png'></img>	go	1800.0	2.0	38.0	go	non-target	T	71,Index Finger	89,Middle Finger	850.0	950.0	1850.0	1800.0	1.0	n/a	950.0	1.0	ITI
172186	500	n/a	-1	-1	500	0.0	fixation	poldrack-single-stim	473	1247492	0.0-19.39-0.39	beast_fmri_test	386	1247344,/	t	<div class = centerbox2><div class = fixation>+</div></div>	none	500.0	test	n/a	n/a	n/a	n/a	n/a	n/a	n/a	n/a	n/a	n/a	n/a	n/a	n/a	n/a	n/a	n/a	n/a	n/a	fixation
171996.50935860001	950.0	n/a	1051	89	2750	191.4906414	stim	stop-signal	474	1250244	0.0-19.39-1.39	beast_fmri_test	386	1248024,/,1248704,/,1249384,/,1250064,/	t,t,t,t	<img class = center src='/static/experiments/beast_fmri_test/images/T.png'></img>	71,89	2750.0	test	<img class = center src='/static/experiments/beast_fmri_test/images/redT.png'></img>	stop	1800.0	2.0	39.0	stop	non-target	T	71,Index Finger	89,Middle Finger	850.0	950.0	1850.0	1800.0	0.0	0.0	950.0	n/a	go_stim
173796.50935860001	1800.0	n/a	1051	89	2750	191.4906414	stim	stop-signal	474	1250244	0.0-19.39-1.39	beast_fmri_test	386	1248024,/,1248704,/,1249384,/,1250064,/	t,t,t,t	<img class = center src='/static/experiments/beast_fmri_test/images/T.png'></img>	71,89	2750.0	test	<img class = center src='/static/experiments/beast_fmri_test/images/redT.png'></img>	stop	1800.0	2.0	39.0	stop	non-target	T	71,Index Finger	89,Middle Finger	850.0	950.0	1850.0	1800.0	0.0	0.0	950.0	n/a	stop_stim
174746.50935860001	191.49064140000002	n/a	1051	89	2750	191.4906414	stim	stop-signal	474	1250244	0.0-19.39-1.39	beast_fmri_test	386	1248024,/,1248704,/,1249384,/,1250064,/	t,t,t,t	<img class = center src='/static/experiments/beast_fmri_test/images/T.png'></img>	71,89	2750.0	test	<img class = center src='/static/experiments/beast_fmri_test/images/redT.png'></img>	stop	1800.0	2.0	39.0	stop	non-target	T	71,Index Finger	89,Middle Finger	850.0	950.0	1850.0	1800.0	0.0	0.0	950.0	n/a	ITI
175647	500	n/a	-1	-1	500	0.0	fixation	poldrack-single-stim	475	1250953	0.0-19.40-0.40	beast_fmri_test	386	1250744,/	t	<div class = centerbox2><div class = fixation>+</div></div>	none	500.0	test	n/a	n/a	n/a	n/a	n/a	n/a	n/a	n/a	n/a	n/a	n/a	n/a	n/a	n/a	n/a	n/a	n/a	n/a	fixation
175078.12224019994	2750	n/a	1506	89	2750	570.8777598	stim	stop-signal	476	1253705	0.0-19.40-1.40	beast_fmri_test	386	1251424,/,1252104,/,1252784,/,1253464,/,1254144,/	t,t,t,t,t	<img class = center src='/static/experiments/beast_fmri_test/images/P.png'></img>	71,89	2750.0	test	<img class = center src='/static/experiments/beast_fmri_test/images/redP.png'></img>	go	1850.0	2.0	40.0	go	non-target	P	71,Index Finger	89,Middle Finger	850.0	900.0	1850.0	1850.0	1.0	n/a	900.0	1.0	go_stim
177828.12224019994	570.87775979999992	n/a	1506	89	2750	570.8777598	stim	stop-signal	476	1253705	0.0-19.40-1.40	beast_fmri_test	386	1251424,/,1252104,/,1252784,/,1253464,/,1254144,/	t,t,t,t,t	<img class = center src='/static/experiments/beast_fmri_test/images/P.png'></img>	71,89	2750.0	test	<img class = center src='/static/experiments/beast_fmri_test/images/redP.png'></img>	go	1850.0	2.0	40.0	go	non-target	P	71,Index Finger	89,Middle Finger	850.0	900.0	1850.0	1850.0	1.0	n/a	900.0	1.0	ITI
179487	500	n/a	-1	-1	500	0.0	fixation	poldrack-single-stim	477	1254793	0.0-19.41-0.41	beast_fmri_test	386	n/a	n/a	<div class = centerbox2><div class = fixation>+</div></div>	none	500.0	test	n/a	n/a	n/a	n/a	n/a	n/a	n/a	n/a	n/a	n/a	n/a	n/a	n/a	n/a	n/a	n/a	n/a	n/a	fixation
178607.58976830007	2750	n/a	1302	89	2750	880.4102317	stim	stop-signal	478	1257544	0.0-19.41-1.41	beast_fmri_test	386	1254824,/,1255504,/,1256184,/,1256864,/,1257544,/,1258224,/	t,t,t,t,t,t	<img class = center src='/static/experiments/beast_fmri_test/images/B.png'></img>	71,89	2750.0	test	<img class = center src='/static/experiments/beast_fmri_test/images/redB.png'></img>	go	1850.0	2.0	41.0	go	non-target	B	71,Index Finger	89,Middle Finger	850.0	900.0	1850.0	1850.0	1.0	n/a	900.0	1.0	go_stim
181357.58976830007	880.41023169999994	n/a	1302	89	2750	880.4102317	stim	stop-signal	478	1257544	0.0-19.41-1.41	beast_fmri_test	386	1254824,/,1255504,/,1256184,/,1256864,/,1257544,/,1258224,/	t,t,t,t,t,t	<img class = center src='/static/experiments/beast_fmri_test/images/B.png'></img>	71,89	2750.0	test	<img class = center src='/static/experiments/beast_fmri_test/images/redB.png'></img>	go	1850.0	2.0	41.0	go	non-target	B	71,Index Finger	89,Middle Finger	850.0	900.0	1850.0	1850.0	1.0	n/a	900.0	1.0	ITI
183635	500	n/a	-1	-1	500	0.0	fixation	poldrack-single-stim	479	1258941	0.0-19.42-0.42	beast_fmri_test	386	1258904,/	t	<div class = centerbox2><div class = fixation>+</div></div>	none	500.0	test	n/a	n/a	n/a	n/a	n/a	n/a	n/a	n/a	n/a	n/a	n/a	n/a	n/a	n/a	n/a	n/a	n/a	n/a	fixation
182245.66650500009	2750	n/a	1164	89	2750	1391.333495	stim	stop-signal	480	1261693	0.0-19.42-1.42	beast_fmri_test	386	1259584,/,1260264,/,1260944,/,1261624,/,1262304,/,1262984,/	t,t,t,t,t,t	<img class = center src='/static/experiments/beast_fmri_test/images/B.png'></img>	71,89	2750.0	test	<img class = center src='/static/experiments/beast_fmri_test/images/redB.png'></img>	go	1850.0	2.0	42.0	go	non-target	B	71,Index Finger	89,Middle Finger	850.0	900.0	1850.0	1850.0	1.0	n/a	900.0	1.0	go_stim
184995.66650500009	1391.3334949999999	n/a	1164	89	2750	1391.333495	stim	stop-signal	480	1261693	0.0-19.42-1.42	beast_fmri_test	386	1259584,/,1260264,/,1260944,/,1261624,/,1262304,/,1262984,/	t,t,t,t,t,t	<img class = center src='/static/experiments/beast_fmri_test/images/B.png'></img>	71,89	2750.0	test	<img class = center src='/static/experiments/beast_fmri_test/images/redB.png'></img>	go	1850.0	2.0	42.0	go	non-target	B	71,Index Finger	89,Middle Finger	850.0	900.0	1850.0	1850.0	1.0	n/a	900.0	1.0	ITI
188293	500	n/a	-1	-1	500	0.0	fixation	poldrack-single-stim	481	1263599	0.0-19.43-0.43	beast_fmri_test	386	n/a	n/a	<div class = centerbox2><div class = fixation>+</div></div>	none	500.0	test	n/a	n/a	n/a	n/a	n/a	n/a	n/a	n/a	n/a	n/a	n/a	n/a	n/a	n/a	n/a	n/a	n/a	n/a	fixation
188230.54863101989	2750	n/a	1118	89	2750	64.45136898	stim	stop-signal	482	1266351	0.0-19.43-1.43	beast_fmri_test	386	1263664,/,1264344,/,1265024,/,1265703,/,1266385,/	t,t,t,t,t	<img class = center src='/static/experiments/beast_fmri_test/images/T.png'></img>	71,89	2750.0	test	<img class = center src='/static/experiments/beast_fmri_test/images/redT.png'></img>	go	1850.0	2.0	43.0	go	non-target	T	71,Index Finger	89,Middle Finger	850.0	900.0	1850.0	1850.0	1.0	n/a	900.0	1.0	go_stim
190980.54863101989	64.451368979999998	n/a	1118	89	2750	64.45136898	stim	stop-signal	482	1266351	0.0-19.43-1.43	beast_fmri_test	386	1263664,/,1264344,/,1265024,/,1265703,/,1266385,/	t,t,t,t,t	<img class = center src='/static/experiments/beast_fmri_test/images/T.png'></img>	71,89	2750.0	test	<img class = center src='/static/experiments/beast_fmri_test/images/redT.png'></img>	go	1850.0	2.0	43.0	go	non-target	T	71,Index Finger	89,Middle Finger	850.0	900.0	1850.0	1850.0	1.0	n/a	900.0	1.0	ITI
191626	500	n/a	-1	-1	500	0.0	fixation	poldrack-single-stim	483	1266932	0.0-19.44-0.44	beast_fmri_test	386	n/a	n/a	<div class = centerbox2><div class = fixation>+</div></div>	none	500.0	test	n/a	n/a	n/a	n/a	n/a	n/a	n/a	n/a	n/a	n/a	n/a	n/a	n/a	n/a	n/a	n/a	n/a	n/a	fixation
186970.50959999999	900.0	n/a	-1	-1	2750	4657.4904	stim	stop-signal	484	1269684	0.0-19.44-1.44	beast_fmri_test	386	1267064,/,1267744,/,1268424,/,1269103,/,1269783,/,1270463,/,1271143,/,1271824,/,1272503,/,1273184,/,1273864,/	t,t,t,t,t,t,t,t,t,t,t	<img class = center src='/static/experiments/beast_fmri_test/images/D.png'></img>	71,89	2750.0	test	<img class = center src='/static/experiments/beast_fmri_test/images/redD.png'></img>	stop	1850.0	2.0	44.0	stop	non-target	D	71,Index Finger	89,Middle Finger	850.0	900.0	1850.0	1850.0	0.0	1.0	900.0	n/a	go_stim
188820.50959999999	1850.0	n/a	-1	-1	2750	4657.4904	stim	stop-signal	484	1269684	0.0-19.44-1.44	beast_fmri_test	386	1267064,/,1267744,/,1268424,/,1269103,/,1269783,/,1270463,/,1271143,/,1271824,/,1272503,/,1273184,/,1273864,/	t,t,t,t,t,t,t,t,t,t,t	<img class = center src='/static/experiments/beast_fmri_test/images/D.png'></img>	71,89	2750.0	test	<img class = center src='/static/experiments/beast_fmri_test/images/redD.png'></img>	stop	1850.0	2.0	44.0	stop	non-target	D	71,Index Finger	89,Middle Finger	850.0	900.0	1850.0	1850.0	0.0	1.0	900.0	n/a	stop_stim
189720.50959999999	4657.4903999999997	n/a	-1	-1	2750	4657.4904	stim	stop-signal	484	1269684	0.0-19.44-1.44	beast_fmri_test	386	1267064,/,1267744,/,1268424,/,1269103,/,1269783,/,1270463,/,1271143,/,1271824,/,1272503,/,1273184,/,1273864,/	t,t,t,t,t,t,t,t,t,t,t	<img class = center src='/static/experiments/beast_fmri_test/images/D.png'></img>	71,89	2750.0	test	<img class = center src='/static/experiments/beast_fmri_test/images/redD.png'></img>	stop	1850.0	2.0	44.0	stop	non-target	D	71,Index Finger	89,Middle Finger	850.0	900.0	1850.0	1850.0	0.0	1.0	900.0	n/a	ITI
199552	500	n/a	-1	-1	500	0.0	fixation	poldrack-single-stim	485	1274858	0.0-19.45-0.45	beast_fmri_test	386	1274544,/	t	<div class = centerbox2><div class = fixation>+</div></div>	none	500.0	test	n/a	n/a	n/a	n/a	n/a	n/a	n/a	n/a	n/a	n/a	n/a	n/a	n/a	n/a	n/a	n/a	n/a	n/a	fixation
199154.06233699992	950.0	n/a	728	89	2750	398.937663	stim	stop-signal	486	1277609	0.0-19.45-1.45	beast_fmri_test	386	1275225,/,1275904,/,1276586,/,1277264,/,1277944,/	t,t,t,t,t	<img class = center src='/static/experiments/beast_fmri_test/images/D.png'></img>	71,89	2750.0	test	<img class = center src='/static/experiments/beast_fmri_test/images/redD.png'></img>	stop	1800.0	2.0	45.0	stop	non-target	D	71,Index Finger	89,Middle Finger	850.0	950.0	1850.0	1800.0	0.0	0.0	950.0	n/a	go_stim
200954.06233699992	1800.0	n/a	728	89	2750	398.937663	stim	stop-signal	486	1277609	0.0-19.45-1.45	beast_fmri_test	386	1275225,/,1275904,/,1276586,/,1277264,/,1277944,/	t,t,t,t,t	<img class = center src='/static/experiments/beast_fmri_test/images/D.png'></img>	71,89	2750.0	test	<img class = center src='/static/experiments/beast_fmri_test/images/redD.png'></img>	stop	1800.0	2.0	45.0	stop	non-target	D	71,Index Finger	89,Middle Finger	850.0	950.0	1850.0	1800.0	0.0	0.0	950.0	n/a	stop_stim
201904.06233699992	398.93766299999999	n/a	728	89	2750	398.937663	stim	stop-signal	486	1277609	0.0-19.45-1.45	beast_fmri_test	386	1275225,/,1275904,/,1276586,/,1277264,/,1277944,/	t,t,t,t,t	<img class = center src='/static/experiments/beast_fmri_test/images/D.png'></img>	71,89	2750.0	test	<img class = center src='/static/experiments/beast_fmri_test/images/redD.png'></img>	stop	1800.0	2.0	45.0	stop	non-target	D	71,Index Finger	89,Middle Finger	850.0	950.0	1850.0	1800.0	0.0	0.0	950.0	n/a	ITI
203218	500	n/a	-1	-1	500	0.0	fixation	poldrack-single-stim	487	1278524	0.0-19.46-0.46	beast_fmri_test	386	n/a	n/a	<div class = centerbox2><div class = fixation>+</div></div>	none	500.0	test	n/a	n/a	n/a	n/a	n/a	n/a	n/a	n/a	n/a	n/a	n/a	n/a	n/a	n/a	n/a	n/a	n/a	n/a	fixation
202242.35145669989	2750	n/a	1380	89	2750	977.6485433	stim	stop-signal	488	1281276	0.0-19.46-1.46	beast_fmri_test	386	1278624,/,1279304,/,1279984,/,1280664,/,1281344,/,1282024,/	t,t,t,t,t,t	<img class = center src='/static/experiments/beast_fmri_test/images/T.png'></img>	71,89	2750.0	test	<img class = center src='/static/experiments/beast_fmri_test/images/redT.png'></img>	go	1850.0	2.0	46.0	go	non-target	T	71,Index Finger	89,Middle Finger	850.0	900.0	1850.0	1850.0	1.0	n/a	900.0	1.0	go_stim
204992.35145669989	977.64854330000003	n/a	1380	89	2750	977.6485433	stim	stop-signal	488	1281276	0.0-19.46-1.46	beast_fmri_test	386	1278624,/,1279304,/,1279984,/,1280664,/,1281344,/,1282024,/	t,t,t,t,t,t	<img class = center src='/static/experiments/beast_fmri_test/images/T.png'></img>	71,89	2750.0	test	<img class = center src='/static/experiments/beast_fmri_test/images/redT.png'></img>	go	1850.0	2.0	46.0	go	non-target	T	71,Index Finger	89,Middle Finger	850.0	900.0	1850.0	1850.0	1.0	n/a	900.0	1.0	ITI
221965	15000	n/a	-1	-1	15000	0.0	practice-no-stop-feedback	poldrack-single-stim	489	1297271	0.0-20.0	beast_fmri_test	386	1282704,/,1283384,/,1284064,/,1284744,/,1285424,/,1286104,/,1286785,/,1287464,/,1288144,/,1288824,/,1289504,/,1290184,/,1290864,/,1291544,/,1292224,/,1292904,/,1293584,/,1294263,/,1294944,/,1295624,/,1296304,/,1296985,/	t,t,t,t,t,t,t,t,t,t,t,t,t,t,t,t,t,t,t,t,t,t	"<div class = ""centerbox2_2""><p class = ""block-text2"">Your delay is 3 trials.</p><p class = block-text2>Please wait for the scanner to start the block</p></div>"	77	15000.0	n/a	n/a	n/a	n/a	n/a	n/a	n/a	n/a	n/a	n/a	n/a	n/a	n/a	n/a	n/a	n/a	n/a	n/a	n/a	practice-no-stop-feedback
222467	500	n/a	-1	-1	500	0.0	fixation	poldrack-single-stim	490	1297773	0.0-21.0-0.0	beast_fmri_test	386	1297664,/	t	<div class = centerbox2><div class = fixation>+</div></div>	none	500.0	test	n/a	n/a	n/a	n/a	n/a	n/a	n/a	n/a	n/a	n/a	n/a	n/a	n/a	n/a	n/a	n/a	n/a	n/a	fixation
221912.19741109991	2750	n/a	639	89	2750	557.8025889	stim	stop-signal	491	1300526	0.0-21.0-1.0	beast_fmri_test	386	1298344,/,1299024,/,1299704,/,1300384,/,1301063,/	t,t,t,t,t	<img class = center src='/static/experiments/beast_fmri_test/images/B.png'></img>	71,89	2750.0	test	<img class = center src='/static/experiments/beast_fmri_test/images/redB.png'></img>	go	-1.0	3.0	0.0	go	temp-non-target	B	71,Index Finger	89,Middle Finger	850.0	900.0	1850.0	1850.0	0.0	n/a	n/a	n/a	go_stim
224662.19741109991	557.80258889999993	n/a	639	89	2750	557.8025889	stim	stop-signal	491	1300526	0.0-21.0-1.0	beast_fmri_test	386	1298344,/,1299024,/,1299704,/,1300384,/,1301063,/	t,t,t,t,t	<img class = center src='/static/experiments/beast_fmri_test/images/B.png'></img>	71,89	2750.0	test	<img class = center src='/static/experiments/beast_fmri_test/images/redB.png'></img>	go	-1.0	3.0	0.0	go	temp-non-target	B	71,Index Finger	89,Middle Finger	850.0	900.0	1850.0	1850.0	0.0	n/a	n/a	n/a	ITI
226293	500	n/a	-1	-1	500	0.0	fixation	poldrack-single-stim	492	1301599	0.0-21.1-0.1	beast_fmri_test	386	n/a	n/a	<div class = centerbox2><div class = fixation>+</div></div>	none	500.0	test	n/a	n/a	n/a	n/a	n/a	n/a	n/a	n/a	n/a	n/a	n/a	n/a	n/a	n/a	n/a	n/a	n/a	n/a	fixation
226014.84384489991	2750	n/a	889	89	2750	280.1561551	stim	stop-signal	493	1304351	0.0-21.1-1.1	beast_fmri_test	386	1301744,/,1302423,/,1303104,/,1303783,/,1304463,/	t,t,t,t,t	<img class = center src='/static/experiments/beast_fmri_test/images/D.png'></img>	71,89	2750.0	test	<img class = center src='/static/experiments/beast_fmri_test/images/redD.png'></img>	go	-1.0	3.0	1.0	go	temp-non-target	D	71,Index Finger	89,Middle Finger	850.0	900.0	1850.0	1850.0	0.0	n/a	n/a	n/a	go_stim
228764.84384489991	280.15615510000003	n/a	889	89	2750	280.1561551	stim	stop-signal	493	1304351	0.0-21.1-1.1	beast_fmri_test	386	1301744,/,1302423,/,1303104,/,1303783,/,1304463,/	t,t,t,t,t	<img class = center src='/static/experiments/beast_fmri_test/images/D.png'></img>	71,89	2750.0	test	<img class = center src='/static/experiments/beast_fmri_test/images/redD.png'></img>	go	-1.0	3.0	1.0	go	temp-non-target	D	71,Index Finger	89,Middle Finger	850.0	900.0	1850.0	1850.0	0.0	n/a	n/a	n/a	ITI
229842	500	n/a	-1	-1	500	0.0	fixation	poldrack-single-stim	494	1305148	0.0-21.2-0.2	beast_fmri_test	386	1305143,/	t	<div class = centerbox2><div class = fixation>+</div></div>	none	500.0	test	n/a	n/a	n/a	n/a	n/a	n/a	n/a	n/a	n/a	n/a	n/a	n/a	n/a	n/a	n/a	n/a	n/a	n/a	fixation
228848.54171729996	2750	n/a	1022	89	2750	994.4582827	stim	stop-signal	495	1307899	0.0-21.2-1.2	beast_fmri_test	386	1305823,/,1306503,/,1307185,/,1307864,/,1308544,/	t,t,t,t,t	<img class = center src='/static/experiments/beast_fmri_test/images/D.png'></img>	71,89	2750.0	test	<img class = center src='/static/experiments/beast_fmri_test/images/redD.png'></img>	go	-1.0	3.0	2.0	go	temp-non-target	D	71,Index Finger	89,Middle Finger	850.0	900.0	1850.0	1850.0	0.0	n/a	n/a	n/a	go_stim
231598.54171729996	994.45828269999993	n/a	1022	89	2750	994.4582827	stim	stop-signal	495	1307899	0.0-21.2-1.2	beast_fmri_test	386	1305823,/,1306503,/,1307185,/,1307864,/,1308544,/	t,t,t,t,t	<img class = center src='/static/experiments/beast_fmri_test/images/D.png'></img>	71,89	2750.0	test	<img class = center src='/static/experiments/beast_fmri_test/images/redD.png'></img>	go	-1.0	3.0	2.0	go	temp-non-target	D	71,Index Finger	89,Middle Finger	850.0	900.0	1850.0	1850.0	0.0	n/a	n/a	n/a	ITI
234105	500	n/a	-1	-1	500	0.0	fixation	poldrack-single-stim	496	1309411	0.0-21.3-0.3	beast_fmri_test	386	1309224,/	t	<div class = centerbox2><div class = fixation>+</div></div>	none	500.0	test	n/a	n/a	n/a	n/a	n/a	n/a	n/a	n/a	n/a	n/a	n/a	n/a	n/a	n/a	n/a	n/a	n/a	n/a	fixation
233898.851945	2750	n/a	676	71	2750	208.148055	stim	stop-signal	497	1312163	0.0-21.3-1.3	beast_fmri_test	386	1309905,/,1310584,/,1311264,/,1311944,/	t,t,t,t	<img class = center src='/static/experiments/beast_fmri_test/images/B.png'></img>	71,89	2750.0	test	<img class = center src='/static/experiments/beast_fmri_test/images/redB.png'></img>	go	1900.0	3.0	3.0	go	target	B	71,Index Finger	89,Middle Finger	850.0	900.0	1900.0	1850.0	1.0	n/a	850.0	1.0	go_stim
236648.851945	208.148055	n/a	676	71	2750	208.148055	stim	stop-signal	497	1312163	0.0-21.3-1.3	beast_fmri_test	386	1309905,/,1310584,/,1311264,/,1311944,/	t,t,t,t	<img class = center src='/static/experiments/beast_fmri_test/images/B.png'></img>	71,89	2750.0	test	<img class = center src='/static/experiments/beast_fmri_test/images/redB.png'></img>	go	1900.0	3.0	3.0	go	target	B	71,Index Finger	89,Middle Finger	850.0	900.0	1900.0	1850.0	1.0	n/a	850.0	1.0	ITI
237583	500	n/a	-1	-1	500	0.0	fixation	poldrack-single-stim	498	1312889	0.0-21.4-0.4	beast_fmri_test	386	1312625,/	t	<div class = centerbox2><div class = fixation>+</div></div>	none	500.0	test	n/a	n/a	n/a	n/a	n/a	n/a	n/a	n/a	n/a	n/a	n/a	n/a	n/a	n/a	n/a	n/a	n/a	n/a	fixation
236530.44266900001	2750	n/a	942	89	2750	1054.557331	stim	stop-signal	499	1315641	0.0-21.4-1.4	beast_fmri_test	386	1313304,/,1313984,/,1314664,/,1315344,/,1316024,/	t,t,t,t,t	<img class = center src='/static/experiments/beast_fmri_test/images/V.png'></img>	71,89	2750.0	test	<img class = center src='/static/experiments/beast_fmri_test/images/redV.png'></img>	go	1850.0	3.0	4.0	go	non-target	V	71,Index Finger	89,Middle Finger	850.0	900.0	1900.0	1850.0	1.0	n/a	900.0	1.0	go_stim
239280.44266900001	1054.557331	n/a	942	89	2750	1054.557331	stim	stop-signal	499	1315641	0.0-21.4-1.4	beast_fmri_test	386	1313304,/,1313984,/,1314664,/,1315344,/,1316024,/	t,t,t,t,t	<img class = center src='/static/experiments/beast_fmri_test/images/V.png'></img>	71,89	2750.0	test	<img class = center src='/static/experiments/beast_fmri_test/images/redV.png'></img>	go	1850.0	3.0	4.0	go	non-target	V	71,Index Finger	89,Middle Finger	850.0	900.0	1900.0	1850.0	1.0	n/a	900.0	1.0	ITI
241906	500	n/a	-1	-1	500	0.0	fixation	poldrack-single-stim	500	1317212	0.0-21.5-0.5	beast_fmri_test	386	1316710,/	t	<div class = centerbox2><div class = fixation>+</div></div>	none	500.0	test	n/a	n/a	n/a	n/a	n/a	n/a	n/a	n/a	n/a	n/a	n/a	n/a	n/a	n/a	n/a	n/a	n/a	n/a	fixation
239625.34203399997	2750	n/a	709	89	2750	2281.657966	stim	stop-signal	501	1319963	0.0-21.5-1.5	beast_fmri_test	386	1317385,/,1318064,/,1318744,/,1319424,/,1320104,/,1320784,/,1321464,/,1322144,/	t,t,t,t,t,t,t,t	<img class = center src='/static/experiments/beast_fmri_test/images/T.png'></img>	71,89	2750.0	test	<img class = center src='/static/experiments/beast_fmri_test/images/redT.png'></img>	go	1850.0	3.0	5.0	go	non-target	T	71,Index Finger	89,Middle Finger	850.0	900.0	1900.0	1850.0	1.0	n/a	900.0	1.0	go_stim
242375.34203399997	2281.6579660000002	n/a	709	89	2750	2281.657966	stim	stop-signal	501	1319963	0.0-21.5-1.5	beast_fmri_test	386	1317385,/,1318064,/,1318744,/,1319424,/,1320104,/,1320784,/,1321464,/,1322144,/	t,t,t,t,t,t,t,t	<img class = center src='/static/experiments/beast_fmri_test/images/T.png'></img>	71,89	2750.0	test	<img class = center src='/static/experiments/beast_fmri_test/images/redT.png'></img>	go	1850.0	3.0	5.0	go	non-target	T	71,Index Finger	89,Middle Finger	850.0	900.0	1900.0	1850.0	1.0	n/a	900.0	1.0	ITI
247456	500	n/a	-1	-1	500	0.0	fixation	poldrack-single-stim	502	1322762	0.0-21.6-0.6	beast_fmri_test	386	n/a	n/a	<div class = centerbox2><div class = fixation>+</div></div>	none	500.0	test	n/a	n/a	n/a	n/a	n/a	n/a	n/a	n/a	n/a	n/a	n/a	n/a	n/a	n/a	n/a	n/a	n/a	n/a	fixation
246150.21999899996	900.0	n/a	855	89	2750	1307.780001	stim	stop-signal	503	1325514	0.0-21.6-1.6	beast_fmri_test	386	1322824,/,1323504,/,1324184,/,1324864,/,1325544,/,1326224,/	t,t,t,t,t,t	<img class = center src='/static/experiments/beast_fmri_test/images/P.png'></img>	71,89	2750.0	test	<img class = center src='/static/experiments/beast_fmri_test/images/redP.png'></img>	stop	1850.0	3.0	6.0	stop	non-target	P	71,Index Finger	89,Middle Finger	850.0	900.0	1900.0	1850.0	0.0	0.0	900.0	n/a	go_stim
248000.21999899996	1850.0	n/a	855	89	2750	1307.780001	stim	stop-signal	503	1325514	0.0-21.6-1.6	beast_fmri_test	386	1322824,/,1323504,/,1324184,/,1324864,/,1325544,/,1326224,/	t,t,t,t,t,t	<img class = center src='/static/experiments/beast_fmri_test/images/P.png'></img>	71,89	2750.0	test	<img class = center src='/static/experiments/beast_fmri_test/images/redP.png'></img>	stop	1850.0	3.0	6.0	stop	non-target	P	71,Index Finger	89,Middle Finger	850.0	900.0	1900.0	1850.0	0.0	0.0	900.0	n/a	stop_stim
248900.21999899996	1307.7800010000001	n/a	855	89	2750	1307.780001	stim	stop-signal	503	1325514	0.0-21.6-1.6	beast_fmri_test	386	1322824,/,1323504,/,1324184,/,1324864,/,1325544,/,1326224,/	t,t,t,t,t,t	<img class = center src='/static/experiments/beast_fmri_test/images/P.png'></img>	71,89	2750.0	test	<img class = center src='/static/experiments/beast_fmri_test/images/redP.png'></img>	stop	1850.0	3.0	6.0	stop	non-target	P	71,Index Finger	89,Middle Finger	850.0	900.0	1900.0	1850.0	0.0	0.0	900.0	n/a	ITI
252032	500	n/a	-1	-1	500	0.0	fixation	poldrack-single-stim	504	1327338	0.0-21.7-0.7	beast_fmri_test	386	1326904,/	t	<div class = centerbox2><div class = fixation>+</div></div>	none	500.0	test	n/a	n/a	n/a	n/a	n/a	n/a	n/a	n/a	n/a	n/a	n/a	n/a	n/a	n/a	n/a	n/a	n/a	n/a	fixation
250337.189915	850.0	n/a	939	89	2750	1697.810085	stim	stop-signal	505	1330091	0.0-21.7-1.7	beast_fmri_test	386	1327585,/,1328264,/,1328944,/,1329624,/,1330303,/,1330983,/,1331664,/	t,t,t,t,t,t,t	<img class = center src='/static/experiments/beast_fmri_test/images/T.png'></img>	71,89	2750.0	test	<img class = center src='/static/experiments/beast_fmri_test/images/redT.png'></img>	stop	1900.0	3.0	7.0	stop	non-target	T	71,Index Finger	89,Middle Finger	850.0	850.0	1900.0	1900.0	0.0	0.0	850.0	n/a	go_stim
252237.189915	1900.0	n/a	939	89	2750	1697.810085	stim	stop-signal	505	1330091	0.0-21.7-1.7	beast_fmri_test	386	1327585,/,1328264,/,1328944,/,1329624,/,1330303,/,1330983,/,1331664,/	t,t,t,t,t,t,t	<img class = center src='/static/experiments/beast_fmri_test/images/T.png'></img>	71,89	2750.0	test	<img class = center src='/static/experiments/beast_fmri_test/images/redT.png'></img>	stop	1900.0	3.0	7.0	stop	non-target	T	71,Index Finger	89,Middle Finger	850.0	850.0	1900.0	1900.0	0.0	0.0	850.0	n/a	stop_stim
253087.189915	1697.8100850000001	n/a	939	89	2750	1697.810085	stim	stop-signal	505	1330091	0.0-21.7-1.7	beast_fmri_test	386	1327585,/,1328264,/,1328944,/,1329624,/,1330303,/,1330983,/,1331664,/	t,t,t,t,t,t,t	<img class = center src='/static/experiments/beast_fmri_test/images/T.png'></img>	71,89	2750.0	test	<img class = center src='/static/experiments/beast_fmri_test/images/redT.png'></img>	stop	1900.0	3.0	7.0	stop	non-target	T	71,Index Finger	89,Middle Finger	850.0	850.0	1900.0	1900.0	0.0	0.0	850.0	n/a	ITI
256999	500	n/a	-1	-1	500	0.0	fixation	poldrack-single-stim	506	1332305	0.0-21.8-0.8	beast_fmri_test	386	n/a	n/a	<div class = centerbox2><div class = fixation>+</div></div>	none	500.0	test	n/a	n/a	n/a	n/a	n/a	n/a	n/a	n/a	n/a	n/a	n/a	n/a	n/a	n/a	n/a	n/a	n/a	n/a	fixation
256989.53791806009	800.0	n/a	1032	89	2750	10.46208194	stim	stop-signal	507	1335056	0.0-21.8-1.8	beast_fmri_test	386	1332344,/,1333024,/,1333704,/,1334384,/,1335063,/	t,t,t,t,t	<img class = center src='/static/experiments/beast_fmri_test/images/D.png'></img>	71,89	2750.0	test	<img class = center src='/static/experiments/beast_fmri_test/images/redD.png'></img>	stop	1950.0	3.0	8.0	stop	non-target	D	71,Index Finger	89,Middle Finger	850.0	800.0	1900.0	1950.0	0.0	0.0	800.0	n/a	go_stim
258939.53791806009	1950.0	n/a	1032	89	2750	10.46208194	stim	stop-signal	507	1335056	0.0-21.8-1.8	beast_fmri_test	386	1332344,/,1333024,/,1333704,/,1334384,/,1335063,/	t,t,t,t,t	<img class = center src='/static/experiments/beast_fmri_test/images/D.png'></img>	71,89	2750.0	test	<img class = center src='/static/experiments/beast_fmri_test/images/redD.png'></img>	stop	1950.0	3.0	8.0	stop	non-target	D	71,Index Finger	89,Middle Finger	850.0	800.0	1900.0	1950.0	0.0	0.0	800.0	n/a	stop_stim
259739.53791806009	10.462081939999999	n/a	1032	89	2750	10.46208194	stim	stop-signal	507	1335056	0.0-21.8-1.8	beast_fmri_test	386	1332344,/,1333024,/,1333704,/,1334384,/,1335063,/	t,t,t,t,t	<img class = center src='/static/experiments/beast_fmri_test/images/D.png'></img>	71,89	2750.0	test	<img class = center src='/static/experiments/beast_fmri_test/images/redD.png'></img>	stop	1950.0	3.0	8.0	stop	non-target	D	71,Index Finger	89,Middle Finger	850.0	800.0	1900.0	1950.0	0.0	0.0	800.0	n/a	ITI
260275	500	n/a	-1	-1	500	0.0	fixation	poldrack-single-stim	508	1335581	0.0-21.9-0.9	beast_fmri_test	386	n/a	n/a	<div class = centerbox2><div class = fixation>+</div></div>	none	500.0	test	n/a	n/a	n/a	n/a	n/a	n/a	n/a	n/a	n/a	n/a	n/a	n/a	n/a	n/a	n/a	n/a	n/a	n/a	fixation
255447.73340700008	2750	n/a	1526	89	2750	4828.266593	stim	stop-signal	509	1338332	0.0-21.9-1.9	beast_fmri_test	386	1335743,/,1336423,/,1337104,/,1337784,/,1338464,/,1339143,/,1339823,/,1340504,/,1341184,/,1341864,/,1342545,/	t,t,t,t,t,t,t,t,t,t,t	<img class = center src='/static/experiments/beast_fmri_test/images/V.png'></img>	71,89	2750.0	test	<img class = center src='/static/experiments/beast_fmri_test/images/redV.png'></img>	go	2000.0	3.0	9.0	go	non-target	V	71,Index Finger	89,Middle Finger	850.0	750.0	1900.0	2000.0	1.0	n/a	750.0	1.0	go_stim
258197.73340700008	4828.2665930000003	n/a	1526	89	2750	4828.266593	stim	stop-signal	509	1338332	0.0-21.9-1.9	beast_fmri_test	386	1335743,/,1336423,/,1337104,/,1337784,/,1338464,/,1339143,/,1339823,/,1340504,/,1341184,/,1341864,/,1342545,/	t,t,t,t,t,t,t,t,t,t,t	<img class = center src='/static/experiments/beast_fmri_test/images/V.png'></img>	71,89	2750.0	test	<img class = center src='/static/experiments/beast_fmri_test/images/redV.png'></img>	go	2000.0	3.0	9.0	go	non-target	V	71,Index Finger	89,Middle Finger	850.0	750.0	1900.0	2000.0	1.0	n/a	750.0	1.0	ITI
268373	500	n/a	-1	-1	500	0.0	fixation	poldrack-single-stim	510	1343679	0.0-21.10-0.10	beast_fmri_test	386	1343224,/	t	<div class = centerbox2><div class = fixation>+</div></div>	none	500.0	test	n/a	n/a	n/a	n/a	n/a	n/a	n/a	n/a	n/a	n/a	n/a	n/a	n/a	n/a	n/a	n/a	n/a	n/a	fixation
268275.35828117002	2750	n/a	1186	71	2750	98.64171883	stim	stop-signal	511	1346430	0.0-21.10-1.10	beast_fmri_test	386	1343904,/,1344585,/,1345264,/,1345944,/	t,t,t,t	<img class = center src='/static/experiments/beast_fmri_test/images/D.png'></img>	71,89	2750.0	test	<img class = center src='/static/experiments/beast_fmri_test/images/redD.png'></img>	go	2000.0	3.0	10.0	go	non-target	D	71,Index Finger	89,Middle Finger	850.0	750.0	1900.0	2000.0	0.0	n/a	750.0	0.0	go_stim
271025.35828117002	98.641718830000002	n/a	1186	71	2750	98.64171883	stim	stop-signal	511	1346430	0.0-21.10-1.10	beast_fmri_test	386	1343904,/,1344585,/,1345264,/,1345944,/	t,t,t,t	<img class = center src='/static/experiments/beast_fmri_test/images/D.png'></img>	71,89	2750.0	test	<img class = center src='/static/experiments/beast_fmri_test/images/redD.png'></img>	go	2000.0	3.0	10.0	go	non-target	D	71,Index Finger	89,Middle Finger	850.0	750.0	1900.0	2000.0	0.0	n/a	750.0	0.0	ITI
271741	500	n/a	-1	-1	500	0.0	fixation	poldrack-single-stim	512	1347047	0.0-21.11-0.11	beast_fmri_test	386	1346625,/	t	<div class = centerbox2><div class = fixation>+</div></div>	none	500.0	test	n/a	n/a	n/a	n/a	n/a	n/a	n/a	n/a	n/a	n/a	n/a	n/a	n/a	n/a	n/a	n/a	n/a	n/a	fixation
271126.09534500004	2750	n/a	1481	89	2750	616.904655	stim	stop-signal	513	1349799	0.0-21.11-1.11	beast_fmri_test	386	1347304,/,1347985,/,1348664,/,1349344,/,1350024,/	t,t,t,t,t	<img class = center src='/static/experiments/beast_fmri_test/images/D.png'></img>	71,89	2750.0	test	<img class = center src='/static/experiments/beast_fmri_test/images/redD.png'></img>	go	1900.0	3.0	11.0	go	target	D	71,Index Finger	89,Middle Finger	850.0	750.0	1900.0	2000.0	0.0	n/a	850.0	0.0	go_stim
273876.09534500004	616.90465499999993	n/a	1481	89	2750	616.904655	stim	stop-signal	513	1349799	0.0-21.11-1.11	beast_fmri_test	386	1347304,/,1347985,/,1348664,/,1349344,/,1350024,/	t,t,t,t,t	<img class = center src='/static/experiments/beast_fmri_test/images/D.png'></img>	71,89	2750.0	test	<img class = center src='/static/experiments/beast_fmri_test/images/redD.png'></img>	go	1900.0	3.0	11.0	go	target	D	71,Index Finger	89,Middle Finger	850.0	750.0	1900.0	2000.0	0.0	n/a	850.0	0.0	ITI
275626	500	n/a	-1	-1	500	0.0	fixation	poldrack-single-stim	514	1350932	0.0-21.12-0.12	beast_fmri_test	386	1350704,/	t	<div class = centerbox2><div class = fixation>+</div></div>	none	500.0	test	n/a	n/a	n/a	n/a	n/a	n/a	n/a	n/a	n/a	n/a	n/a	n/a	n/a	n/a	n/a	n/a	n/a	n/a	fixation
274263.81933699991	850.0	n/a	-1	-1	2750	1364.180663	stim	stop-signal	515	1353684	0.0-21.12-1.12	beast_fmri_test	386	1351384,/,1352064,/,1352744,/,1353424,/,1354104,/,1354784,/	t,t,t,t,t,t	<img class = center src='/static/experiments/beast_fmri_test/images/V.png'></img>	71,89	2750.0	test	<img class = center src='/static/experiments/beast_fmri_test/images/redV.png'></img>	stop	1900.0	3.0	12.0	stop	target	V	71,Index Finger	89,Middle Finger	850.0	750.0	1900.0	2000.0	0.0	1.0	850.0	n/a	go_stim
276163.81933699991	1900.0	n/a	-1	-1	2750	1364.180663	stim	stop-signal	515	1353684	0.0-21.12-1.12	beast_fmri_test	386	1351384,/,1352064,/,1352744,/,1353424,/,1354104,/,1354784,/	t,t,t,t,t,t	<img class = center src='/static/experiments/beast_fmri_test/images/V.png'></img>	71,89	2750.0	test	<img class = center src='/static/experiments/beast_fmri_test/images/redV.png'></img>	stop	1900.0	3.0	12.0	stop	target	V	71,Index Finger	89,Middle Finger	850.0	750.0	1900.0	2000.0	0.0	1.0	850.0	n/a	stop_stim
277013.81933699991	1364.1806630000001	n/a	-1	-1	2750	1364.180663	stim	stop-signal	515	1353684	0.0-21.12-1.12	beast_fmri_test	386	1351384,/,1352064,/,1352744,/,1353424,/,1354104,/,1354784,/	t,t,t,t,t,t	<img class = center src='/static/experiments/beast_fmri_test/images/V.png'></img>	71,89	2750.0	test	<img class = center src='/static/experiments/beast_fmri_test/images/redV.png'></img>	stop	1900.0	3.0	12.0	stop	target	V	71,Index Finger	89,Middle Finger	850.0	750.0	1900.0	2000.0	0.0	1.0	850.0	n/a	ITI
280262	500	n/a	-1	-1	500	0.0	fixation	poldrack-single-stim	516	1355568	0.0-21.13-0.13	beast_fmri_test	386	1355464,/	t	<div class = centerbox2><div class = fixation>+</div></div>	none	500.0	test	n/a	n/a	n/a	n/a	n/a	n/a	n/a	n/a	n/a	n/a	n/a	n/a	n/a	n/a	n/a	n/a	n/a	n/a	fixation
280053.20078029996	2750	n/a	994	89	2750	210.7992197	stim	stop-signal	517	1358320	0.0-21.13-1.13	beast_fmri_test	386	1356144,/,1356824,/,1357504,/,1358185,/	t,t,t,t	<img class = center src='/static/experiments/beast_fmri_test/images/T.png'></img>	71,89	2750.0	test	<img class = center src='/static/experiments/beast_fmri_test/images/redT.png'></img>	go	2000.0	3.0	13.0	go	non-target	T	71,Index Finger	89,Middle Finger	900.0	750.0	1900.0	2000.0	1.0	n/a	750.0	1.0	go_stim
282803.20078029996	210.79921969999998	n/a	994	89	2750	210.7992197	stim	stop-signal	517	1358320	0.0-21.13-1.13	beast_fmri_test	386	1356144,/,1356824,/,1357504,/,1358185,/	t,t,t,t	<img class = center src='/static/experiments/beast_fmri_test/images/T.png'></img>	71,89	2750.0	test	<img class = center src='/static/experiments/beast_fmri_test/images/redT.png'></img>	go	2000.0	3.0	13.0	go	non-target	T	71,Index Finger	89,Middle Finger	900.0	750.0	1900.0	2000.0	1.0	n/a	750.0	1.0	ITI
283739	500	n/a	-1	-1	500	0.0	fixation	poldrack-single-stim	518	1359045	0.0-21.14-0.14	beast_fmri_test	386	1358864,/	t	<div class = centerbox2><div class = fixation>+</div></div>	none	500.0	test	n/a	n/a	n/a	n/a	n/a	n/a	n/a	n/a	n/a	n/a	n/a	n/a	n/a	n/a	n/a	n/a	n/a	n/a	fixation
282641.63873800007	2750	n/a	1253	89	2750	1099.361262	stim	stop-signal	519	1361797	0.0-21.14-1.14	beast_fmri_test	386	1359544,/,1360224,/,1360904,/,1361584,/,1362264,/	t,t,t,t,t	<img class = center src='/static/experiments/beast_fmri_test/images/B.png'></img>	71,89	2750.0	test	<img class = center src='/static/experiments/beast_fmri_test/images/redB.png'></img>	go	2000.0	3.0	14.0	go	non-target	B	71,Index Finger	89,Middle Finger	900.0	750.0	1900.0	2000.0	1.0	n/a	750.0	1.0	go_stim
285391.63873800007	1099.3612619999999	n/a	1253	89	2750	1099.361262	stim	stop-signal	519	1361797	0.0-21.14-1.14	beast_fmri_test	386	1359544,/,1360224,/,1360904,/,1361584,/,1362264,/	t,t,t,t,t	<img class = center src='/static/experiments/beast_fmri_test/images/B.png'></img>	71,89	2750.0	test	<img class = center src='/static/experiments/beast_fmri_test/images/redB.png'></img>	go	2000.0	3.0	14.0	go	non-target	B	71,Index Finger	89,Middle Finger	900.0	750.0	1900.0	2000.0	1.0	n/a	750.0	1.0	ITI
288107	500	n/a	-1	-1	500	0.0	fixation	poldrack-single-stim	520	1363413	0.0-21.15-0.15	beast_fmri_test	386	1362944,/	t	<div class = centerbox2><div class = fixation>+</div></div>	none	500.0	test	n/a	n/a	n/a	n/a	n/a	n/a	n/a	n/a	n/a	n/a	n/a	n/a	n/a	n/a	n/a	n/a	n/a	n/a	fixation
288011.12908820994	2750	n/a	1253	89	2750	97.87091179	stim	stop-signal	521	1366165	0.0-21.15-1.15	beast_fmri_test	386	1363624,/,1364304,/,1364984,/,1365663,/	t,t,t,t	<img class = center src='/static/experiments/beast_fmri_test/images/T.png'></img>	71,89	2750.0	test	<img class = center src='/static/experiments/beast_fmri_test/images/redT.png'></img>	go	2000.0	3.0	15.0	go	non-target	T	71,Index Finger	89,Middle Finger	900.0	750.0	1900.0	2000.0	1.0	n/a	750.0	1.0	go_stim
290761.12908820994	97.870911789999994	n/a	1253	89	2750	97.87091179	stim	stop-signal	521	1366165	0.0-21.15-1.15	beast_fmri_test	386	1363624,/,1364304,/,1364984,/,1365663,/	t,t,t,t	<img class = center src='/static/experiments/beast_fmri_test/images/T.png'></img>	71,89	2750.0	test	<img class = center src='/static/experiments/beast_fmri_test/images/redT.png'></img>	go	2000.0	3.0	15.0	go	non-target	T	71,Index Finger	89,Middle Finger	900.0	750.0	1900.0	2000.0	1.0	n/a	750.0	1.0	ITI
291474	500	n/a	-1	-1	500	0.0	fixation	poldrack-single-stim	522	1366780	0.0-21.16-0.16	beast_fmri_test	386	1366344,/	t	<div class = centerbox2><div class = fixation>+</div></div>	none	500.0	test	n/a	n/a	n/a	n/a	n/a	n/a	n/a	n/a	n/a	n/a	n/a	n/a	n/a	n/a	n/a	n/a	n/a	n/a	fixation
291435.13703011	750.0	n/a	-1	-1	2750	41.86296989	stim	stop-signal	523	1369533	0.0-21.16-1.16	beast_fmri_test	386	1367024,/,1367704,/,1368385,/,1369064,/	t,t,t,t	<img class = center src='/static/experiments/beast_fmri_test/images/B.png'></img>	71,89	2750.0	test	<img class = center src='/static/experiments/beast_fmri_test/images/redB.png'></img>	stop	2000.0	3.0	16.0	stop	non-target	B	71,Index Finger	89,Middle Finger	900.0	750.0	1900.0	2000.0	0.0	1.0	750.0	n/a	go_stim
293435.13703011	2000.0	n/a	-1	-1	2750	41.86296989	stim	stop-signal	523	1369533	0.0-21.16-1.16	beast_fmri_test	386	1367024,/,1367704,/,1368385,/,1369064,/	t,t,t,t	<img class = center src='/static/experiments/beast_fmri_test/images/B.png'></img>	71,89	2750.0	test	<img class = center src='/static/experiments/beast_fmri_test/images/redB.png'></img>	stop	2000.0	3.0	16.0	stop	non-target	B	71,Index Finger	89,Middle Finger	900.0	750.0	1900.0	2000.0	0.0	1.0	750.0	n/a	stop_stim
294185.13703011	41.862969890000002	n/a	-1	-1	2750	41.86296989	stim	stop-signal	523	1369533	0.0-21.16-1.16	beast_fmri_test	386	1367024,/,1367704,/,1368385,/,1369064,/	t,t,t,t	<img class = center src='/static/experiments/beast_fmri_test/images/B.png'></img>	71,89	2750.0	test	<img class = center src='/static/experiments/beast_fmri_test/images/redB.png'></img>	stop	2000.0	3.0	16.0	stop	non-target	B	71,Index Finger	89,Middle Finger	900.0	750.0	1900.0	2000.0	0.0	1.0	750.0	n/a	ITI
294788	500	n/a	-1	-1	500	0.0	fixation	poldrack-single-stim	524	1370094	0.0-21.17-0.17	beast_fmri_test	386	1369744,/	t	<div class = centerbox2><div class = fixation>+</div></div>	none	500.0	test	n/a	n/a	n/a	n/a	n/a	n/a	n/a	n/a	n/a	n/a	n/a	n/a	n/a	n/a	n/a	n/a	n/a	n/a	fixation
293444.68500799988	2750	n/a	1403	71	2750	1345.314992	stim	stop-signal	525	1372846	0.0-21.17-1.17	beast_fmri_test	386	1370424,/,1371104,/,1371783,/,1372463,/,1373143,/,1373824,/	t,t,t,t,t,t	<img class = center src='/static/experiments/beast_fmri_test/images/B.png'></img>	71,89	2750.0	test	<img class = center src='/static/experiments/beast_fmri_test/images/redB.png'></img>	go	1850.0	3.0	17.0	go	target	B	71,Index Finger	89,Middle Finger	900.0	800.0	1850.0	2000.0	1.0	n/a	900.0	1.0	go_stim
296194.68500799988	1345.3149920000001	n/a	1403	71	2750	1345.314992	stim	stop-signal	525	1372846	0.0-21.17-1.17	beast_fmri_test	386	1370424,/,1371104,/,1371783,/,1372463,/,1373143,/,1373824,/	t,t,t,t,t,t	<img class = center src='/static/experiments/beast_fmri_test/images/B.png'></img>	71,89	2750.0	test	<img class = center src='/static/experiments/beast_fmri_test/images/redB.png'></img>	go	1850.0	3.0	17.0	go	target	B	71,Index Finger	89,Middle Finger	900.0	800.0	1850.0	2000.0	1.0	n/a	900.0	1.0	ITI
299401	500	n/a	-1	-1	500	0.0	fixation	poldrack-single-stim	526	1374707	0.0-21.18-0.18	beast_fmri_test	386	1374505,/	t	<div class = centerbox2><div class = fixation>+</div></div>	none	500.0	test	n/a	n/a	n/a	n/a	n/a	n/a	n/a	n/a	n/a	n/a	n/a	n/a	n/a	n/a	n/a	n/a	n/a	n/a	fixation
294403.0	800.0	n/a	-1	-1	2750	5000.0	stim	stop-signal	527	1377459	0.0-21.18-1.18	beast_fmri_test	386	1375185,/,1375865,/,1376545,/,1377225,/,1377904,/,1378585,/,1379264,/,1379944,/,1380624,/,1381304,/,1381984,/	t,t,t,t,t,t,t,t,t,t,t	<img class = center src='/static/experiments/beast_fmri_test/images/P.png'></img>	71,89	2750.0	test	<img class = center src='/static/experiments/beast_fmri_test/images/redP.png'></img>	stop	1950.0	3.0	18.0	stop	non-target	P	71,Index Finger	89,Middle Finger	900.0	800.0	1850.0	1950.0	0.0	1.0	800.0	n/a	go_stim
296353.0	1950.0	n/a	-1	-1	2750	5000.0	stim	stop-signal	527	1377459	0.0-21.18-1.18	beast_fmri_test	386	1375185,/,1375865,/,1376545,/,1377225,/,1377904,/,1378585,/,1379264,/,1379944,/,1380624,/,1381304,/,1381984,/	t,t,t,t,t,t,t,t,t,t,t	<img class = center src='/static/experiments/beast_fmri_test/images/P.png'></img>	71,89	2750.0	test	<img class = center src='/static/experiments/beast_fmri_test/images/redP.png'></img>	stop	1950.0	3.0	18.0	stop	non-target	P	71,Index Finger	89,Middle Finger	900.0	800.0	1850.0	1950.0	0.0	1.0	800.0	n/a	stop_stim
297153.0	5000.0	n/a	-1	-1	2750	5000.0	stim	stop-signal	527	1377459	0.0-21.18-1.18	beast_fmri_test	386	1375185,/,1375865,/,1376545,/,1377225,/,1377904,/,1378585,/,1379264,/,1379944,/,1380624,/,1381304,/,1381984,/	t,t,t,t,t,t,t,t,t,t,t	<img class = center src='/static/experiments/beast_fmri_test/images/P.png'></img>	71,89	2750.0	test	<img class = center src='/static/experiments/beast_fmri_test/images/redP.png'></img>	stop	1950.0	3.0	18.0	stop	non-target	P	71,Index Finger	89,Middle Finger	900.0	800.0	1850.0	1950.0	0.0	1.0	800.0	n/a	ITI
307669	500	n/a	-1	-1	500	0.0	fixation	poldrack-single-stim	528	1382975	0.0-21.19-0.19	beast_fmri_test	386	1382664,/	t	<div class = centerbox2><div class = fixation>+</div></div>	none	500.0	test	n/a	n/a	n/a	n/a	n/a	n/a	n/a	n/a	n/a	n/a	n/a	n/a	n/a	n/a	n/a	n/a	n/a	n/a	fixation
307335.27050639992	2750	n/a	870	71	2750	335.7294936	stim	stop-signal	529	1385727	0.0-21.19-1.19	beast_fmri_test	386	1383344,/,1384024,/,1384704,/,1385384,/	t,t,t,t	<img class = center src='/static/experiments/beast_fmri_test/images/B.png'></img>	71,89	2750.0	test	<img class = center src='/static/experiments/beast_fmri_test/images/redB.png'></img>	go	1850.0	3.0	19.0	go	target	B	71,Index Finger	89,Middle Finger	900.0	850.0	1850.0	1950.0	1.0	n/a	900.0	1.0	go_stim
310085.27050639992	335.72949360000001	n/a	870	71	2750	335.7294936	stim	stop-signal	529	1385727	0.0-21.19-1.19	beast_fmri_test	386	1383344,/,1384024,/,1384704,/,1385384,/	t,t,t,t	<img class = center src='/static/experiments/beast_fmri_test/images/B.png'></img>	71,89	2750.0	test	<img class = center src='/static/experiments/beast_fmri_test/images/redB.png'></img>	go	1850.0	3.0	19.0	go	target	B	71,Index Finger	89,Middle Finger	900.0	850.0	1850.0	1950.0	1.0	n/a	900.0	1.0	ITI
311274	500	n/a	-1	-1	500	0.0	fixation	poldrack-single-stim	530	1386580	0.0-21.20-0.20	beast_fmri_test	386	1386078,/	t	<div class = centerbox2><div class = fixation>+</div></div>	none	500.0	test	n/a	n/a	n/a	n/a	n/a	n/a	n/a	n/a	n/a	n/a	n/a	n/a	n/a	n/a	n/a	n/a	n/a	n/a	fixation
310977.19365289994	2750	n/a	1365	71	2750	298.8063471	stim	stop-signal	531	1389332	0.0-21.20-1.20	beast_fmri_test	386	1386744,/,1387424,/,1388104,/,1388785,/,1389464,/	t,t,t,t,t	<img class = center src='/static/experiments/beast_fmri_test/images/B.png'></img>	71,89	2750.0	test	<img class = center src='/static/experiments/beast_fmri_test/images/redB.png'></img>	go	1850.0	3.0	20.0	go	target	B	71,Index Finger	89,Middle Finger	900.0	850.0	1850.0	1950.0	1.0	n/a	900.0	1.0	go_stim
313727.19365289994	298.80634710000004	n/a	1365	71	2750	298.8063471	stim	stop-signal	531	1389332	0.0-21.20-1.20	beast_fmri_test	386	1386744,/,1387424,/,1388104,/,1388785,/,1389464,/	t,t,t,t,t	<img class = center src='/static/experiments/beast_fmri_test/images/B.png'></img>	71,89	2750.0	test	<img class = center src='/static/experiments/beast_fmri_test/images/redB.png'></img>	go	1850.0	3.0	20.0	go	target	B	71,Index Finger	89,Middle Finger	900.0	850.0	1850.0	1950.0	1.0	n/a	900.0	1.0	ITI
314841	500	n/a	-1	-1	500	0.0	fixation	poldrack-single-stim	532	1390147	0.0-21.21-0.21	beast_fmri_test	386	1390144,/	t	<div class = centerbox2><div class = fixation>+</div></div>	none	500.0	test	n/a	n/a	n/a	n/a	n/a	n/a	n/a	n/a	n/a	n/a	n/a	n/a	n/a	n/a	n/a	n/a	n/a	n/a	fixation
314255.23549510003	2750	n/a	974	89	2750	587.7645049	stim	stop-signal	533	1392899	0.0-21.21-1.21	beast_fmri_test	386	1390824,/,1391504,/,1392184,/,1392863,/	t,t,t,t	<img class = center src='/static/experiments/beast_fmri_test/images/T.png'></img>	71,89	2750.0	test	<img class = center src='/static/experiments/beast_fmri_test/images/redT.png'></img>	go	1900.0	3.0	21.0	go	non-target	T	71,Index Finger	89,Middle Finger	900.0	850.0	1850.0	1900.0	1.0	n/a	850.0	1.0	go_stim
317005.23549510003	587.76450490000002	n/a	974	89	2750	587.7645049	stim	stop-signal	533	1392899	0.0-21.21-1.21	beast_fmri_test	386	1390824,/,1391504,/,1392184,/,1392863,/	t,t,t,t	<img class = center src='/static/experiments/beast_fmri_test/images/T.png'></img>	71,89	2750.0	test	<img class = center src='/static/experiments/beast_fmri_test/images/redT.png'></img>	go	1900.0	3.0	21.0	go	non-target	T	71,Index Finger	89,Middle Finger	900.0	850.0	1850.0	1900.0	1.0	n/a	850.0	1.0	ITI
318698	500	n/a	-1	-1	500	0.0	fixation	poldrack-single-stim	534	1394004	0.0-21.22-0.22	beast_fmri_test	386	1393544,/	t	<div class = centerbox2><div class = fixation>+</div></div>	none	500.0	test	n/a	n/a	n/a	n/a	n/a	n/a	n/a	n/a	n/a	n/a	n/a	n/a	n/a	n/a	n/a	n/a	n/a	n/a	fixation
318439.82665769989	2750	n/a	1004	89	2750	260.1733423	stim	stop-signal	535	1396756	0.0-21.22-1.22	beast_fmri_test	386	1394224,/,1394904,/,1395584,/,1396263,/,1396944,/	t,t,t,t,t	<img class = center src='/static/experiments/beast_fmri_test/images/V.png'></img>	71,89	2750.0	test	<img class = center src='/static/experiments/beast_fmri_test/images/redV.png'></img>	go	1900.0	3.0	22.0	go	non-target	V	71,Index Finger	89,Middle Finger	900.0	850.0	1850.0	1900.0	1.0	n/a	850.0	1.0	go_stim
