onset	duration	text	rt	key_press	block_duration	timing_post_trial	trial_id	trial_type	trial_index	time_elapsed	internal_node_id	exp_id	subject_id	trigger_times	triggers	stimulus	possible_responses	stim_duration	exp_stage	SS_stimulus	SS_trial_type	SS_duration	load	trial_num	stop_trial_type	adaptive_trial_type	stim	yes_response_key	no_response_key	SSD_target	SSD_non_target	SSTarget	SSNonTarget	go_acc	stop_acc	SS_delay	adaptive_acc	new_trial_type
test	10880	n/a	-1	-1	10880	0.0	practice-no-stop-feedback	poldrack-single-stim	6	92091	0.0-6.0	beast_fmri_test	359	81214,/,81892,/,82572,/,83252,/,83931,/,84612,/,85292,/,85972,/,86651,/,87331,/,88012,/,88691,/,89370,/,90050,/,90728,/,91408,/	t,t,t,t,t,t,t,t,t,t,t,t,t,t,t,t	"<div class = ""centerbox""><p class = ""block-text"">Your delay is 2 trials.</p><p class = block-text>Please wait for the scanner to start the block</p></div>"	77	10880.0	n/a	n/a	n/a	n/a	n/a	n/a	n/a	n/a	n/a	n/a	n/a	n/a	n/a	n/a	n/a	n/a	n/a	n/a	n/a	start_functional_block
11381	500	n/a	-1	-1	500	0.0	fixation	poldrack-single-stim	7	92595	0.0-7.0-0.0	beast_fmri_test	359	92092,/	t	<div class = centerbox2><div class = fixation>+</div></div>	none	500.0	test	n/a	n/a	n/a	n/a	n/a	n/a	n/a	n/a	n/a	n/a	n/a	n/a	n/a	n/a	n/a	n/a	n/a	n/a	fixation
10580.948945901095	2750	n/a	1135	71	2750	805.051054099	stim	stop-signal	8	95350	0.0-7.0-1.0	beast_fmri_test	359	92768,/,93448,/,94128,/,94806,/,95486,/	t,t,t,t,t	<img class = center src='/static/experiments/beast_fmri_test/images/T.png'></img>	89,71	2750.0	test	<img class = center src='/static/experiments/beast_fmri_test/images/redT.png'></img>	go	-1.0	2.0	0.0	go	temp-non-target	T	89,Middle Finger	71,Index Finger	500.0	500.0	0.0	0.0	0.0	n/a	n/a	n/a	go_stim
13330.948945901095	805.05105409890177	n/a	1135	71	2750	805.051054099	stim	stop-signal	8	95350	0.0-7.0-1.0	beast_fmri_test	359	92768,/,93448,/,94128,/,94806,/,95486,/	t,t,t,t,t	<img class = center src='/static/experiments/beast_fmri_test/images/T.png'></img>	89,71	2750.0	test	<img class = center src='/static/experiments/beast_fmri_test/images/redT.png'></img>	go	-1.0	2.0	0.0	go	temp-non-target	T	89,Middle Finger	71,Index Finger	500.0	500.0	0.0	0.0	0.0	n/a	n/a	n/a	ITI
15452	500	n/a	-1	-1	500	0.0	fixation	poldrack-single-stim	9	96666	0.0-7.1-0.1	beast_fmri_test	359	96166,/	t	<div class = centerbox2><div class = fixation>+</div></div>	none	500.0	test	n/a	n/a	n/a	n/a	n/a	n/a	n/a	n/a	n/a	n/a	n/a	n/a	n/a	n/a	n/a	n/a	n/a	n/a	fixation
15404.752795196007	temp_go_duration	n/a	954	71	2750	50.247204804	stim	stop-signal	10	99419	0.0-7.1-1.1	beast_fmri_test	359	96845,/,97526,/,98205,/,98886,/	t,t,t,t	<img class = center src='/static/experiments/beast_fmri_test/images/V.png'></img>	89,71	2750.0	test	<img class = center src='/static/experiments/beast_fmri_test/images/redV.png'></img>	stop	-1.0	2.0	1.0	stop	temp-non-target	V	89,Middle Finger	71,Index Finger	500.0	500.0	0.0	0.0	0.0	0.0	n/a	n/a	go_stim
temp-non-target	temp_stop_duration	n/a	954	71	2750	50.247204804	stim	stop-signal	10	99419	0.0-7.1-1.1	beast_fmri_test	359	96845,/,97526,/,98205,/,98886,/	t,t,t,t	<img class = center src='/static/experiments/beast_fmri_test/images/V.png'></img>	89,71	2750.0	test	<img class = center src='/static/experiments/beast_fmri_test/images/redV.png'></img>	stop	-1.0	2.0	1.0	stop	temp-non-target	V	89,Middle Finger	71,Index Finger	500.0	500.0	0.0	0.0	0.0	0.0	n/a	n/a	stop_stim
18154.752795196007	50.247204803990478	n/a	954	71	2750	50.247204804	stim	stop-signal	10	99419	0.0-7.1-1.1	beast_fmri_test	359	96845,/,97526,/,98205,/,98886,/	t,t,t,t	<img class = center src='/static/experiments/beast_fmri_test/images/V.png'></img>	89,71	2750.0	test	<img class = center src='/static/experiments/beast_fmri_test/images/redV.png'></img>	stop	-1.0	2.0	1.0	stop	temp-non-target	V	89,Middle Finger	71,Index Finger	500.0	500.0	0.0	0.0	0.0	0.0	n/a	n/a	ITI
18763	500	n/a	-1	-1	500	0.0	fixation	poldrack-single-stim	11	99977	0.0-7.2-0.2	beast_fmri_test	359	99564,/	t	<div class = centerbox2><div class = fixation>+</div></div>	none	500.0	test	n/a	n/a	n/a	n/a	n/a	n/a	n/a	n/a	n/a	n/a	n/a	n/a	n/a	n/a	n/a	n/a	n/a	n/a	fixation
17913.314620271864	2750	n/a	945	89	2750	852.685379728	stim	stop-signal	12	102730	0.0-7.2-1.2	beast_fmri_test	359	100245,/,100926,/,101605,/,102283,/,102963,/	t,t,t,t,t	<img class = center src='/static/experiments/beast_fmri_test/images/T.png'></img>	89,71	2750.0	test	<img class = center src='/static/experiments/beast_fmri_test/images/redT.png'></img>	go	2250.0	2.0	2.0	go	target	T	89,Middle Finger	71,Index Finger	500.0	500.0	2250.0	0.0	1.0	n/a	500.0	1.0	go_stim
20663.314620271864	852.68537972813124	n/a	945	89	2750	852.685379728	stim	stop-signal	12	102730	0.0-7.2-1.2	beast_fmri_test	359	100245,/,100926,/,101605,/,102283,/,102963,/	t,t,t,t,t	<img class = center src='/static/experiments/beast_fmri_test/images/T.png'></img>	89,71	2750.0	test	<img class = center src='/static/experiments/beast_fmri_test/images/redT.png'></img>	go	2250.0	2.0	2.0	go	target	T	89,Middle Finger	71,Index Finger	500.0	500.0	2250.0	0.0	1.0	n/a	500.0	1.0	ITI
22875	500	n/a	-1	-1	500	0.0	fixation	poldrack-single-stim	13	104089	0.0-7.3-0.3	beast_fmri_test	359	103644,/	t	<div class = centerbox2><div class = fixation>+</div></div>	none	500.0	test	n/a	n/a	n/a	n/a	n/a	n/a	n/a	n/a	n/a	n/a	n/a	n/a	n/a	n/a	n/a	n/a	n/a	n/a	fixation
22407.872636339496	2750	n/a	1388	89	2750	468.127363661	stim	stop-signal	14	106840	0.0-7.3-1.3	beast_fmri_test	359	104323,/,105001,/,105681,/,106362,/,107041,/	t,t,t,t,t	<img class = center src='/static/experiments/beast_fmri_test/images/V.png'></img>	89,71	2750.0	test	<img class = center src='/static/experiments/beast_fmri_test/images/redV.png'></img>	go	2250.0	2.0	3.0	go	target	V	89,Middle Finger	71,Index Finger	500.0	500.0	2250.0	0.0	1.0	n/a	500.0	1.0	go_stim
25157.872636339496	468.12736366051087	n/a	1388	89	2750	468.127363661	stim	stop-signal	14	106840	0.0-7.3-1.3	beast_fmri_test	359	104323,/,105001,/,105681,/,106362,/,107041,/	t,t,t,t,t	<img class = center src='/static/experiments/beast_fmri_test/images/V.png'></img>	89,71	2750.0	test	<img class = center src='/static/experiments/beast_fmri_test/images/redV.png'></img>	go	2250.0	2.0	3.0	go	target	V	89,Middle Finger	71,Index Finger	500.0	500.0	2250.0	0.0	1.0	n/a	500.0	1.0	ITI
26608	500	n/a	-1	-1	500	0.0	fixation	poldrack-single-stim	15	107822	0.0-7.4-0.4	beast_fmri_test	359	107722,/	t	<div class = centerbox2><div class = fixation>+</div></div>	none	500.0	test	n/a	n/a	n/a	n/a	n/a	n/a	n/a	n/a	n/a	n/a	n/a	n/a	n/a	n/a	n/a	n/a	n/a	n/a	fixation
26444.12167115006	500.0	n/a	-1	-1	2750	167.87832885	stim	stop-signal	16	110576	0.0-7.4-1.4	beast_fmri_test	359	108402,/,109081,/,109759,/,110439,/	t,t,t,t	<img class = center src='/static/experiments/beast_fmri_test/images/B.png'></img>	89,71	2750.0	test	<img class = center src='/static/experiments/beast_fmri_test/images/redB.png'></img>	stop	2250.0	2.0	4.0	stop	non-target	B	89,Middle Finger	71,Index Finger	500.0	500.0	2250.0	2250.0	0.0	1.0	500.0	n/a	go_stim
28694.12167115006	2250.0	n/a	-1	-1	2750	167.87832885	stim	stop-signal	16	110576	0.0-7.4-1.4	beast_fmri_test	359	108402,/,109081,/,109759,/,110439,/	t,t,t,t	<img class = center src='/static/experiments/beast_fmri_test/images/B.png'></img>	89,71	2750.0	test	<img class = center src='/static/experiments/beast_fmri_test/images/redB.png'></img>	stop	2250.0	2.0	4.0	stop	non-target	B	89,Middle Finger	71,Index Finger	500.0	500.0	2250.0	2250.0	0.0	1.0	500.0	n/a	stop_stim
29194.12167115006	167.87832884994668	n/a	-1	-1	2750	167.87832885	stim	stop-signal	16	110576	0.0-7.4-1.4	beast_fmri_test	359	108402,/,109081,/,109759,/,110439,/	t,t,t,t	<img class = center src='/static/experiments/beast_fmri_test/images/B.png'></img>	89,71	2750.0	test	<img class = center src='/static/experiments/beast_fmri_test/images/redB.png'></img>	stop	2250.0	2.0	4.0	stop	non-target	B	89,Middle Finger	71,Index Finger	500.0	500.0	2250.0	2250.0	0.0	1.0	500.0	n/a	ITI
30036	500	n/a	-1	-1	500	0.0	fixation	poldrack-single-stim	17	111250	0.0-7.5-0.5	beast_fmri_test	359	111119,/	t	<div class = centerbox2><div class = fixation>+</div></div>	none	500.0	test	n/a	n/a	n/a	n/a	n/a	n/a	n/a	n/a	n/a	n/a	n/a	n/a	n/a	n/a	n/a	n/a	n/a	n/a	fixation
29465.077081786367	2750	n/a	1757	71	2750	572.922918214	stim	stop-signal	18	114002	0.0-7.5-1.5	beast_fmri_test	359	111799,/,112479,/,113158,/,113838,/,114519,/	t,t,t,t,t	<img class = center src='/static/experiments/beast_fmri_test/images/V.png'></img>	89,71	2750.0	test	<img class = center src='/static/experiments/beast_fmri_test/images/redV.png'></img>	go	2250.0	2.0	5.0	go	target	V	89,Middle Finger	71,Index Finger	500.0	550.0	2250.0	2250.0	0.0	n/a	500.0	0.0	go_stim
32215.077081786367	572.92291821363449	n/a	1757	71	2750	572.922918214	stim	stop-signal	18	114002	0.0-7.5-1.5	beast_fmri_test	359	111799,/,112479,/,113158,/,113838,/,114519,/	t,t,t,t,t	<img class = center src='/static/experiments/beast_fmri_test/images/V.png'></img>	89,71	2750.0	test	<img class = center src='/static/experiments/beast_fmri_test/images/redV.png'></img>	go	2250.0	2.0	5.0	go	target	V	89,Middle Finger	71,Index Finger	500.0	550.0	2250.0	2250.0	0.0	n/a	500.0	0.0	ITI
33867	500	n/a	-1	-1	500	0.0	fixation	poldrack-single-stim	19	115081	0.0-7.6-0.6	beast_fmri_test	359	n/a	n/a	<div class = centerbox2><div class = fixation>+</div></div>	none	500.0	test	n/a	n/a	n/a	n/a	n/a	n/a	n/a	n/a	n/a	n/a	n/a	n/a	n/a	n/a	n/a	n/a	n/a	n/a	fixation
33727.46750335276	2750	n/a	1812	89	2750	141.532496647	stim	stop-signal	20	117833	0.0-7.6-1.6	beast_fmri_test	359	115199,/,115878,/,116558,/,117238,/,117916,/	t,t,t,t,t	<img class = center src='/static/experiments/beast_fmri_test/images/B.png'></img>	89,71	2750.0	test	<img class = center src='/static/experiments/beast_fmri_test/images/redB.png'></img>	go	2250.0	2.0	6.0	go	target	B	89,Middle Finger	71,Index Finger	500.0	550.0	2250.0	2250.0	1.0	n/a	500.0	1.0	go_stim
36477.46750335276	141.5324966472449	n/a	1812	89	2750	141.532496647	stim	stop-signal	20	117833	0.0-7.6-1.6	beast_fmri_test	359	115199,/,115878,/,116558,/,117238,/,117916,/	t,t,t,t,t	<img class = center src='/static/experiments/beast_fmri_test/images/B.png'></img>	89,71	2750.0	test	<img class = center src='/static/experiments/beast_fmri_test/images/redB.png'></img>	go	2250.0	2.0	6.0	go	target	B	89,Middle Finger	71,Index Finger	500.0	550.0	2250.0	2250.0	1.0	n/a	500.0	1.0	ITI
37270	500	n/a	-1	-1	500	0.0	fixation	poldrack-single-stim	21	118484	0.0-7.7-0.7	beast_fmri_test	359	n/a	n/a	<div class = centerbox2><div class = fixation>+</div></div>	none	500.0	test	n/a	n/a	n/a	n/a	n/a	n/a	n/a	n/a	n/a	n/a	n/a	n/a	n/a	n/a	n/a	n/a	n/a	n/a	fixation
37029.86079243006	550.0	n/a	-1	-1	2750	242.13920757	stim	stop-signal	22	121236	0.0-7.7-1.7	beast_fmri_test	359	118596,/,119276,/,119955,/,120636,/,121316,/	t,t,t,t,t	<img class = center src='/static/experiments/beast_fmri_test/images/D.png'></img>	89,71	2750.0	test	<img class = center src='/static/experiments/beast_fmri_test/images/redD.png'></img>	stop	2200.0	2.0	7.0	stop	non-target	D	89,Middle Finger	71,Index Finger	500.0	550.0	2250.0	2200.0	0.0	1.0	550.0	n/a	go_stim
39229.86079243006	2200.0	n/a	-1	-1	2750	242.13920757	stim	stop-signal	22	121236	0.0-7.7-1.7	beast_fmri_test	359	118596,/,119276,/,119955,/,120636,/,121316,/	t,t,t,t,t	<img class = center src='/static/experiments/beast_fmri_test/images/D.png'></img>	89,71	2750.0	test	<img class = center src='/static/experiments/beast_fmri_test/images/redD.png'></img>	stop	2200.0	2.0	7.0	stop	non-target	D	89,Middle Finger	71,Index Finger	500.0	550.0	2250.0	2200.0	0.0	1.0	550.0	n/a	stop_stim
39779.86079243006	242.1392075699398	n/a	-1	-1	2750	242.13920757	stim	stop-signal	22	121236	0.0-7.7-1.7	beast_fmri_test	359	118596,/,119276,/,119955,/,120636,/,121316,/	t,t,t,t,t	<img class = center src='/static/experiments/beast_fmri_test/images/D.png'></img>	89,71	2750.0	test	<img class = center src='/static/experiments/beast_fmri_test/images/redD.png'></img>	stop	2200.0	2.0	7.0	stop	non-target	D	89,Middle Finger	71,Index Finger	500.0	550.0	2250.0	2200.0	0.0	1.0	550.0	n/a	ITI
40772	500	n/a	-1	-1	500	0.0	fixation	poldrack-single-stim	23	121986	0.0-7.8-0.8	beast_fmri_test	359	n/a	n/a	<div class = centerbox2><div class = fixation>+</div></div>	none	500.0	test	n/a	n/a	n/a	n/a	n/a	n/a	n/a	n/a	n/a	n/a	n/a	n/a	n/a	n/a	n/a	n/a	n/a	n/a	fixation
39974.393051328414	2750	n/a	1271	71	2750	798.606948672	stim	stop-signal	24	124737	0.0-7.8-1.8	beast_fmri_test	359	121995,/,122675,/,123354,/,124034,/,124712,/,125394,/	t,t,t,t,t,t	<img class = center src='/static/experiments/beast_fmri_test/images/P.png'></img>	89,71	2750.0	test	<img class = center src='/static/experiments/beast_fmri_test/images/redP.png'></img>	go	2150.0	2.0	8.0	go	non-target	P	89,Middle Finger	71,Index Finger	500.0	600.0	2250.0	2150.0	1.0	n/a	600.0	1.0	go_stim
42724.393051328414	798.60694867158054	n/a	1271	71	2750	798.606948672	stim	stop-signal	24	124737	0.0-7.8-1.8	beast_fmri_test	359	121995,/,122675,/,123354,/,124034,/,124712,/,125394,/	t,t,t,t,t,t	<img class = center src='/static/experiments/beast_fmri_test/images/P.png'></img>	89,71	2750.0	test	<img class = center src='/static/experiments/beast_fmri_test/images/redP.png'></img>	go	2150.0	2.0	8.0	go	non-target	P	89,Middle Finger	71,Index Finger	500.0	600.0	2250.0	2150.0	1.0	n/a	600.0	1.0	ITI
44832	500	n/a	-1	-1	500	0.0	fixation	poldrack-single-stim	25	126046	0.0-7.9-0.9	beast_fmri_test	359	n/a	n/a	<div class = centerbox2><div class = fixation>+</div></div>	none	500.0	test	n/a	n/a	n/a	n/a	n/a	n/a	n/a	n/a	n/a	n/a	n/a	n/a	n/a	n/a	n/a	n/a	n/a	n/a	fixation
44624.632161415197	2750	n/a	1319	89	2750	207.367838585	stim	stop-signal	26	128796	0.0-7.9-1.9	beast_fmri_test	359	126072,/,126752,/,127432,/,128111,/,128791,/	t,t,t,t,t	<img class = center src='/static/experiments/beast_fmri_test/images/D.png'></img>	89,71	2750.0	test	<img class = center src='/static/experiments/beast_fmri_test/images/redD.png'></img>	go	2250.0	2.0	9.0	go	target	D	89,Middle Finger	71,Index Finger	500.0	600.0	2250.0	2150.0	1.0	n/a	500.0	1.0	go_stim
47374.632161415197	207.36783858480945	n/a	1319	89	2750	207.367838585	stim	stop-signal	26	128796	0.0-7.9-1.9	beast_fmri_test	359	126072,/,126752,/,127432,/,128111,/,128791,/	t,t,t,t,t	<img class = center src='/static/experiments/beast_fmri_test/images/D.png'></img>	89,71	2750.0	test	<img class = center src='/static/experiments/beast_fmri_test/images/redD.png'></img>	go	2250.0	2.0	9.0	go	target	D	89,Middle Finger	71,Index Finger	500.0	600.0	2250.0	2150.0	1.0	n/a	500.0	1.0	ITI
48299	500	n/a	-1	-1	500	0.0	fixation	poldrack-single-stim	27	129513	0.0-7.10-0.10	beast_fmri_test	359	129471,/	t	<div class = centerbox2><div class = fixation>+</div></div>	none	500.0	test	n/a	n/a	n/a	n/a	n/a	n/a	n/a	n/a	n/a	n/a	n/a	n/a	n/a	n/a	n/a	n/a	n/a	n/a	fixation
48285.56386695648	2750	n/a	1405	71	2750	13.4361330435	stim	stop-signal	28	132263	0.0-7.10-1.10	beast_fmri_test	359	130151,/,130830,/,131509,/,132190,/	t,t,t,t	<img class = center src='/static/experiments/beast_fmri_test/images/V.png'></img>	89,71	2750.0	test	<img class = center src='/static/experiments/beast_fmri_test/images/redV.png'></img>	go	2150.0	2.0	10.0	go	non-target	V	89,Middle Finger	71,Index Finger	500.0	600.0	2250.0	2150.0	1.0	n/a	600.0	1.0	go_stim
51035.56386695648	13.43613304352113	n/a	1405	71	2750	13.4361330435	stim	stop-signal	28	132263	0.0-7.10-1.10	beast_fmri_test	359	130151,/,130830,/,131509,/,132190,/	t,t,t,t	<img class = center src='/static/experiments/beast_fmri_test/images/V.png'></img>	89,71	2750.0	test	<img class = center src='/static/experiments/beast_fmri_test/images/redV.png'></img>	go	2150.0	2.0	10.0	go	non-target	V	89,Middle Finger	71,Index Finger	500.0	600.0	2250.0	2150.0	1.0	n/a	600.0	1.0	ITI
51569	500	n/a	-1	-1	500	0.0	fixation	poldrack-single-stim	29	132783	0.0-7.11-0.11	beast_fmri_test	359	n/a	n/a	<div class = centerbox2><div class = fixation>+</div></div>	none	500.0	test	n/a	n/a	n/a	n/a	n/a	n/a	n/a	n/a	n/a	n/a	n/a	n/a	n/a	n/a	n/a	n/a	n/a	n/a	fixation
51473.299880981387	2750	n/a	1741	71	2750	96.7001190186	stim	stop-signal	30	135534	0.0-7.11-1.11	beast_fmri_test	359	132868,/,133549,/,134230,/,134909,/,135589,/	t,t,t,t,t	<img class = center src='/static/experiments/beast_fmri_test/images/V.png'></img>	89,71	2750.0	test	<img class = center src='/static/experiments/beast_fmri_test/images/redV.png'></img>	go	2150.0	2.0	11.0	go	non-target	V	89,Middle Finger	71,Index Finger	500.0	600.0	2250.0	2150.0	1.0	n/a	600.0	1.0	go_stim
54223.299880981387	96.700119018602905	n/a	1741	71	2750	96.7001190186	stim	stop-signal	30	135534	0.0-7.11-1.11	beast_fmri_test	359	132868,/,133549,/,134230,/,134909,/,135589,/	t,t,t,t,t	<img class = center src='/static/experiments/beast_fmri_test/images/V.png'></img>	89,71	2750.0	test	<img class = center src='/static/experiments/beast_fmri_test/images/redV.png'></img>	go	2150.0	2.0	11.0	go	non-target	V	89,Middle Finger	71,Index Finger	500.0	600.0	2250.0	2150.0	1.0	n/a	600.0	1.0	ITI
54925	500	n/a	-1	-1	500	0.0	fixation	poldrack-single-stim	31	136139	0.0-7.12-0.12	beast_fmri_test	359	n/a	n/a	<div class = centerbox2><div class = fixation>+</div></div>	none	500.0	test	n/a	n/a	n/a	n/a	n/a	n/a	n/a	n/a	n/a	n/a	n/a	n/a	n/a	n/a	n/a	n/a	n/a	n/a	fixation
52856.25874092005	500.0	n/a	-1	-1	2750	2069.74125908	stim	stop-signal	32	138890	0.0-7.12-1.12	beast_fmri_test	359	136268,/,136948,/,137627,/,138306,/,138985,/,139666,/,140346,/	t,t,t,t,t,t,t	<img class = center src='/static/experiments/beast_fmri_test/images/V.png'></img>	89,71	2750.0	test	<img class = center src='/static/experiments/beast_fmri_test/images/redV.png'></img>	stop	2250.0	2.0	12.0	stop	target	V	89,Middle Finger	71,Index Finger	500.0	600.0	2250.0	2150.0	0.0	1.0	500.0	n/a	go_stim
55106.25874092005	2250.0	n/a	-1	-1	2750	2069.74125908	stim	stop-signal	32	138890	0.0-7.12-1.12	beast_fmri_test	359	136268,/,136948,/,137627,/,138306,/,138985,/,139666,/,140346,/	t,t,t,t,t,t,t	<img class = center src='/static/experiments/beast_fmri_test/images/V.png'></img>	89,71	2750.0	test	<img class = center src='/static/experiments/beast_fmri_test/images/redV.png'></img>	stop	2250.0	2.0	12.0	stop	target	V	89,Middle Finger	71,Index Finger	500.0	600.0	2250.0	2150.0	0.0	1.0	500.0	n/a	stop_stim
55606.25874092005	2069.7412590799422	n/a	-1	-1	2750	2069.74125908	stim	stop-signal	32	138890	0.0-7.12-1.12	beast_fmri_test	359	136268,/,136948,/,137627,/,138306,/,138985,/,139666,/,140346,/	t,t,t,t,t,t,t	<img class = center src='/static/experiments/beast_fmri_test/images/V.png'></img>	89,71	2750.0	test	<img class = center src='/static/experiments/beast_fmri_test/images/redV.png'></img>	stop	2250.0	2.0	12.0	stop	target	V	89,Middle Finger	71,Index Finger	500.0	600.0	2250.0	2150.0	0.0	1.0	500.0	n/a	ITI
60252	500	n/a	-1	-1	500	0.0	fixation	poldrack-single-stim	33	141466	0.0-7.13-0.13	beast_fmri_test	359	141026,/	t	<div class = centerbox2><div class = fixation>+</div></div>	none	500.0	test	n/a	n/a	n/a	n/a	n/a	n/a	n/a	n/a	n/a	n/a	n/a	n/a	n/a	n/a	n/a	n/a	n/a	n/a	fixation
59677.628790265386	2750	n/a	1368	71	2750	575.371209735	stim	stop-signal	34	144217	0.0-7.13-1.13	beast_fmri_test	359	141704,/,142385,/,143064,/,143745,/,144424,/	t,t,t,t,t	<img class = center src='/static/experiments/beast_fmri_test/images/D.png'></img>	89,71	2750.0	test	<img class = center src='/static/experiments/beast_fmri_test/images/redD.png'></img>	go	2150.0	2.0	13.0	go	non-target	D	89,Middle Finger	71,Index Finger	550.0	600.0	2250.0	2150.0	1.0	n/a	600.0	1.0	go_stim
62427.628790265386	575.37120973460821	n/a	1368	71	2750	575.371209735	stim	stop-signal	34	144217	0.0-7.13-1.13	beast_fmri_test	359	141704,/,142385,/,143064,/,143745,/,144424,/	t,t,t,t,t	<img class = center src='/static/experiments/beast_fmri_test/images/D.png'></img>	89,71	2750.0	test	<img class = center src='/static/experiments/beast_fmri_test/images/redD.png'></img>	go	2150.0	2.0	13.0	go	non-target	D	89,Middle Finger	71,Index Finger	550.0	600.0	2250.0	2150.0	1.0	n/a	600.0	1.0	ITI
64086	500	n/a	-1	-1	500	0.0	fixation	poldrack-single-stim	35	145300	0.0-7.14-0.14	beast_fmri_test	359	145104,/	t	<div class = centerbox2><div class = fixation>+</div></div>	none	500.0	test	n/a	n/a	n/a	n/a	n/a	n/a	n/a	n/a	n/a	n/a	n/a	n/a	n/a	n/a	n/a	n/a	n/a	n/a	fixation
63867.097063781956	2750	n/a	1098	89	2750	220.902936218	stim	stop-signal	36	148052	0.0-7.14-1.14	beast_fmri_test	359	145784,/,146463,/,147142,/,147822,/	t,t,t,t	<img class = center src='/static/experiments/beast_fmri_test/images/V.png'></img>	89,71	2750.0	test	<img class = center src='/static/experiments/beast_fmri_test/images/redV.png'></img>	go	2200.0	2.0	14.0	go	target	V	89,Middle Finger	71,Index Finger	550.0	600.0	2200.0	2150.0	1.0	n/a	550.0	1.0	go_stim
66617.097063781956	220.90293621805046	n/a	1098	89	2750	220.902936218	stim	stop-signal	36	148052	0.0-7.14-1.14	beast_fmri_test	359	145784,/,146463,/,147142,/,147822,/	t,t,t,t	<img class = center src='/static/experiments/beast_fmri_test/images/V.png'></img>	89,71	2750.0	test	<img class = center src='/static/experiments/beast_fmri_test/images/redV.png'></img>	go	2200.0	2.0	14.0	go	target	V	89,Middle Finger	71,Index Finger	550.0	600.0	2200.0	2150.0	1.0	n/a	550.0	1.0	ITI
67569	500	n/a	-1	-1	500	0.0	fixation	poldrack-single-stim	37	148783	0.0-7.15-0.15	beast_fmri_test	359	148502,/	t	<div class = centerbox2><div class = fixation>+</div></div>	none	500.0	test	n/a	n/a	n/a	n/a	n/a	n/a	n/a	n/a	n/a	n/a	n/a	n/a	n/a	n/a	n/a	n/a	n/a	n/a	fixation
65474.686482869554	2750	n/a	1683	71	2750	2096.31351713	stim	stop-signal	38	151535	0.0-7.15-1.15	beast_fmri_test	359	149183,/,149862,/,150542,/,151221,/,151901,/,152580,/,153261,/	t,t,t,t,t,t,t	<img class = center src='/static/experiments/beast_fmri_test/images/V.png'></img>	89,71	2750.0	test	<img class = center src='/static/experiments/beast_fmri_test/images/redV.png'></img>	go	2150.0	2.0	15.0	go	non-target	V	89,Middle Finger	71,Index Finger	550.0	600.0	2200.0	2150.0	1.0	n/a	600.0	1.0	go_stim
68224.686482869554	2096.3135171304334	n/a	1683	71	2750	2096.31351713	stim	stop-signal	38	151535	0.0-7.15-1.15	beast_fmri_test	359	149183,/,149862,/,150542,/,151221,/,151901,/,152580,/,153261,/	t,t,t,t,t,t,t	<img class = center src='/static/experiments/beast_fmri_test/images/V.png'></img>	89,71	2750.0	test	<img class = center src='/static/experiments/beast_fmri_test/images/redV.png'></img>	go	2150.0	2.0	15.0	go	non-target	V	89,Middle Finger	71,Index Finger	550.0	600.0	2200.0	2150.0	1.0	n/a	600.0	1.0	ITI
72926	500	n/a	-1	-1	500	0.0	fixation	poldrack-single-stim	39	154140	0.0-7.16-0.16	beast_fmri_test	359	153941,/	t	<div class = centerbox2><div class = fixation>+</div></div>	none	500.0	test	n/a	n/a	n/a	n/a	n/a	n/a	n/a	n/a	n/a	n/a	n/a	n/a	n/a	n/a	n/a	n/a	n/a	n/a	fixation
72816.490646936174	2750	n/a	1298	89	2750	112.509353064	stim	stop-signal	40	156893	0.0-7.16-1.16	beast_fmri_test	359	154620,/,155299,/,155978,/,156658,/	t,t,t,t	<img class = center src='/static/experiments/beast_fmri_test/images/V.png'></img>	89,71	2750.0	test	<img class = center src='/static/experiments/beast_fmri_test/images/redV.png'></img>	go	2200.0	2.0	16.0	go	target	V	89,Middle Finger	71,Index Finger	550.0	600.0	2200.0	2150.0	1.0	n/a	550.0	1.0	go_stim
75566.490646936174	112.50935306382921	n/a	1298	89	2750	112.509353064	stim	stop-signal	40	156893	0.0-7.16-1.16	beast_fmri_test	359	154620,/,155299,/,155978,/,156658,/	t,t,t,t	<img class = center src='/static/experiments/beast_fmri_test/images/V.png'></img>	89,71	2750.0	test	<img class = center src='/static/experiments/beast_fmri_test/images/redV.png'></img>	go	2200.0	2.0	16.0	go	target	V	89,Middle Finger	71,Index Finger	550.0	600.0	2200.0	2150.0	1.0	n/a	550.0	1.0	ITI
76300	500	n/a	-1	-1	500	0.0	fixation	poldrack-single-stim	41	157514	0.0-7.17-0.17	beast_fmri_test	359	157339,/	t	<div class = centerbox2><div class = fixation>+</div></div>	none	500.0	test	n/a	n/a	n/a	n/a	n/a	n/a	n/a	n/a	n/a	n/a	n/a	n/a	n/a	n/a	n/a	n/a	n/a	n/a	fixation
75321.328825879318	550.0	n/a	-1	-1	2750	980.671174121	stim	stop-signal	42	160266	0.0-7.17-1.17	beast_fmri_test	359	158018,/,158698,/,159377,/,160058,/,160736,/	t,t,t,t,t	<img class = center src='/static/experiments/beast_fmri_test/images/V.png'></img>	89,71	2750.0	test	<img class = center src='/static/experiments/beast_fmri_test/images/redV.png'></img>	stop	2200.0	2.0	17.0	stop	target	V	89,Middle Finger	71,Index Finger	550.0	600.0	2200.0	2150.0	0.0	1.0	550.0	n/a	go_stim
77521.328825879318	2200.0	n/a	-1	-1	2750	980.671174121	stim	stop-signal	42	160266	0.0-7.17-1.17	beast_fmri_test	359	158018,/,158698,/,159377,/,160058,/,160736,/	t,t,t,t,t	<img class = center src='/static/experiments/beast_fmri_test/images/V.png'></img>	89,71	2750.0	test	<img class = center src='/static/experiments/beast_fmri_test/images/redV.png'></img>	stop	2200.0	2.0	17.0	stop	target	V	89,Middle Finger	71,Index Finger	550.0	600.0	2200.0	2150.0	0.0	1.0	550.0	n/a	stop_stim
78071.328825879318	980.67117412069319	n/a	-1	-1	2750	980.671174121	stim	stop-signal	42	160266	0.0-7.17-1.17	beast_fmri_test	359	158018,/,158698,/,159377,/,160058,/,160736,/	t,t,t,t,t	<img class = center src='/static/experiments/beast_fmri_test/images/V.png'></img>	89,71	2750.0	test	<img class = center src='/static/experiments/beast_fmri_test/images/redV.png'></img>	stop	2200.0	2.0	17.0	stop	target	V	89,Middle Finger	71,Index Finger	550.0	600.0	2200.0	2150.0	0.0	1.0	550.0	n/a	ITI
80541	500	n/a	-1	-1	500	0.0	fixation	poldrack-single-stim	43	161755	0.0-7.18-0.18	beast_fmri_test	359	161417,/	t	<div class = centerbox2><div class = fixation>+</div></div>	none	500.0	test	n/a	n/a	n/a	n/a	n/a	n/a	n/a	n/a	n/a	n/a	n/a	n/a	n/a	n/a	n/a	n/a	n/a	n/a	fixation
76587.421953665296	2750	n/a	1089	71	2750	3954.57804633	stim	stop-signal	44	164506	0.0-7.18-1.18	beast_fmri_test	359	162095,/,162776,/,163455,/,164135,/,164815,/,165493,/,166174,/,166853,/,167534,/,168213,/	t,t,t,t,t,t,t,t,t,t	<img class = center src='/static/experiments/beast_fmri_test/images/P.png'></img>	89,71	2750.0	test	<img class = center src='/static/experiments/beast_fmri_test/images/redP.png'></img>	go	2150.0	2.0	18.0	go	non-target	P	89,Middle Finger	71,Index Finger	600.0	600.0	2200.0	2150.0	1.0	n/a	600.0	1.0	go_stim
79337.421953665296	3954.5780463346973	n/a	1089	71	2750	3954.57804633	stim	stop-signal	44	164506	0.0-7.18-1.18	beast_fmri_test	359	162095,/,162776,/,163455,/,164135,/,164815,/,165493,/,166174,/,166853,/,167534,/,168213,/	t,t,t,t,t,t,t,t,t,t	<img class = center src='/static/experiments/beast_fmri_test/images/P.png'></img>	89,71	2750.0	test	<img class = center src='/static/experiments/beast_fmri_test/images/redP.png'></img>	go	2150.0	2.0	18.0	go	non-target	P	89,Middle Finger	71,Index Finger	600.0	600.0	2200.0	2150.0	1.0	n/a	600.0	1.0	ITI
87754	500	n/a	-1	-1	500	0.0	fixation	poldrack-single-stim	45	168968	0.0-7.19-0.19	beast_fmri_test	359	168893,/	t	<div class = centerbox2><div class = fixation>+</div></div>	none	500.0	test	n/a	n/a	n/a	n/a	n/a	n/a	n/a	n/a	n/a	n/a	n/a	n/a	n/a	n/a	n/a	n/a	n/a	n/a	fixation
86702.778594796313	600.0	n/a	-1	-1	2750	1053.2214052	stim	stop-signal	46	171720	0.0-7.19-1.19	beast_fmri_test	359	169572,/,170251,/,170932,/,171611,/,172292,/	t,t,t,t,t	<img class = center src='/static/experiments/beast_fmri_test/images/D.png'></img>	89,71	2750.0	test	<img class = center src='/static/experiments/beast_fmri_test/images/redD.png'></img>	stop	2150.0	2.0	19.0	stop	non-target	D	89,Middle Finger	71,Index Finger	600.0	600.0	2200.0	2150.0	0.0	1.0	600.0	n/a	go_stim
88852.778594796313	2150.0	n/a	-1	-1	2750	1053.2214052	stim	stop-signal	46	171720	0.0-7.19-1.19	beast_fmri_test	359	169572,/,170251,/,170932,/,171611,/,172292,/	t,t,t,t,t	<img class = center src='/static/experiments/beast_fmri_test/images/D.png'></img>	89,71	2750.0	test	<img class = center src='/static/experiments/beast_fmri_test/images/redD.png'></img>	stop	2150.0	2.0	19.0	stop	non-target	D	89,Middle Finger	71,Index Finger	600.0	600.0	2200.0	2150.0	0.0	1.0	600.0	n/a	stop_stim
89452.778594796313	1053.2214052036982	n/a	-1	-1	2750	1053.2214052	stim	stop-signal	46	171720	0.0-7.19-1.19	beast_fmri_test	359	169572,/,170251,/,170932,/,171611,/,172292,/	t,t,t,t,t	<img class = center src='/static/experiments/beast_fmri_test/images/D.png'></img>	89,71	2750.0	test	<img class = center src='/static/experiments/beast_fmri_test/images/redD.png'></img>	stop	2150.0	2.0	19.0	stop	non-target	D	89,Middle Finger	71,Index Finger	600.0	600.0	2200.0	2150.0	0.0	1.0	600.0	n/a	ITI
92071	500	n/a	-1	-1	500	0.0	fixation	poldrack-single-stim	47	173285	0.0-7.20-0.20	beast_fmri_test	359	172971,/	t	<div class = centerbox2><div class = fixation>+</div></div>	none	500.0	test	n/a	n/a	n/a	n/a	n/a	n/a	n/a	n/a	n/a	n/a	n/a	n/a	n/a	n/a	n/a	n/a	n/a	n/a	fixation
90197.760475097748	2750	n/a	1243	71	2750	1875.2395249	stim	stop-signal	48	176037	0.0-7.20-1.20	beast_fmri_test	359	173650,/,174331,/,175010,/,175690,/,176369,/,177049,/,177729,/	t,t,t,t,t,t,t	<img class = center src='/static/experiments/beast_fmri_test/images/T.png'></img>	89,71	2750.0	test	<img class = center src='/static/experiments/beast_fmri_test/images/redT.png'></img>	go	2100.0	2.0	20.0	go	non-target	T	89,Middle Finger	71,Index Finger	600.0	650.0	2200.0	2100.0	1.0	n/a	650.0	1.0	go_stim
92947.760475097748	1875.2395249022559	n/a	1243	71	2750	1875.2395249	stim	stop-signal	48	176037	0.0-7.20-1.20	beast_fmri_test	359	173650,/,174331,/,175010,/,175690,/,176369,/,177049,/,177729,/	t,t,t,t,t,t,t	<img class = center src='/static/experiments/beast_fmri_test/images/T.png'></img>	89,71	2750.0	test	<img class = center src='/static/experiments/beast_fmri_test/images/redT.png'></img>	go	2100.0	2.0	20.0	go	non-target	T	89,Middle Finger	71,Index Finger	600.0	650.0	2200.0	2100.0	1.0	n/a	650.0	1.0	ITI
97208	500	n/a	-1	-1	500	0.0	fixation	poldrack-single-stim	49	178422	0.0-7.21-0.21	beast_fmri_test	359	178409,/	t	<div class = centerbox2><div class = fixation>+</div></div>	none	500.0	test	n/a	n/a	n/a	n/a	n/a	n/a	n/a	n/a	n/a	n/a	n/a	n/a	n/a	n/a	n/a	n/a	n/a	n/a	fixation
96311.725744045892	650.0	n/a	-1	-1	2750	898.274255954	stim	stop-signal	50	181174	0.0-7.21-1.21	beast_fmri_test	359	179088,/,179768,/,180447,/,181128,/,181807,/	t,t,t,t,t	<img class = center src='/static/experiments/beast_fmri_test/images/T.png'></img>	89,71	2750.0	test	<img class = center src='/static/experiments/beast_fmri_test/images/redT.png'></img>	stop	2100.0	2.0	21.0	stop	non-target	T	89,Middle Finger	71,Index Finger	600.0	650.0	2200.0	2100.0	0.0	1.0	650.0	n/a	go_stim
98411.725744045892	2100.0	n/a	-1	-1	2750	898.274255954	stim	stop-signal	50	181174	0.0-7.21-1.21	beast_fmri_test	359	179088,/,179768,/,180447,/,181128,/,181807,/	t,t,t,t,t	<img class = center src='/static/experiments/beast_fmri_test/images/T.png'></img>	89,71	2750.0	test	<img class = center src='/static/experiments/beast_fmri_test/images/redT.png'></img>	stop	2100.0	2.0	21.0	stop	non-target	T	89,Middle Finger	71,Index Finger	600.0	650.0	2200.0	2100.0	0.0	1.0	650.0	n/a	stop_stim
99061.725744045892	898.27425595409943	n/a	-1	-1	2750	898.274255954	stim	stop-signal	50	181174	0.0-7.21-1.21	beast_fmri_test	359	179088,/,179768,/,180447,/,181128,/,181807,/	t,t,t,t,t	<img class = center src='/static/experiments/beast_fmri_test/images/T.png'></img>	89,71	2750.0	test	<img class = center src='/static/experiments/beast_fmri_test/images/redT.png'></img>	stop	2100.0	2.0	21.0	stop	non-target	T	89,Middle Finger	71,Index Finger	600.0	650.0	2200.0	2100.0	0.0	1.0	650.0	n/a	ITI
101369	500	n/a	-1	-1	500	0.0	fixation	poldrack-single-stim	51	182583	0.0-7.22-0.22	beast_fmri_test	359	182486,/	t	<div class = centerbox2><div class = fixation>+</div></div>	none	500.0	test	n/a	n/a	n/a	n/a	n/a	n/a	n/a	n/a	n/a	n/a	n/a	n/a	n/a	n/a	n/a	n/a	n/a	n/a	fixation
101152.016053734	700.0	n/a	-1	-1	2750	219.983946266	stim	stop-signal	52	185336	0.0-7.22-1.22	beast_fmri_test	359	183167,/,183845,/,184526,/,185206,/	t,t,t,t	<img class = center src='/static/experiments/beast_fmri_test/images/B.png'></img>	89,71	2750.0	test	<img class = center src='/static/experiments/beast_fmri_test/images/redB.png'></img>	stop	2050.0	2.0	22.0	stop	non-target	B	89,Middle Finger	71,Index Finger	600.0	700.0	2200.0	2050.0	0.0	1.0	700.0	n/a	go_stim
103202.016053734	2050.0	n/a	-1	-1	2750	219.983946266	stim	stop-signal	52	185336	0.0-7.22-1.22	beast_fmri_test	359	183167,/,183845,/,184526,/,185206,/	t,t,t,t	<img class = center src='/static/experiments/beast_fmri_test/images/B.png'></img>	89,71	2750.0	test	<img class = center src='/static/experiments/beast_fmri_test/images/redB.png'></img>	stop	2050.0	2.0	22.0	stop	non-target	B	89,Middle Finger	71,Index Finger	600.0	700.0	2200.0	2050.0	0.0	1.0	700.0	n/a	stop_stim
103902.016053734	219.98394626600705	n/a	-1	-1	2750	219.983946266	stim	stop-signal	52	185336	0.0-7.22-1.22	beast_fmri_test	359	183167,/,183845,/,184526,/,185206,/	t,t,t,t	<img class = center src='/static/experiments/beast_fmri_test/images/B.png'></img>	89,71	2750.0	test	<img class = center src='/static/experiments/beast_fmri_test/images/redB.png'></img>	stop	2050.0	2.0	22.0	stop	non-target	B	89,Middle Finger	71,Index Finger	600.0	700.0	2200.0	2050.0	0.0	1.0	700.0	n/a	ITI
104852	500	n/a	-1	-1	500	0.0	fixation	poldrack-single-stim	53	186066	0.0-7.23-0.23	beast_fmri_test	359	185886,/	t	<div class = centerbox2><div class = fixation>+</div></div>	none	500.0	test	n/a	n/a	n/a	n/a	n/a	n/a	n/a	n/a	n/a	n/a	n/a	n/a	n/a	n/a	n/a	n/a	n/a	n/a	fixation
104022.35553515001	2750	n/a	1260	71	2750	829.64446485	stim	stop-signal	54	188816	0.0-7.23-1.23	beast_fmri_test	359	186566,/,187244,/,187923,/,188604,/,189283,/	t,t,t,t,t	<img class = center src='/static/experiments/beast_fmri_test/images/D.png'></img>	89,71	2750.0	test	<img class = center src='/static/experiments/beast_fmri_test/images/redD.png'></img>	go	2000.0	2.0	23.0	go	non-target	D	89,Middle Finger	71,Index Finger	600.0	750.0	2200.0	2000.0	1.0	n/a	750.0	1.0	go_stim
106772.35553515001	829.64446484998371	n/a	1260	71	2750	829.64446485	stim	stop-signal	54	188816	0.0-7.23-1.23	beast_fmri_test	359	186566,/,187244,/,187923,/,188604,/,189283,/	t,t,t,t,t	<img class = center src='/static/experiments/beast_fmri_test/images/D.png'></img>	89,71	2750.0	test	<img class = center src='/static/experiments/beast_fmri_test/images/redD.png'></img>	go	2000.0	2.0	23.0	go	non-target	D	89,Middle Finger	71,Index Finger	600.0	750.0	2200.0	2000.0	1.0	n/a	750.0	1.0	ITI
108943	500	n/a	-1	-1	500	0.0	fixation	poldrack-single-stim	55	190157	0.0-7.24-0.24	beast_fmri_test	359	189963,/	t	<div class = centerbox2><div class = fixation>+</div></div>	none	500.0	test	n/a	n/a	n/a	n/a	n/a	n/a	n/a	n/a	n/a	n/a	n/a	n/a	n/a	n/a	n/a	n/a	n/a	n/a	fixation
106956.67366265442	2750	n/a	1630	71	2750	1989.32633735	stim	stop-signal	56	192910	0.0-7.24-1.24	beast_fmri_test	359	190642,/,191322,/,192003,/,192682,/,193361,/,194040,/,194721,/	t,t,t,t,t,t,t	<img class = center src='/static/experiments/beast_fmri_test/images/D.png'></img>	89,71	2750.0	test	<img class = center src='/static/experiments/beast_fmri_test/images/redD.png'></img>	go	2000.0	2.0	24.0	go	non-target	D	89,Middle Finger	71,Index Finger	600.0	750.0	2200.0	2000.0	1.0	n/a	750.0	1.0	go_stim
109706.67366265442	1989.3263373455732	n/a	1630	71	2750	1989.32633735	stim	stop-signal	56	192910	0.0-7.24-1.24	beast_fmri_test	359	190642,/,191322,/,192003,/,192682,/,193361,/,194040,/,194721,/	t,t,t,t,t,t,t	<img class = center src='/static/experiments/beast_fmri_test/images/D.png'></img>	89,71	2750.0	test	<img class = center src='/static/experiments/beast_fmri_test/images/redD.png'></img>	go	2000.0	2.0	24.0	go	non-target	D	89,Middle Finger	71,Index Finger	600.0	750.0	2200.0	2000.0	1.0	n/a	750.0	1.0	ITI
114200	500	n/a	-1	-1	500	0.0	fixation	poldrack-single-stim	57	195414	0.0-7.25-0.25	beast_fmri_test	359	195402,/	t	<div class = centerbox2><div class = fixation>+</div></div>	none	500.0	test	n/a	n/a	n/a	n/a	n/a	n/a	n/a	n/a	n/a	n/a	n/a	n/a	n/a	n/a	n/a	n/a	n/a	n/a	fixation
113273.02723387693	600.0	n/a	-1	-1	2750	927.972766123	stim	stop-signal	58	198165	0.0-7.25-1.25	beast_fmri_test	359	196080,/,196759,/,197439,/,198120,/,198798,/	t,t,t,t,t	<img class = center src='/static/experiments/beast_fmri_test/images/D.png'></img>	89,71	2750.0	test	<img class = center src='/static/experiments/beast_fmri_test/images/redD.png'></img>	stop	2150.0	2.0	25.0	stop	target	D	89,Middle Finger	71,Index Finger	600.0	750.0	2150.0	2000.0	0.0	1.0	600.0	n/a	go_stim
115423.02723387693	2150.0	n/a	-1	-1	2750	927.972766123	stim	stop-signal	58	198165	0.0-7.25-1.25	beast_fmri_test	359	196080,/,196759,/,197439,/,198120,/,198798,/	t,t,t,t,t	<img class = center src='/static/experiments/beast_fmri_test/images/D.png'></img>	89,71	2750.0	test	<img class = center src='/static/experiments/beast_fmri_test/images/redD.png'></img>	stop	2150.0	2.0	25.0	stop	target	D	89,Middle Finger	71,Index Finger	600.0	750.0	2150.0	2000.0	0.0	1.0	600.0	n/a	stop_stim
116023.02723387693	927.97276612306121	n/a	-1	-1	2750	927.972766123	stim	stop-signal	58	198165	0.0-7.25-1.25	beast_fmri_test	359	196080,/,196759,/,197439,/,198120,/,198798,/	t,t,t,t,t	<img class = center src='/static/experiments/beast_fmri_test/images/D.png'></img>	89,71	2750.0	test	<img class = center src='/static/experiments/beast_fmri_test/images/redD.png'></img>	stop	2150.0	2.0	25.0	stop	target	D	89,Middle Finger	71,Index Finger	600.0	750.0	2150.0	2000.0	0.0	1.0	600.0	n/a	ITI
118393	500	n/a	-1	-1	500	0.0	fixation	poldrack-single-stim	59	199607	0.0-7.26-0.26	beast_fmri_test	359	199479,/	t	<div class = centerbox2><div class = fixation>+</div></div>	none	500.0	test	n/a	n/a	n/a	n/a	n/a	n/a	n/a	n/a	n/a	n/a	n/a	n/a	n/a	n/a	n/a	n/a	n/a	n/a	fixation
117573.08697200796	750.0	n/a	700	71	2750	821.913027992	stim	stop-signal	60	202359	0.0-7.26-1.26	beast_fmri_test	359	200159,/,200838,/,201518,/,202197,/,202877,/	t,t,t,t,t	<img class = center src='/static/experiments/beast_fmri_test/images/T.png'></img>	89,71	2750.0	test	<img class = center src='/static/experiments/beast_fmri_test/images/redT.png'></img>	stop	2000.0	2.0	26.0	stop	non-target	T	89,Middle Finger	71,Index Finger	650.0	750.0	2150.0	2000.0	0.0	0.0	750.0	n/a	go_stim
119573.08697200796	2000.0	n/a	700	71	2750	821.913027992	stim	stop-signal	60	202359	0.0-7.26-1.26	beast_fmri_test	359	200159,/,200838,/,201518,/,202197,/,202877,/	t,t,t,t,t	<img class = center src='/static/experiments/beast_fmri_test/images/T.png'></img>	89,71	2750.0	test	<img class = center src='/static/experiments/beast_fmri_test/images/redT.png'></img>	stop	2000.0	2.0	26.0	stop	non-target	T	89,Middle Finger	71,Index Finger	650.0	750.0	2150.0	2000.0	0.0	0.0	750.0	n/a	stop_stim
120323.08697200796	821.91302799204743	n/a	700	71	2750	821.913027992	stim	stop-signal	60	202359	0.0-7.26-1.26	beast_fmri_test	359	200159,/,200838,/,201518,/,202197,/,202877,/	t,t,t,t,t	<img class = center src='/static/experiments/beast_fmri_test/images/T.png'></img>	89,71	2750.0	test	<img class = center src='/static/experiments/beast_fmri_test/images/redT.png'></img>	stop	2000.0	2.0	26.0	stop	non-target	T	89,Middle Finger	71,Index Finger	650.0	750.0	2150.0	2000.0	0.0	0.0	750.0	n/a	ITI
122478	500	n/a	-1	-1	500	0.0	fixation	poldrack-single-stim	61	203692	0.0-7.27-0.27	beast_fmri_test	359	203557,/	t	<div class = centerbox2><div class = fixation>+</div></div>	none	500.0	test	n/a	n/a	n/a	n/a	n/a	n/a	n/a	n/a	n/a	n/a	n/a	n/a	n/a	n/a	n/a	n/a	n/a	n/a	fixation
121872.95217991894	650.0	n/a	-1	-1	2750	606.047820081	stim	stop-signal	62	206443	0.0-7.27-1.27	beast_fmri_test	359	204236,/,204916,/,205597,/,206277,/,206955,/	t,t,t,t,t	<img class = center src='/static/experiments/beast_fmri_test/images/D.png'></img>	89,71	2750.0	test	<img class = center src='/static/experiments/beast_fmri_test/images/redD.png'></img>	stop	2100.0	2.0	27.0	stop	target	D	89,Middle Finger	71,Index Finger	650.0	700.0	2100.0	2000.0	0.0	1.0	650.0	n/a	go_stim
123972.95217991894	2100.0	n/a	-1	-1	2750	606.047820081	stim	stop-signal	62	206443	0.0-7.27-1.27	beast_fmri_test	359	204236,/,204916,/,205597,/,206277,/,206955,/	t,t,t,t,t	<img class = center src='/static/experiments/beast_fmri_test/images/D.png'></img>	89,71	2750.0	test	<img class = center src='/static/experiments/beast_fmri_test/images/redD.png'></img>	stop	2100.0	2.0	27.0	stop	target	D	89,Middle Finger	71,Index Finger	650.0	700.0	2100.0	2000.0	0.0	1.0	650.0	n/a	stop_stim
124622.95217991894	606.04782008105258	n/a	-1	-1	2750	606.047820081	stim	stop-signal	62	206443	0.0-7.27-1.27	beast_fmri_test	359	204236,/,204916,/,205597,/,206277,/,206955,/	t,t,t,t,t	<img class = center src='/static/experiments/beast_fmri_test/images/D.png'></img>	89,71	2750.0	test	<img class = center src='/static/experiments/beast_fmri_test/images/redD.png'></img>	stop	2100.0	2.0	27.0	stop	target	D	89,Middle Finger	71,Index Finger	650.0	700.0	2100.0	2000.0	0.0	1.0	650.0	n/a	ITI
126348	500	n/a	-1	-1	500	0.0	fixation	poldrack-single-stim	63	207562	0.0-7.28-0.28	beast_fmri_test	359	n/a	n/a	<div class = centerbox2><div class = fixation>+</div></div>	none	500.0	test	n/a	n/a	n/a	n/a	n/a	n/a	n/a	n/a	n/a	n/a	n/a	n/a	n/a	n/a	n/a	n/a	n/a	n/a	fixation
126301.115126783	700.0	n/a	-1	-1	2750	48.884873217	stim	stop-signal	64	210314	0.0-7.28-1.28	beast_fmri_test	359	207635,/,208314,/,208995,/,209674,/,210354,/	t,t,t,t,t	<img class = center src='/static/experiments/beast_fmri_test/images/D.png'></img>	89,71	2750.0	test	<img class = center src='/static/experiments/beast_fmri_test/images/redD.png'></img>	stop	2050.0	2.0	28.0	stop	non-target	D	89,Middle Finger	71,Index Finger	700.0	700.0	2100.0	2050.0	0.0	1.0	700.0	n/a	go_stim
128351.115126783	2050.0	n/a	-1	-1	2750	48.884873217	stim	stop-signal	64	210314	0.0-7.28-1.28	beast_fmri_test	359	207635,/,208314,/,208995,/,209674,/,210354,/	t,t,t,t,t	<img class = center src='/static/experiments/beast_fmri_test/images/D.png'></img>	89,71	2750.0	test	<img class = center src='/static/experiments/beast_fmri_test/images/redD.png'></img>	stop	2050.0	2.0	28.0	stop	non-target	D	89,Middle Finger	71,Index Finger	700.0	700.0	2100.0	2050.0	0.0	1.0	700.0	n/a	stop_stim
129051.115126783	48.884873216990407	n/a	-1	-1	2750	48.884873217	stim	stop-signal	64	210314	0.0-7.28-1.28	beast_fmri_test	359	207635,/,208314,/,208995,/,209674,/,210354,/	t,t,t,t,t	<img class = center src='/static/experiments/beast_fmri_test/images/D.png'></img>	89,71	2750.0	test	<img class = center src='/static/experiments/beast_fmri_test/images/redD.png'></img>	stop	2050.0	2.0	28.0	stop	non-target	D	89,Middle Finger	71,Index Finger	700.0	700.0	2100.0	2050.0	0.0	1.0	700.0	n/a	ITI
129660	500	n/a	-1	-1	500	0.0	fixation	poldrack-single-stim	65	210874	0.0-7.29-0.29	beast_fmri_test	359	n/a	n/a	<div class = centerbox2><div class = fixation>+</div></div>	none	500.0	test	n/a	n/a	n/a	n/a	n/a	n/a	n/a	n/a	n/a	n/a	n/a	n/a	n/a	n/a	n/a	n/a	n/a	n/a	fixation
128479.0185060022	2750	n/a	759	71	2750	1182.981494	stim	stop-signal	66	213626	0.0-7.29-1.29	beast_fmri_test	359	211033,/,211713,/,212392,/,213072,/,213751,/,214432,/	t,t,t,t,t,t	<img class = center src='/static/experiments/beast_fmri_test/images/B.png'></img>	89,71	2750.0	test	<img class = center src='/static/experiments/beast_fmri_test/images/redB.png'></img>	go	2000.0	2.0	29.0	go	non-target	B	89,Middle Finger	71,Index Finger	700.0	750.0	2100.0	2000.0	1.0	n/a	750.0	1.0	go_stim
131229.0185060022	1182.9814939977941	n/a	759	71	2750	1182.981494	stim	stop-signal	66	213626	0.0-7.29-1.29	beast_fmri_test	359	211033,/,211713,/,212392,/,213072,/,213751,/,214432,/	t,t,t,t,t,t	<img class = center src='/static/experiments/beast_fmri_test/images/B.png'></img>	89,71	2750.0	test	<img class = center src='/static/experiments/beast_fmri_test/images/redB.png'></img>	go	2000.0	2.0	29.0	go	non-target	B	89,Middle Finger	71,Index Finger	700.0	750.0	2100.0	2000.0	1.0	n/a	750.0	1.0	ITI
134106	500	n/a	-1	-1	500	0.0	fixation	poldrack-single-stim	67	215320	0.0-7.30-0.30	beast_fmri_test	359	215111,/	t	<div class = centerbox2><div class = fixation>+</div></div>	none	500.0	test	n/a	n/a	n/a	n/a	n/a	n/a	n/a	n/a	n/a	n/a	n/a	n/a	n/a	n/a	n/a	n/a	n/a	n/a	fixation
133707.70575143196	750.0	n/a	888	71	2750	399.294248568	stim	stop-signal	68	218071	0.0-7.30-1.30	beast_fmri_test	359	215792,/,216470,/,217150,/,217830,/	t,t,t,t	<img class = center src='/static/experiments/beast_fmri_test/images/P.png'></img>	89,71	2750.0	test	<img class = center src='/static/experiments/beast_fmri_test/images/redP.png'></img>	stop	2000.0	2.0	30.0	stop	non-target	P	89,Middle Finger	71,Index Finger	700.0	750.0	2100.0	2000.0	0.0	0.0	750.0	n/a	go_stim
135707.70575143196	2000.0	n/a	888	71	2750	399.294248568	stim	stop-signal	68	218071	0.0-7.30-1.30	beast_fmri_test	359	215792,/,216470,/,217150,/,217830,/	t,t,t,t	<img class = center src='/static/experiments/beast_fmri_test/images/P.png'></img>	89,71	2750.0	test	<img class = center src='/static/experiments/beast_fmri_test/images/redP.png'></img>	stop	2000.0	2.0	30.0	stop	non-target	P	89,Middle Finger	71,Index Finger	700.0	750.0	2100.0	2000.0	0.0	0.0	750.0	n/a	stop_stim
136457.70575143196	399.29424856805292	n/a	888	71	2750	399.294248568	stim	stop-signal	68	218071	0.0-7.30-1.30	beast_fmri_test	359	215792,/,216470,/,217150,/,217830,/	t,t,t,t	<img class = center src='/static/experiments/beast_fmri_test/images/P.png'></img>	89,71	2750.0	test	<img class = center src='/static/experiments/beast_fmri_test/images/redP.png'></img>	stop	2000.0	2.0	30.0	stop	non-target	P	89,Middle Finger	71,Index Finger	700.0	750.0	2100.0	2000.0	0.0	0.0	750.0	n/a	ITI
137768	500	n/a	-1	-1	500	0.0	fixation	poldrack-single-stim	69	218982	0.0-7.31-0.31	beast_fmri_test	359	218509,/	t	<div class = centerbox2><div class = fixation>+</div></div>	none	500.0	test	n/a	n/a	n/a	n/a	n/a	n/a	n/a	n/a	n/a	n/a	n/a	n/a	n/a	n/a	n/a	n/a	n/a	n/a	fixation
133443.87492151765	700.0	n/a	-1	-1	2750	4326.12507848	stim	stop-signal	70	221734	0.0-7.31-1.31	beast_fmri_test	359	219189,/,219869,/,220549,/,221230,/,221907,/,222587,/,223267,/,223946,/,224628,/,225306,/,225986,/	t,t,t,t,t,t,t,t,t,t,t	<img class = center src='/static/experiments/beast_fmri_test/images/P.png'></img>	89,71	2750.0	test	<img class = center src='/static/experiments/beast_fmri_test/images/redP.png'></img>	stop	2050.0	2.0	31.0	stop	non-target	P	89,Middle Finger	71,Index Finger	700.0	700.0	2100.0	2050.0	0.0	1.0	700.0	n/a	go_stim
135493.87492151765	2050.0	n/a	-1	-1	2750	4326.12507848	stim	stop-signal	70	221734	0.0-7.31-1.31	beast_fmri_test	359	219189,/,219869,/,220549,/,221230,/,221907,/,222587,/,223267,/,223946,/,224628,/,225306,/,225986,/	t,t,t,t,t,t,t,t,t,t,t	<img class = center src='/static/experiments/beast_fmri_test/images/P.png'></img>	89,71	2750.0	test	<img class = center src='/static/experiments/beast_fmri_test/images/redP.png'></img>	stop	2050.0	2.0	31.0	stop	non-target	P	89,Middle Finger	71,Index Finger	700.0	700.0	2100.0	2050.0	0.0	1.0	700.0	n/a	stop_stim
136193.87492151765	4326.1250784823496	n/a	-1	-1	2750	4326.12507848	stim	stop-signal	70	221734	0.0-7.31-1.31	beast_fmri_test	359	219189,/,219869,/,220549,/,221230,/,221907,/,222587,/,223267,/,223946,/,224628,/,225306,/,225986,/	t,t,t,t,t,t,t,t,t,t,t	<img class = center src='/static/experiments/beast_fmri_test/images/P.png'></img>	89,71	2750.0	test	<img class = center src='/static/experiments/beast_fmri_test/images/redP.png'></img>	stop	2050.0	2.0	31.0	stop	non-target	P	89,Middle Finger	71,Index Finger	700.0	700.0	2100.0	2050.0	0.0	1.0	700.0	n/a	ITI
145358	500	n/a	-1	-1	500	0.0	fixation	poldrack-single-stim	71	226572	0.0-7.32-0.32	beast_fmri_test	359	n/a	n/a	<div class = centerbox2><div class = fixation>+</div></div>	none	500.0	test	n/a	n/a	n/a	n/a	n/a	n/a	n/a	n/a	n/a	n/a	n/a	n/a	n/a	n/a	n/a	n/a	n/a	n/a	fixation
143165.67928647361	2750	n/a	1358	71	2750	2193.32071353	stim	stop-signal	72	229323	0.0-7.32-1.32	beast_fmri_test	359	226666,/,227345,/,228025,/,228704,/,229385,/,230064,/,230745,/,231424,/	t,t,t,t,t,t,t,t	<img class = center src='/static/experiments/beast_fmri_test/images/V.png'></img>	89,71	2750.0	test	<img class = center src='/static/experiments/beast_fmri_test/images/redV.png'></img>	go	2000.0	2.0	32.0	go	non-target	V	89,Middle Finger	71,Index Finger	700.0	750.0	2100.0	2000.0	1.0	n/a	750.0	1.0	go_stim
145915.67928647361	2193.3207135263847	n/a	1358	71	2750	2193.32071353	stim	stop-signal	72	229323	0.0-7.32-1.32	beast_fmri_test	359	226666,/,227345,/,228025,/,228704,/,229385,/,230064,/,230745,/,231424,/	t,t,t,t,t,t,t,t	<img class = center src='/static/experiments/beast_fmri_test/images/V.png'></img>	89,71	2750.0	test	<img class = center src='/static/experiments/beast_fmri_test/images/redV.png'></img>	go	2000.0	2.0	32.0	go	non-target	V	89,Middle Finger	71,Index Finger	700.0	750.0	2100.0	2000.0	1.0	n/a	750.0	1.0	ITI
150814	500	n/a	-1	-1	500	0.0	fixation	poldrack-single-stim	73	232028	0.0-7.33-0.33	beast_fmri_test	359	n/a	n/a	<div class = centerbox2><div class = fixation>+</div></div>	none	500.0	test	n/a	n/a	n/a	n/a	n/a	n/a	n/a	n/a	n/a	n/a	n/a	n/a	n/a	n/a	n/a	n/a	n/a	n/a	fixation
149622.16686044846	2750	n/a	852	71	2750	1192.83313955	stim	stop-signal	74	234779	0.0-7.33-1.33	beast_fmri_test	359	232103,/,232784,/,233463,/,234143,/,234822,/,235502,/	t,t,t,t,t,t	<img class = center src='/static/experiments/beast_fmri_test/images/T.png'></img>	89,71	2750.0	test	<img class = center src='/static/experiments/beast_fmri_test/images/redT.png'></img>	go	2000.0	2.0	33.0	go	non-target	T	89,Middle Finger	71,Index Finger	700.0	750.0	2100.0	2000.0	1.0	n/a	750.0	1.0	go_stim
152372.16686044846	1192.8331395515429	n/a	852	71	2750	1192.83313955	stim	stop-signal	74	234779	0.0-7.33-1.33	beast_fmri_test	359	232103,/,232784,/,233463,/,234143,/,234822,/,235502,/	t,t,t,t,t,t	<img class = center src='/static/experiments/beast_fmri_test/images/T.png'></img>	89,71	2750.0	test	<img class = center src='/static/experiments/beast_fmri_test/images/redT.png'></img>	go	2000.0	2.0	33.0	go	non-target	T	89,Middle Finger	71,Index Finger	700.0	750.0	2100.0	2000.0	1.0	n/a	750.0	1.0	ITI
155272	500	n/a	-1	-1	500	0.0	fixation	poldrack-single-stim	75	236486	0.0-7.34-0.34	beast_fmri_test	359	236182,/	t	<div class = centerbox2><div class = fixation>+</div></div>	none	500.0	test	n/a	n/a	n/a	n/a	n/a	n/a	n/a	n/a	n/a	n/a	n/a	n/a	n/a	n/a	n/a	n/a	n/a	n/a	fixation
155092.72376258357	2750	n/a	1005	71	2750	180.276237416	stim	stop-signal	76	239237	0.0-7.34-1.34	beast_fmri_test	359	236861,/,237541,/,238222,/,238901,/	t,t,t,t	<img class = center src='/static/experiments/beast_fmri_test/images/D.png'></img>	89,71	2750.0	test	<img class = center src='/static/experiments/beast_fmri_test/images/redD.png'></img>	go	2000.0	2.0	34.0	go	non-target	D	89,Middle Finger	71,Index Finger	700.0	750.0	2100.0	2000.0	1.0	n/a	750.0	1.0	go_stim
157842.72376258357	180.27623741642051	n/a	1005	71	2750	180.276237416	stim	stop-signal	76	239237	0.0-7.34-1.34	beast_fmri_test	359	236861,/,237541,/,238222,/,238901,/	t,t,t,t	<img class = center src='/static/experiments/beast_fmri_test/images/D.png'></img>	89,71	2750.0	test	<img class = center src='/static/experiments/beast_fmri_test/images/redD.png'></img>	go	2000.0	2.0	34.0	go	non-target	D	89,Middle Finger	71,Index Finger	700.0	750.0	2100.0	2000.0	1.0	n/a	750.0	1.0	ITI
158716	500	n/a	-1	-1	500	0.0	fixation	poldrack-single-stim	77	239930	0.0-7.35-0.35	beast_fmri_test	359	239582,/	t	<div class = centerbox2><div class = fixation>+</div></div>	none	500.0	test	n/a	n/a	n/a	n/a	n/a	n/a	n/a	n/a	n/a	n/a	n/a	n/a	n/a	n/a	n/a	n/a	n/a	n/a	fixation
157411.9002475607	2750	n/a	915	71	2750	1305.09975244	stim	stop-signal	78	242681	0.0-7.35-1.35	beast_fmri_test	359	240261,/,240939,/,241619,/,242298,/,242979,/,243658,/	t,t,t,t,t,t	<img class = center src='/static/experiments/beast_fmri_test/images/B.png'></img>	89,71	2750.0	test	<img class = center src='/static/experiments/beast_fmri_test/images/redB.png'></img>	go	2000.0	2.0	35.0	go	non-target	B	89,Middle Finger	71,Index Finger	700.0	750.0	2100.0	2000.0	1.0	n/a	750.0	1.0	go_stim
160161.9002475607	1305.0997524392978	n/a	915	71	2750	1305.09975244	stim	stop-signal	78	242681	0.0-7.35-1.35	beast_fmri_test	359	240261,/,240939,/,241619,/,242298,/,242979,/,243658,/	t,t,t,t,t,t	<img class = center src='/static/experiments/beast_fmri_test/images/B.png'></img>	89,71	2750.0	test	<img class = center src='/static/experiments/beast_fmri_test/images/redB.png'></img>	go	2000.0	2.0	35.0	go	non-target	B	89,Middle Finger	71,Index Finger	700.0	750.0	2100.0	2000.0	1.0	n/a	750.0	1.0	ITI
163288	500	n/a	-1	-1	500	0.0	fixation	poldrack-single-stim	79	244502	0.0-7.36-0.36	beast_fmri_test	359	244339,/	t	<div class = centerbox2><div class = fixation>+</div></div>	none	500.0	test	n/a	n/a	n/a	n/a	n/a	n/a	n/a	n/a	n/a	n/a	n/a	n/a	n/a	n/a	n/a	n/a	n/a	n/a	fixation
163043.57477224342	2750	n/a	1130	71	2750	245.425227757	stim	stop-signal	80	247253	0.0-7.36-1.36	beast_fmri_test	359	245018,/,245697,/,246377,/,247057,/	t,t,t,t	<img class = center src='/static/experiments/beast_fmri_test/images/D.png'></img>	89,71	2750.0	test	<img class = center src='/static/experiments/beast_fmri_test/images/redD.png'></img>	go	2050.0	2.0	36.0	go	target	D	89,Middle Finger	71,Index Finger	700.0	750.0	2050.0	2000.0	0.0	n/a	700.0	0.0	go_stim
165793.57477224342	245.42522775659413	n/a	1130	71	2750	245.425227757	stim	stop-signal	80	247253	0.0-7.36-1.36	beast_fmri_test	359	245018,/,245697,/,246377,/,247057,/	t,t,t,t	<img class = center src='/static/experiments/beast_fmri_test/images/D.png'></img>	89,71	2750.0	test	<img class = center src='/static/experiments/beast_fmri_test/images/redD.png'></img>	go	2050.0	2.0	36.0	go	target	D	89,Middle Finger	71,Index Finger	700.0	750.0	2050.0	2000.0	0.0	n/a	700.0	0.0	ITI
166799	500	n/a	-1	-1	500	0.0	fixation	poldrack-single-stim	81	248013	0.0-7.37-0.37	beast_fmri_test	359	247737,/	t	<div class = centerbox2><div class = fixation>+</div></div>	none	500.0	test	n/a	n/a	n/a	n/a	n/a	n/a	n/a	n/a	n/a	n/a	n/a	n/a	n/a	n/a	n/a	n/a	n/a	n/a	fixation
166793.3973522005	2750	n/a	964	71	2750	8.60264779949	stim	stop-signal	82	250766	0.0-7.37-1.37	beast_fmri_test	359	248419,/,249095,/,249775,/,250454,/	t,t,t,t	<img class = center src='/static/experiments/beast_fmri_test/images/T.png'></img>	89,71	2750.0	test	<img class = center src='/static/experiments/beast_fmri_test/images/redT.png'></img>	go	2000.0	2.0	37.0	go	non-target	T	89,Middle Finger	71,Index Finger	700.0	750.0	2050.0	2000.0	1.0	n/a	750.0	1.0	go_stim
169543.3973522005	8.6026477994920434	n/a	964	71	2750	8.60264779949	stim	stop-signal	82	250766	0.0-7.37-1.37	beast_fmri_test	359	248419,/,249095,/,249775,/,250454,/	t,t,t,t	<img class = center src='/static/experiments/beast_fmri_test/images/T.png'></img>	89,71	2750.0	test	<img class = center src='/static/experiments/beast_fmri_test/images/redT.png'></img>	go	2000.0	2.0	37.0	go	non-target	T	89,Middle Finger	71,Index Finger	700.0	750.0	2050.0	2000.0	1.0	n/a	750.0	1.0	ITI
170074	500	n/a	-1	-1	500	0.0	fixation	poldrack-single-stim	83	251288	0.0-7.38-0.38	beast_fmri_test	359	251135,/	t	<div class = centerbox2><div class = fixation>+</div></div>	none	500.0	test	n/a	n/a	n/a	n/a	n/a	n/a	n/a	n/a	n/a	n/a	n/a	n/a	n/a	n/a	n/a	n/a	n/a	n/a	fixation
169187.11518950315	700.0	n/a	-1	-1	2750	888.884810497	stim	stop-signal	84	254040	0.0-7.38-1.38	beast_fmri_test	359	251813,/,252494,/,253173,/,253853,/,254532,/	t,t,t,t,t	<img class = center src='/static/experiments/beast_fmri_test/images/D.png'></img>	89,71	2750.0	test	<img class = center src='/static/experiments/beast_fmri_test/images/redD.png'></img>	stop	2050.0	2.0	38.0	stop	target	D	89,Middle Finger	71,Index Finger	700.0	750.0	2050.0	2000.0	0.0	1.0	700.0	n/a	go_stim
171237.11518950315	2050.0	n/a	-1	-1	2750	888.884810497	stim	stop-signal	84	254040	0.0-7.38-1.38	beast_fmri_test	359	251813,/,252494,/,253173,/,253853,/,254532,/	t,t,t,t,t	<img class = center src='/static/experiments/beast_fmri_test/images/D.png'></img>	89,71	2750.0	test	<img class = center src='/static/experiments/beast_fmri_test/images/redD.png'></img>	stop	2050.0	2.0	38.0	stop	target	D	89,Middle Finger	71,Index Finger	700.0	750.0	2050.0	2000.0	0.0	1.0	700.0	n/a	stop_stim
171937.11518950315	888.88481049684162	n/a	-1	-1	2750	888.884810497	stim	stop-signal	84	254040	0.0-7.38-1.38	beast_fmri_test	359	251813,/,252494,/,253173,/,253853,/,254532,/	t,t,t,t,t	<img class = center src='/static/experiments/beast_fmri_test/images/D.png'></img>	89,71	2750.0	test	<img class = center src='/static/experiments/beast_fmri_test/images/redD.png'></img>	stop	2050.0	2.0	38.0	stop	target	D	89,Middle Finger	71,Index Finger	700.0	750.0	2050.0	2000.0	0.0	1.0	700.0	n/a	ITI
174228	500	n/a	-1	-1	500	0.0	fixation	poldrack-single-stim	85	255442	0.0-7.39-0.39	beast_fmri_test	359	255213,/	t	<div class = centerbox2><div class = fixation>+</div></div>	none	500.0	test	n/a	n/a	n/a	n/a	n/a	n/a	n/a	n/a	n/a	n/a	n/a	n/a	n/a	n/a	n/a	n/a	n/a	n/a	fixation
174050.21312013821	2750	n/a	825	71	2750	178.786879862	stim	stop-signal	86	258193	0.0-7.39-1.39	beast_fmri_test	359	255891,/,256571,/,257251,/,257933,/	t,t,t,t	<img class = center src='/static/experiments/beast_fmri_test/images/P.png'></img>	89,71	2750.0	test	<img class = center src='/static/experiments/beast_fmri_test/images/redP.png'></img>	go	2000.0	2.0	39.0	go	non-target	P	89,Middle Finger	71,Index Finger	750.0	750.0	2050.0	2000.0	1.0	n/a	750.0	1.0	go_stim
176800.21312013821	178.78687986178508	n/a	825	71	2750	178.786879862	stim	stop-signal	86	258193	0.0-7.39-1.39	beast_fmri_test	359	255891,/,256571,/,257251,/,257933,/	t,t,t,t	<img class = center src='/static/experiments/beast_fmri_test/images/P.png'></img>	89,71	2750.0	test	<img class = center src='/static/experiments/beast_fmri_test/images/redP.png'></img>	go	2000.0	2.0	39.0	go	non-target	P	89,Middle Finger	71,Index Finger	750.0	750.0	2050.0	2000.0	1.0	n/a	750.0	1.0	ITI
177669	500	n/a	-1	-1	500	0.0	fixation	poldrack-single-stim	87	258883	0.0-7.40-0.40	beast_fmri_test	359	258611,/	t	<div class = centerbox2><div class = fixation>+</div></div>	none	500.0	test	n/a	n/a	n/a	n/a	n/a	n/a	n/a	n/a	n/a	n/a	n/a	n/a	n/a	n/a	n/a	n/a	n/a	n/a	fixation
176408.81467749548	2750	n/a	1165	71	2750	1262.1853225	stim	stop-signal	88	261635	0.0-7.40-1.40	beast_fmri_test	359	259292,/,259971,/,260650,/,261330,/,262010,/,262690,/	t,t,t,t,t,t	<img class = center src='/static/experiments/beast_fmri_test/images/T.png'></img>	89,71	2750.0	test	<img class = center src='/static/experiments/beast_fmri_test/images/redT.png'></img>	go	2000.0	2.0	40.0	go	non-target	T	89,Middle Finger	71,Index Finger	750.0	750.0	2050.0	2000.0	1.0	n/a	750.0	1.0	go_stim
179158.81467749548	1262.1853225045281	n/a	1165	71	2750	1262.1853225	stim	stop-signal	88	261635	0.0-7.40-1.40	beast_fmri_test	359	259292,/,259971,/,260650,/,261330,/,262010,/,262690,/	t,t,t,t,t,t	<img class = center src='/static/experiments/beast_fmri_test/images/T.png'></img>	89,71	2750.0	test	<img class = center src='/static/experiments/beast_fmri_test/images/redT.png'></img>	go	2000.0	2.0	40.0	go	non-target	T	89,Middle Finger	71,Index Finger	750.0	750.0	2050.0	2000.0	1.0	n/a	750.0	1.0	ITI
182198	500	n/a	-1	-1	500	0.0	fixation	poldrack-single-stim	89	263412	0.0-7.41-0.41	beast_fmri_test	359	263369,/	t	<div class = centerbox2><div class = fixation>+</div></div>	none	500.0	test	n/a	n/a	n/a	n/a	n/a	n/a	n/a	n/a	n/a	n/a	n/a	n/a	n/a	n/a	n/a	n/a	n/a	n/a	fixation
182079.3760925422	2750	n/a	1059	71	2750	120.623907458	stim	stop-signal	90	266164	0.0-7.41-1.41	beast_fmri_test	359	264049,/,264729,/,265409,/,266088,/	t,t,t,t	<img class = center src='/static/experiments/beast_fmri_test/images/P.png'></img>	89,71	2750.0	test	<img class = center src='/static/experiments/beast_fmri_test/images/redP.png'></img>	go	2000.0	2.0	41.0	go	target	P	89,Middle Finger	71,Index Finger	750.0	750.0	2000.0	2000.0	0.0	n/a	750.0	0.0	go_stim
184829.3760925422	120.62390745781931	n/a	1059	71	2750	120.623907458	stim	stop-signal	90	266164	0.0-7.41-1.41	beast_fmri_test	359	264049,/,264729,/,265409,/,266088,/	t,t,t,t	<img class = center src='/static/experiments/beast_fmri_test/images/P.png'></img>	89,71	2750.0	test	<img class = center src='/static/experiments/beast_fmri_test/images/redP.png'></img>	go	2000.0	2.0	41.0	go	target	P	89,Middle Finger	71,Index Finger	750.0	750.0	2000.0	2000.0	0.0	n/a	750.0	0.0	ITI
185583	500	n/a	-1	-1	500	0.0	fixation	poldrack-single-stim	91	266797	0.0-7.42-0.42	beast_fmri_test	359	266769,/	t	<div class = centerbox2><div class = fixation>+</div></div>	none	500.0	test	n/a	n/a	n/a	n/a	n/a	n/a	n/a	n/a	n/a	n/a	n/a	n/a	n/a	n/a	n/a	n/a	n/a	n/a	fixation
180586.0	2750	n/a	1112	71	2750	5000.0	stim	stop-signal	92	269550	0.0-7.42-1.42	beast_fmri_test	359	267448,/,268128,/,268806,/,269486,/,270167,/,270845,/,271526,/,272205,/,272885,/,273564,/,274243,/	t,t,t,t,t,t,t,t,t,t,t	<img class = center src='/static/experiments/beast_fmri_test/images/V.png'></img>	89,71	2750.0	test	<img class = center src='/static/experiments/beast_fmri_test/images/redV.png'></img>	go	2000.0	2.0	42.0	go	non-target	V	89,Middle Finger	71,Index Finger	750.0	750.0	2000.0	2000.0	1.0	n/a	750.0	1.0	go_stim
183336.0	5000.0	n/a	1112	71	2750	5000.0	stim	stop-signal	92	269550	0.0-7.42-1.42	beast_fmri_test	359	267448,/,268128,/,268806,/,269486,/,270167,/,270845,/,271526,/,272205,/,272885,/,273564,/,274243,/	t,t,t,t,t,t,t,t,t,t,t	<img class = center src='/static/experiments/beast_fmri_test/images/V.png'></img>	89,71	2750.0	test	<img class = center src='/static/experiments/beast_fmri_test/images/redV.png'></img>	go	2000.0	2.0	42.0	go	non-target	V	89,Middle Finger	71,Index Finger	750.0	750.0	2000.0	2000.0	1.0	n/a	750.0	1.0	ITI
193848	500	n/a	-1	-1	500	0.0	fixation	poldrack-single-stim	93	275062	0.0-7.43-0.43	beast_fmri_test	359	274925,/	t	<div class = centerbox2><div class = fixation>+</div></div>	none	500.0	test	n/a	n/a	n/a	n/a	n/a	n/a	n/a	n/a	n/a	n/a	n/a	n/a	n/a	n/a	n/a	n/a	n/a	n/a	fixation
193584.82207346091	2750	n/a	907	89	2750	266.177926539	stim	stop-signal	94	277815	0.0-7.43-1.43	beast_fmri_test	359	275604,/,276284,/,276963,/,277643,/	t,t,t,t	<img class = center src='/static/experiments/beast_fmri_test/images/V.png'></img>	89,71	2750.0	test	<img class = center src='/static/experiments/beast_fmri_test/images/redV.png'></img>	go	2000.0	2.0	43.0	go	non-target	V	89,Middle Finger	71,Index Finger	750.0	750.0	2000.0	2000.0	0.0	n/a	750.0	0.0	go_stim
196334.82207346091	266.1779265390681	n/a	907	89	2750	266.177926539	stim	stop-signal	94	277815	0.0-7.43-1.43	beast_fmri_test	359	275604,/,276284,/,276963,/,277643,/	t,t,t,t	<img class = center src='/static/experiments/beast_fmri_test/images/V.png'></img>	89,71	2750.0	test	<img class = center src='/static/experiments/beast_fmri_test/images/redV.png'></img>	go	2000.0	2.0	43.0	go	non-target	V	89,Middle Finger	71,Index Finger	750.0	750.0	2000.0	2000.0	0.0	n/a	750.0	0.0	ITI
197385	500	n/a	-1	-1	500	0.0	fixation	poldrack-single-stim	95	278599	0.0-7.44-0.44	beast_fmri_test	359	278321,/	t	<div class = centerbox2><div class = fixation>+</div></div>	none	500.0	test	n/a	n/a	n/a	n/a	n/a	n/a	n/a	n/a	n/a	n/a	n/a	n/a	n/a	n/a	n/a	n/a	n/a	n/a	fixation
194385.91327280708	2750	n/a	1451	71	2750	3000.08672719	stim	stop-signal	96	281350	0.0-7.44-1.44	beast_fmri_test	359	279001,/,279682,/,280362,/,281041,/,281720,/,282401,/,283079,/,283758,/	t,t,t,t,t,t,t,t	<img class = center src='/static/experiments/beast_fmri_test/images/P.png'></img>	89,71	2750.0	test	<img class = center src='/static/experiments/beast_fmri_test/images/redP.png'></img>	go	2000.0	2.0	44.0	go	non-target	P	89,Middle Finger	71,Index Finger	750.0	750.0	2000.0	2000.0	1.0	n/a	750.0	1.0	go_stim
197135.91327280708	3000.0867271928882	n/a	1451	71	2750	3000.08672719	stim	stop-signal	96	281350	0.0-7.44-1.44	beast_fmri_test	359	279001,/,279682,/,280362,/,281041,/,281720,/,282401,/,283079,/,283758,/	t,t,t,t,t,t,t,t	<img class = center src='/static/experiments/beast_fmri_test/images/P.png'></img>	89,71	2750.0	test	<img class = center src='/static/experiments/beast_fmri_test/images/redP.png'></img>	go	2000.0	2.0	44.0	go	non-target	P	89,Middle Finger	71,Index Finger	750.0	750.0	2000.0	2000.0	1.0	n/a	750.0	1.0	ITI
203651	500	n/a	-1	-1	500	0.0	fixation	poldrack-single-stim	97	284865	0.0-7.45-0.45	beast_fmri_test	359	284439,/	t	<div class = centerbox2><div class = fixation>+</div></div>	none	500.0	test	n/a	n/a	n/a	n/a	n/a	n/a	n/a	n/a	n/a	n/a	n/a	n/a	n/a	n/a	n/a	n/a	n/a	n/a	fixation
203412.99079852906	750.0	n/a	971	71	2750	240.009201471	stim	stop-signal	98	287617	0.0-7.45-1.45	beast_fmri_test	359	285119,/,285798,/,286479,/,287158,/,287838,/	t,t,t,t,t	<img class = center src='/static/experiments/beast_fmri_test/images/D.png'></img>	89,71	2750.0	test	<img class = center src='/static/experiments/beast_fmri_test/images/redD.png'></img>	stop	2000.0	2.0	45.0	stop	non-target	D	89,Middle Finger	71,Index Finger	750.0	750.0	2000.0	2000.0	0.0	0.0	750.0	n/a	go_stim
205412.99079852906	2000.0	n/a	971	71	2750	240.009201471	stim	stop-signal	98	287617	0.0-7.45-1.45	beast_fmri_test	359	285119,/,285798,/,286479,/,287158,/,287838,/	t,t,t,t,t	<img class = center src='/static/experiments/beast_fmri_test/images/D.png'></img>	89,71	2750.0	test	<img class = center src='/static/experiments/beast_fmri_test/images/redD.png'></img>	stop	2000.0	2.0	45.0	stop	non-target	D	89,Middle Finger	71,Index Finger	750.0	750.0	2000.0	2000.0	0.0	0.0	750.0	n/a	stop_stim
206162.99079852906	240.00920147095439	n/a	971	71	2750	240.009201471	stim	stop-signal	98	287617	0.0-7.45-1.45	beast_fmri_test	359	285119,/,285798,/,286479,/,287158,/,287838,/	t,t,t,t,t	<img class = center src='/static/experiments/beast_fmri_test/images/D.png'></img>	89,71	2750.0	test	<img class = center src='/static/experiments/beast_fmri_test/images/redD.png'></img>	stop	2000.0	2.0	45.0	stop	non-target	D	89,Middle Finger	71,Index Finger	750.0	750.0	2000.0	2000.0	0.0	0.0	750.0	n/a	ITI
207160	500	n/a	-1	-1	500	0.0	fixation	poldrack-single-stim	99	288374	0.0-7.46-0.46	beast_fmri_test	359	n/a	n/a	<div class = centerbox2><div class = fixation>+</div></div>	none	500.0	test	n/a	n/a	n/a	n/a	n/a	n/a	n/a	n/a	n/a	n/a	n/a	n/a	n/a	n/a	n/a	n/a	n/a	n/a	fixation
206732.59250845952	2750	n/a	1131	89	2750	428.407491541	stim	stop-signal	100	291125	0.0-7.46-1.46	beast_fmri_test	359	288517,/,289198,/,289878,/,290557,/,291237,/	t,t,t,t,t	<img class = center src='/static/experiments/beast_fmri_test/images/P.png'></img>	89,71	2750.0	test	<img class = center src='/static/experiments/beast_fmri_test/images/redP.png'></img>	go	2000.0	2.0	46.0	go	target	P	89,Middle Finger	71,Index Finger	750.0	700.0	2000.0	2000.0	1.0	n/a	750.0	1.0	go_stim
209482.59250845952	428.40749154050638	n/a	1131	89	2750	428.407491541	stim	stop-signal	100	291125	0.0-7.46-1.46	beast_fmri_test	359	288517,/,289198,/,289878,/,290557,/,291237,/	t,t,t,t,t	<img class = center src='/static/experiments/beast_fmri_test/images/P.png'></img>	89,71	2750.0	test	<img class = center src='/static/experiments/beast_fmri_test/images/redP.png'></img>	go	2000.0	2.0	46.0	go	target	P	89,Middle Finger	71,Index Finger	750.0	700.0	2000.0	2000.0	1.0	n/a	750.0	1.0	ITI
225348	15000	n/a	-1	-1	15000	0.0	practice-no-stop-feedback	poldrack-single-stim	101	306562	0.0-8.0	beast_fmri_test	359	291917,/,292595,/,293277,/,293955,/,294635,/,295316,/,295995,/,296674,/,297353,/,298033,/,298713,/,299393,/,300073,/,300752,/,301431,/,302111,/,302790,/,303471,/,304151,/,304830,/,305510,/,306189,/	t,t,t,t,t,t,t,t,t,t,t,t,t,t,t,t,t,t,t,t,t,t	"<div class = ""centerbox""><p class = ""block-text"">Your delay is 2 trials.</p><p class = block-text>Please wait for the scanner to start the block</p></div>"	77	15000.0	n/a	n/a	n/a	n/a	n/a	n/a	n/a	n/a	n/a	n/a	n/a	n/a	n/a	n/a	n/a	n/a	n/a	n/a	n/a	practice-no-stop-feedback
225852	500	n/a	-1	-1	500	0.0	fixation	poldrack-single-stim	102	307066	0.0-9.0-0.0	beast_fmri_test	359	306868,/	t	<div class = centerbox2><div class = fixation>+</div></div>	none	500.0	test	n/a	n/a	n/a	n/a	n/a	n/a	n/a	n/a	n/a	n/a	n/a	n/a	n/a	n/a	n/a	n/a	n/a	n/a	fixation
220854.0	2750	n/a	1543	71	2750	5000.0	stim	stop-signal	103	309818	0.0-9.0-1.0	beast_fmri_test	359	307548,/,308227,/,308908,/,309587,/,310268,/,310947,/,311625,/,312305,/,312987,/,313666,/,314346,/	t,t,t,t,t,t,t,t,t,t,t	<img class = center src='/static/experiments/beast_fmri_test/images/D.png'></img>	89,71	2750.0	test	<img class = center src='/static/experiments/beast_fmri_test/images/redD.png'></img>	go	-1.0	2.0	0.0	go	temp-non-target	D	89,Middle Finger	71,Index Finger	750.0	700.0	2000.0	2000.0	0.0	n/a	n/a	n/a	go_stim
223604.0	5000.0	n/a	1543	71	2750	5000.0	stim	stop-signal	103	309818	0.0-9.0-1.0	beast_fmri_test	359	307548,/,308227,/,308908,/,309587,/,310268,/,310947,/,311625,/,312305,/,312987,/,313666,/,314346,/	t,t,t,t,t,t,t,t,t,t,t	<img class = center src='/static/experiments/beast_fmri_test/images/D.png'></img>	89,71	2750.0	test	<img class = center src='/static/experiments/beast_fmri_test/images/redD.png'></img>	go	-1.0	2.0	0.0	go	temp-non-target	D	89,Middle Finger	71,Index Finger	750.0	700.0	2000.0	2000.0	0.0	n/a	n/a	n/a	ITI
234119	500	n/a	-1	-1	500	0.0	fixation	poldrack-single-stim	104	315333	0.0-9.1-0.1	beast_fmri_test	359	315025,/	t	<div class = centerbox2><div class = fixation>+</div></div>	none	500.0	test	n/a	n/a	n/a	n/a	n/a	n/a	n/a	n/a	n/a	n/a	n/a	n/a	n/a	n/a	n/a	n/a	n/a	n/a	fixation
232535.35528821725	2750	n/a	1032	71	2750	1585.64471178	stim	stop-signal	105	318085	0.0-9.1-1.1	beast_fmri_test	359	315705,/,316384,/,317064,/,317744,/,318425,/,319104,/	t,t,t,t,t,t	<img class = center src='/static/experiments/beast_fmri_test/images/D.png'></img>	89,71	2750.0	test	<img class = center src='/static/experiments/beast_fmri_test/images/redD.png'></img>	go	-1.0	2.0	1.0	go	temp-non-target	D	89,Middle Finger	71,Index Finger	750.0	700.0	2000.0	2000.0	0.0	n/a	n/a	n/a	go_stim
235285.35528821725	1585.644711782764	n/a	1032	71	2750	1585.64471178	stim	stop-signal	105	318085	0.0-9.1-1.1	beast_fmri_test	359	315705,/,316384,/,317064,/,317744,/,318425,/,319104,/	t,t,t,t,t,t	<img class = center src='/static/experiments/beast_fmri_test/images/D.png'></img>	89,71	2750.0	test	<img class = center src='/static/experiments/beast_fmri_test/images/redD.png'></img>	go	-1.0	2.0	1.0	go	temp-non-target	D	89,Middle Finger	71,Index Finger	750.0	700.0	2000.0	2000.0	0.0	n/a	n/a	n/a	ITI
238972	500	n/a	-1	-1	500	0.0	fixation	poldrack-single-stim	106	320186	0.0-9.2-0.2	beast_fmri_test	359	319784,/	t	<div class = centerbox2><div class = fixation>+</div></div>	none	500.0	test	n/a	n/a	n/a	n/a	n/a	n/a	n/a	n/a	n/a	n/a	n/a	n/a	n/a	n/a	n/a	n/a	n/a	n/a	fixation
238768.11306607281	2750	n/a	843	89	2750	205.886933927	stim	stop-signal	107	322938	0.0-9.2-1.2	beast_fmri_test	359	320464,/,321142,/,321823,/,322503,/	t,t,t,t	<img class = center src='/static/experiments/beast_fmri_test/images/D.png'></img>	89,71	2750.0	test	<img class = center src='/static/experiments/beast_fmri_test/images/redD.png'></img>	go	2000.0	2.0	2.0	go	target	D	89,Middle Finger	71,Index Finger	750.0	700.0	2000.0	2000.0	1.0	n/a	750.0	1.0	go_stim
241518.11306607281	205.88693392718412	n/a	843	89	2750	205.886933927	stim	stop-signal	107	322938	0.0-9.2-1.2	beast_fmri_test	359	320464,/,321142,/,321823,/,322503,/	t,t,t,t	<img class = center src='/static/experiments/beast_fmri_test/images/D.png'></img>	89,71	2750.0	test	<img class = center src='/static/experiments/beast_fmri_test/images/redD.png'></img>	go	2000.0	2.0	2.0	go	target	D	89,Middle Finger	71,Index Finger	750.0	700.0	2000.0	2000.0	1.0	n/a	750.0	1.0	ITI
242447	500	n/a	-1	-1	500	0.0	fixation	poldrack-single-stim	108	323661	0.0-9.3-0.3	beast_fmri_test	359	323182,/	t	<div class = centerbox2><div class = fixation>+</div></div>	none	500.0	test	n/a	n/a	n/a	n/a	n/a	n/a	n/a	n/a	n/a	n/a	n/a	n/a	n/a	n/a	n/a	n/a	n/a	n/a	fixation
242349.12648712815	700.0	n/a	1085	71	2750	100.873512872	stim	stop-signal	109	326414	0.0-9.3-1.3	beast_fmri_test	359	323862,/,324542,/,325220,/,325900,/	t,t,t,t	<img class = center src='/static/experiments/beast_fmri_test/images/T.png'></img>	89,71	2750.0	test	<img class = center src='/static/experiments/beast_fmri_test/images/redT.png'></img>	stop	2050.0	2.0	3.0	stop	non-target	T	89,Middle Finger	71,Index Finger	750.0	700.0	2000.0	2050.0	0.0	0.0	700.0	n/a	go_stim
244399.12648712815	2050.0	n/a	1085	71	2750	100.873512872	stim	stop-signal	109	326414	0.0-9.3-1.3	beast_fmri_test	359	323862,/,324542,/,325220,/,325900,/	t,t,t,t	<img class = center src='/static/experiments/beast_fmri_test/images/T.png'></img>	89,71	2750.0	test	<img class = center src='/static/experiments/beast_fmri_test/images/redT.png'></img>	stop	2050.0	2.0	3.0	stop	non-target	T	89,Middle Finger	71,Index Finger	750.0	700.0	2000.0	2050.0	0.0	0.0	700.0	n/a	stop_stim
245099.12648712815	100.87351287182908	n/a	1085	71	2750	100.873512872	stim	stop-signal	109	326414	0.0-9.3-1.3	beast_fmri_test	359	323862,/,324542,/,325220,/,325900,/	t,t,t,t	<img class = center src='/static/experiments/beast_fmri_test/images/T.png'></img>	89,71	2750.0	test	<img class = center src='/static/experiments/beast_fmri_test/images/redT.png'></img>	stop	2050.0	2.0	3.0	stop	non-target	T	89,Middle Finger	71,Index Finger	750.0	700.0	2000.0	2050.0	0.0	0.0	700.0	n/a	ITI
245820	500	n/a	-1	-1	500	0.0	fixation	poldrack-single-stim	110	327034	0.0-9.4-0.4	beast_fmri_test	359	326579,/	t	<div class = centerbox2><div class = fixation>+</div></div>	none	500.0	test	n/a	n/a	n/a	n/a	n/a	n/a	n/a	n/a	n/a	n/a	n/a	n/a	n/a	n/a	n/a	n/a	n/a	n/a	fixation
245597.35553694388	2750	n/a	1030	71	2750	222.644463056	stim	stop-signal	111	329784	0.0-9.4-1.4	beast_fmri_test	359	327261,/,327940,/,328619,/,329299,/,329978,/	t,t,t,t,t	<img class = center src='/static/experiments/beast_fmri_test/images/D.png'></img>	89,71	2750.0	test	<img class = center src='/static/experiments/beast_fmri_test/images/redD.png'></img>	go	2000.0	2.0	4.0	go	target	D	89,Middle Finger	71,Index Finger	750.0	650.0	2000.0	2050.0	0.0	n/a	750.0	0.0	go_stim
248347.35553694388	222.64446305613404	n/a	1030	71	2750	222.644463056	stim	stop-signal	111	329784	0.0-9.4-1.4	beast_fmri_test	359	327261,/,327940,/,328619,/,329299,/,329978,/	t,t,t,t,t	<img class = center src='/static/experiments/beast_fmri_test/images/D.png'></img>	89,71	2750.0	test	<img class = center src='/static/experiments/beast_fmri_test/images/redD.png'></img>	go	2000.0	2.0	4.0	go	target	D	89,Middle Finger	71,Index Finger	750.0	650.0	2000.0	2050.0	0.0	n/a	750.0	0.0	ITI
249309	500	n/a	-1	-1	500	0.0	fixation	poldrack-single-stim	112	330523	0.0-9.5-0.5	beast_fmri_test	359	n/a	n/a	<div class = centerbox2><div class = fixation>+</div></div>	none	500.0	test	n/a	n/a	n/a	n/a	n/a	n/a	n/a	n/a	n/a	n/a	n/a	n/a	n/a	n/a	n/a	n/a	n/a	n/a	fixation
249232.64745145454	2750	n/a	1179	71	2750	77.3525485454	stim	stop-signal	113	333274	0.0-9.5-1.5	beast_fmri_test	359	330657,/,331339,/,332018,/,332698,/	t,t,t,t	<img class = center src='/static/experiments/beast_fmri_test/images/V.png'></img>	89,71	2750.0	test	<img class = center src='/static/experiments/beast_fmri_test/images/redV.png'></img>	go	2100.0	2.0	5.0	go	non-target	V	89,Middle Finger	71,Index Finger	750.0	650.0	2000.0	2100.0	1.0	n/a	650.0	1.0	go_stim
251982.64745145454	77.35254854544506	n/a	1179	71	2750	77.3525485454	stim	stop-signal	113	333274	0.0-9.5-1.5	beast_fmri_test	359	330657,/,331339,/,332018,/,332698,/	t,t,t,t	<img class = center src='/static/experiments/beast_fmri_test/images/V.png'></img>	89,71	2750.0	test	<img class = center src='/static/experiments/beast_fmri_test/images/redV.png'></img>	go	2100.0	2.0	5.0	go	non-target	V	89,Middle Finger	71,Index Finger	750.0	650.0	2000.0	2100.0	1.0	n/a	650.0	1.0	ITI
252656	500	n/a	-1	-1	500	0.0	fixation	poldrack-single-stim	114	333870	0.0-9.6-0.6	beast_fmri_test	359	333377,/	t	<div class = centerbox2><div class = fixation>+</div></div>	none	500.0	test	n/a	n/a	n/a	n/a	n/a	n/a	n/a	n/a	n/a	n/a	n/a	n/a	n/a	n/a	n/a	n/a	n/a	n/a	fixation
252463.67378161353	2750	n/a	992	71	2750	193.326218386	stim	stop-signal	115	336621	0.0-9.6-1.6	beast_fmri_test	359	334057,/,334735,/,335416,/,336095,/,336774,/	t,t,t,t,t	<img class = center src='/static/experiments/beast_fmri_test/images/B.png'></img>	89,71	2750.0	test	<img class = center src='/static/experiments/beast_fmri_test/images/redB.png'></img>	go	2100.0	2.0	6.0	go	non-target	B	89,Middle Finger	71,Index Finger	750.0	650.0	2000.0	2100.0	1.0	n/a	650.0	1.0	go_stim
255213.67378161353	193.3262183864706	n/a	992	71	2750	193.326218386	stim	stop-signal	115	336621	0.0-9.6-1.6	beast_fmri_test	359	334057,/,334735,/,335416,/,336095,/,336774,/	t,t,t,t,t	<img class = center src='/static/experiments/beast_fmri_test/images/B.png'></img>	89,71	2750.0	test	<img class = center src='/static/experiments/beast_fmri_test/images/redB.png'></img>	go	2100.0	2.0	6.0	go	non-target	B	89,Middle Finger	71,Index Finger	750.0	650.0	2000.0	2100.0	1.0	n/a	650.0	1.0	ITI
256120	500	n/a	-1	-1	500	0.0	fixation	poldrack-single-stim	116	337334	0.0-9.7-0.7	beast_fmri_test	359	n/a	n/a	<div class = centerbox2><div class = fixation>+</div></div>	none	500.0	test	n/a	n/a	n/a	n/a	n/a	n/a	n/a	n/a	n/a	n/a	n/a	n/a	n/a	n/a	n/a	n/a	n/a	n/a	fixation
255606.5133186251	750.0	n/a	981	89	2750	514.486681375	stim	stop-signal	117	340085	0.0-9.7-1.7	beast_fmri_test	359	337455,/,338135,/,338814,/,339493,/,340172,/	t,t,t,t,t	<img class = center src='/static/experiments/beast_fmri_test/images/V.png'></img>	89,71	2750.0	test	<img class = center src='/static/experiments/beast_fmri_test/images/redV.png'></img>	stop	2000.0	2.0	7.0	stop	target	V	89,Middle Finger	71,Index Finger	750.0	650.0	2000.0	2100.0	0.0	0.0	750.0	n/a	go_stim
257606.5133186251	2000.0	n/a	981	89	2750	514.486681375	stim	stop-signal	117	340085	0.0-9.7-1.7	beast_fmri_test	359	337455,/,338135,/,338814,/,339493,/,340172,/	t,t,t,t,t	<img class = center src='/static/experiments/beast_fmri_test/images/V.png'></img>	89,71	2750.0	test	<img class = center src='/static/experiments/beast_fmri_test/images/redV.png'></img>	stop	2000.0	2.0	7.0	stop	target	V	89,Middle Finger	71,Index Finger	750.0	650.0	2000.0	2100.0	0.0	0.0	750.0	n/a	stop_stim
258356.5133186251	514.48668137489517	n/a	981	89	2750	514.486681375	stim	stop-signal	117	340085	0.0-9.7-1.7	beast_fmri_test	359	337455,/,338135,/,338814,/,339493,/,340172,/	t,t,t,t,t	<img class = center src='/static/experiments/beast_fmri_test/images/V.png'></img>	89,71	2750.0	test	<img class = center src='/static/experiments/beast_fmri_test/images/redV.png'></img>	stop	2000.0	2.0	7.0	stop	target	V	89,Middle Finger	71,Index Finger	750.0	650.0	2000.0	2100.0	0.0	0.0	750.0	n/a	ITI
259905	500	n/a	-1	-1	500	0.0	fixation	poldrack-single-stim	118	341119	0.0-9.8-0.8	beast_fmri_test	359	340852,/	t	<div class = centerbox2><div class = fixation>+</div></div>	none	500.0	test	n/a	n/a	n/a	n/a	n/a	n/a	n/a	n/a	n/a	n/a	n/a	n/a	n/a	n/a	n/a	n/a	n/a	n/a	fixation
257567.60516643216	2750	n/a	984	71	2750	2340.39483357	stim	stop-signal	119	343872	0.0-9.8-1.8	beast_fmri_test	359	341534,/,342213,/,342892,/,343573,/,344252,/,344933,/,345610,/	t,t,t,t,t,t,t	<img class = center src='/static/experiments/beast_fmri_test/images/V.png'></img>	89,71	2750.0	test	<img class = center src='/static/experiments/beast_fmri_test/images/redV.png'></img>	go	2100.0	2.0	8.0	go	non-target	V	89,Middle Finger	71,Index Finger	700.0	650.0	2000.0	2100.0	1.0	n/a	650.0	1.0	go_stim
260317.60516643216	2340.3948335678533	n/a	984	71	2750	2340.39483357	stim	stop-signal	119	343872	0.0-9.8-1.8	beast_fmri_test	359	341534,/,342213,/,342892,/,343573,/,344252,/,344933,/,345610,/	t,t,t,t,t,t,t	<img class = center src='/static/experiments/beast_fmri_test/images/V.png'></img>	89,71	2750.0	test	<img class = center src='/static/experiments/beast_fmri_test/images/redV.png'></img>	go	2100.0	2.0	8.0	go	non-target	V	89,Middle Finger	71,Index Finger	700.0	650.0	2000.0	2100.0	1.0	n/a	650.0	1.0	ITI
265516	500	n/a	-1	-1	500	0.0	fixation	poldrack-single-stim	120	346730	0.0-9.9-0.9	beast_fmri_test	359	346293,/	t	<div class = centerbox2><div class = fixation>+</div></div>	none	500.0	test	n/a	n/a	n/a	n/a	n/a	n/a	n/a	n/a	n/a	n/a	n/a	n/a	n/a	n/a	n/a	n/a	n/a	n/a	fixation
264105.1312067018	2750	n/a	1019	71	2750	1413.8687933	stim	stop-signal	121	349483	0.0-9.9-1.9	beast_fmri_test	359	346972,/,347651,/,348330,/,349009,/,349690,/,350370,/	t,t,t,t,t,t	<img class = center src='/static/experiments/beast_fmri_test/images/T.png'></img>	89,71	2750.0	test	<img class = center src='/static/experiments/beast_fmri_test/images/redT.png'></img>	go	2100.0	2.0	9.0	go	non-target	T	89,Middle Finger	71,Index Finger	700.0	650.0	2000.0	2100.0	1.0	n/a	650.0	1.0	go_stim
266855.1312067018	1413.8687932982041	n/a	1019	71	2750	1413.8687933	stim	stop-signal	121	349483	0.0-9.9-1.9	beast_fmri_test	359	346972,/,347651,/,348330,/,349009,/,349690,/,350370,/	t,t,t,t,t,t	<img class = center src='/static/experiments/beast_fmri_test/images/T.png'></img>	89,71	2750.0	test	<img class = center src='/static/experiments/beast_fmri_test/images/redT.png'></img>	go	2100.0	2.0	9.0	go	non-target	T	89,Middle Finger	71,Index Finger	700.0	650.0	2000.0	2100.0	1.0	n/a	650.0	1.0	ITI
270201	500	n/a	-1	-1	500	0.0	fixation	poldrack-single-stim	122	351415	0.0-9.10-0.10	beast_fmri_test	359	351050,/	t	<div class = centerbox2><div class = fixation>+</div></div>	none	500.0	test	n/a	n/a	n/a	n/a	n/a	n/a	n/a	n/a	n/a	n/a	n/a	n/a	n/a	n/a	n/a	n/a	n/a	n/a	fixation
270012.98428840481	2750	n/a	785	89	2750	190.015711595	stim	stop-signal	123	354167	0.0-9.10-1.10	beast_fmri_test	359	351728,/,352408,/,353087,/,353767,/	t,t,t,t	<img class = center src='/static/experiments/beast_fmri_test/images/V.png'></img>	89,71	2750.0	test	<img class = center src='/static/experiments/beast_fmri_test/images/redV.png'></img>	go	2050.0	2.0	10.0	go	target	V	89,Middle Finger	71,Index Finger	700.0	650.0	2050.0	2100.0	1.0	n/a	700.0	1.0	go_stim
272762.98428840481	190.01571159519278	n/a	785	89	2750	190.015711595	stim	stop-signal	123	354167	0.0-9.10-1.10	beast_fmri_test	359	351728,/,352408,/,353087,/,353767,/	t,t,t,t	<img class = center src='/static/experiments/beast_fmri_test/images/V.png'></img>	89,71	2750.0	test	<img class = center src='/static/experiments/beast_fmri_test/images/redV.png'></img>	go	2050.0	2.0	10.0	go	target	V	89,Middle Finger	71,Index Finger	700.0	650.0	2050.0	2100.0	1.0	n/a	700.0	1.0	ITI
273664	500	n/a	-1	-1	500	0.0	fixation	poldrack-single-stim	124	354878	0.0-9.11-0.11	beast_fmri_test	359	354447,/	t	<div class = centerbox2><div class = fixation>+</div></div>	none	500.0	test	n/a	n/a	n/a	n/a	n/a	n/a	n/a	n/a	n/a	n/a	n/a	n/a	n/a	n/a	n/a	n/a	n/a	n/a	fixation
270846.88967231207	2750	n/a	879	71	2750	2819.11032769	stim	stop-signal	125	357630	0.0-9.11-1.11	beast_fmri_test	359	355128,/,355807,/,356487,/,357166,/,357846,/,358525,/,359205,/,359885,/	t,t,t,t,t,t,t,t	<img class = center src='/static/experiments/beast_fmri_test/images/D.png'></img>	89,71	2750.0	test	<img class = center src='/static/experiments/beast_fmri_test/images/redD.png'></img>	go	2100.0	2.0	11.0	go	non-target	D	89,Middle Finger	71,Index Finger	700.0	650.0	2050.0	2100.0	1.0	n/a	650.0	1.0	go_stim
273596.88967231207	2819.1103276879217	n/a	879	71	2750	2819.11032769	stim	stop-signal	125	357630	0.0-9.11-1.11	beast_fmri_test	359	355128,/,355807,/,356487,/,357166,/,357846,/,358525,/,359205,/,359885,/	t,t,t,t,t,t,t,t	<img class = center src='/static/experiments/beast_fmri_test/images/D.png'></img>	89,71	2750.0	test	<img class = center src='/static/experiments/beast_fmri_test/images/redD.png'></img>	go	2100.0	2.0	11.0	go	non-target	D	89,Middle Finger	71,Index Finger	700.0	650.0	2050.0	2100.0	1.0	n/a	650.0	1.0	ITI
279754	500	n/a	-1	-1	500	0.0	fixation	poldrack-single-stim	126	360968	0.0-9.12-0.12	beast_fmri_test	359	360564,/	t	<div class = centerbox2><div class = fixation>+</div></div>	none	500.0	test	n/a	n/a	n/a	n/a	n/a	n/a	n/a	n/a	n/a	n/a	n/a	n/a	n/a	n/a	n/a	n/a	n/a	n/a	fixation
279453.96638056339	2750	n/a	914	71	2750	303.033619437	stim	stop-signal	127	363721	0.0-9.12-1.12	beast_fmri_test	359	361244,/,361924,/,362602,/,363282,/,363962,/	t,t,t,t,t	<img class = center src='/static/experiments/beast_fmri_test/images/D.png'></img>	89,71	2750.0	test	<img class = center src='/static/experiments/beast_fmri_test/images/redD.png'></img>	go	2100.0	2.0	12.0	go	non-target	D	89,Middle Finger	71,Index Finger	700.0	650.0	2050.0	2100.0	1.0	n/a	650.0	1.0	go_stim
282203.96638056339	303.03361943659769	n/a	914	71	2750	303.033619437	stim	stop-signal	127	363721	0.0-9.12-1.12	beast_fmri_test	359	361244,/,361924,/,362602,/,363282,/,363962,/	t,t,t,t,t	<img class = center src='/static/experiments/beast_fmri_test/images/D.png'></img>	89,71	2750.0	test	<img class = center src='/static/experiments/beast_fmri_test/images/redD.png'></img>	go	2100.0	2.0	12.0	go	non-target	D	89,Middle Finger	71,Index Finger	700.0	650.0	2050.0	2100.0	1.0	n/a	650.0	1.0	ITI
283331	500	n/a	-1	-1	500	0.0	fixation	poldrack-single-stim	128	364545	0.0-9.13-0.13	beast_fmri_test	359	n/a	n/a	<div class = centerbox2><div class = fixation>+</div></div>	none	500.0	test	n/a	n/a	n/a	n/a	n/a	n/a	n/a	n/a	n/a	n/a	n/a	n/a	n/a	n/a	n/a	n/a	n/a	n/a	fixation
283022.19686584	650.0	n/a	-1	-1	2750	311.80313416	stim	stop-signal	129	367298	0.0-9.13-1.13	beast_fmri_test	359	364641,/,365323,/,366002,/,366681,/,367360,/	t,t,t,t,t	<img class = center src='/static/experiments/beast_fmri_test/images/P.png'></img>	89,71	2750.0	test	<img class = center src='/static/experiments/beast_fmri_test/images/redP.png'></img>	stop	2100.0	2.0	13.0	stop	non-target	P	89,Middle Finger	71,Index Finger	700.0	650.0	2050.0	2100.0	0.0	1.0	650.0	n/a	go_stim
285122.19686584	2100.0	n/a	-1	-1	2750	311.80313416	stim	stop-signal	129	367298	0.0-9.13-1.13	beast_fmri_test	359	364641,/,365323,/,366002,/,366681,/,367360,/	t,t,t,t,t	<img class = center src='/static/experiments/beast_fmri_test/images/P.png'></img>	89,71	2750.0	test	<img class = center src='/static/experiments/beast_fmri_test/images/redP.png'></img>	stop	2100.0	2.0	13.0	stop	non-target	P	89,Middle Finger	71,Index Finger	700.0	650.0	2050.0	2100.0	0.0	1.0	650.0	n/a	stop_stim
285772.19686584	311.80313415997222	n/a	-1	-1	2750	311.80313416	stim	stop-signal	129	367298	0.0-9.13-1.13	beast_fmri_test	359	364641,/,365323,/,366002,/,366681,/,367360,/	t,t,t,t,t	<img class = center src='/static/experiments/beast_fmri_test/images/P.png'></img>	89,71	2750.0	test	<img class = center src='/static/experiments/beast_fmri_test/images/redP.png'></img>	stop	2100.0	2.0	13.0	stop	non-target	P	89,Middle Finger	71,Index Finger	700.0	650.0	2050.0	2100.0	0.0	1.0	650.0	n/a	ITI
286917	500	n/a	-1	-1	500	0.0	fixation	poldrack-single-stim	130	368131	0.0-9.14-0.14	beast_fmri_test	359	368040,/	t	<div class = centerbox2><div class = fixation>+</div></div>	none	500.0	test	n/a	n/a	n/a	n/a	n/a	n/a	n/a	n/a	n/a	n/a	n/a	n/a	n/a	n/a	n/a	n/a	n/a	n/a	fixation
285456.45466200082	700.0	n/a	-1	-1	2750	1462.545338	stim	stop-signal	131	370883	0.0-9.14-1.14	beast_fmri_test	359	368719,/,369399,/,370079,/,370760,/,371439,/,372118,/	t,t,t,t,t,t	<img class = center src='/static/experiments/beast_fmri_test/images/D.png'></img>	89,71	2750.0	test	<img class = center src='/static/experiments/beast_fmri_test/images/redD.png'></img>	stop	2050.0	2.0	14.0	stop	target	D	89,Middle Finger	71,Index Finger	700.0	700.0	2050.0	2100.0	0.0	1.0	700.0	n/a	go_stim
287506.45466200082	2050.0	n/a	-1	-1	2750	1462.545338	stim	stop-signal	131	370883	0.0-9.14-1.14	beast_fmri_test	359	368719,/,369399,/,370079,/,370760,/,371439,/,372118,/	t,t,t,t,t,t	<img class = center src='/static/experiments/beast_fmri_test/images/D.png'></img>	89,71	2750.0	test	<img class = center src='/static/experiments/beast_fmri_test/images/redD.png'></img>	stop	2050.0	2.0	14.0	stop	target	D	89,Middle Finger	71,Index Finger	700.0	700.0	2050.0	2100.0	0.0	1.0	700.0	n/a	stop_stim
288206.45466200082	1462.5453379991711	n/a	-1	-1	2750	1462.545338	stim	stop-signal	131	370883	0.0-9.14-1.14	beast_fmri_test	359	368719,/,369399,/,370079,/,370760,/,371439,/,372118,/	t,t,t,t,t,t	<img class = center src='/static/experiments/beast_fmri_test/images/D.png'></img>	89,71	2750.0	test	<img class = center src='/static/experiments/beast_fmri_test/images/redD.png'></img>	stop	2050.0	2.0	14.0	stop	target	D	89,Middle Finger	71,Index Finger	700.0	700.0	2050.0	2100.0	0.0	1.0	700.0	n/a	ITI
291651	500	n/a	-1	-1	500	0.0	fixation	poldrack-single-stim	132	372865	0.0-9.15-0.15	beast_fmri_test	359	372798,/	t	<div class = centerbox2><div class = fixation>+</div></div>	none	500.0	test	n/a	n/a	n/a	n/a	n/a	n/a	n/a	n/a	n/a	n/a	n/a	n/a	n/a	n/a	n/a	n/a	n/a	n/a	fixation
290988.90163411526	2750	n/a	1048	71	2750	665.098365885	stim	stop-signal	133	375618	0.0-9.15-1.15	beast_fmri_test	359	373477,/,374156,/,374838,/,375518,/,376198,/	t,t,t,t,t	<img class = center src='/static/experiments/beast_fmri_test/images/D.png'></img>	89,71	2750.0	test	<img class = center src='/static/experiments/beast_fmri_test/images/redD.png'></img>	go	2050.0	2.0	15.0	go	non-target	D	89,Middle Finger	71,Index Finger	750.0	700.0	2050.0	2050.0	1.0	n/a	700.0	1.0	go_stim
293738.90163411526	665.09836588474468	n/a	1048	71	2750	665.098365885	stim	stop-signal	133	375618	0.0-9.15-1.15	beast_fmri_test	359	373477,/,374156,/,374838,/,375518,/,376198,/	t,t,t,t,t	<img class = center src='/static/experiments/beast_fmri_test/images/D.png'></img>	89,71	2750.0	test	<img class = center src='/static/experiments/beast_fmri_test/images/redD.png'></img>	go	2050.0	2.0	15.0	go	non-target	D	89,Middle Finger	71,Index Finger	750.0	700.0	2050.0	2050.0	1.0	n/a	700.0	1.0	ITI
295591	500	n/a	-1	-1	500	0.0	fixation	poldrack-single-stim	134	376805	0.0-9.16-0.16	beast_fmri_test	359	n/a	n/a	<div class = centerbox2><div class = fixation>+</div></div>	none	500.0	test	n/a	n/a	n/a	n/a	n/a	n/a	n/a	n/a	n/a	n/a	n/a	n/a	n/a	n/a	n/a	n/a	n/a	n/a	fixation
292199.38112282456	2750	n/a	1675	89	2750	3392.61887718	stim	stop-signal	135	379556	0.0-9.16-1.16	beast_fmri_test	359	376877,/,377557,/,378236,/,378917,/,379595,/,380275,/,380955,/,381635,/,382315,/	t,t,t,t,t,t,t,t,t	<img class = center src='/static/experiments/beast_fmri_test/images/P.png'></img>	89,71	2750.0	test	<img class = center src='/static/experiments/beast_fmri_test/images/redP.png'></img>	go	2050.0	2.0	16.0	go	non-target	P	89,Middle Finger	71,Index Finger	750.0	700.0	2050.0	2050.0	0.0	n/a	700.0	0.0	go_stim
294949.38112282456	3392.6188771754523	n/a	1675	89	2750	3392.61887718	stim	stop-signal	135	379556	0.0-9.16-1.16	beast_fmri_test	359	376877,/,377557,/,378236,/,378917,/,379595,/,380275,/,380955,/,381635,/,382315,/	t,t,t,t,t,t,t,t,t	<img class = center src='/static/experiments/beast_fmri_test/images/P.png'></img>	89,71	2750.0	test	<img class = center src='/static/experiments/beast_fmri_test/images/redP.png'></img>	go	2050.0	2.0	16.0	go	non-target	P	89,Middle Finger	71,Index Finger	750.0	700.0	2050.0	2050.0	0.0	n/a	700.0	0.0	ITI
302251	500	n/a	-1	-1	500	0.0	fixation	poldrack-single-stim	136	383465	0.0-9.17-0.17	beast_fmri_test	359	382993,/	t	<div class = centerbox2><div class = fixation>+</div></div>	none	500.0	test	n/a	n/a	n/a	n/a	n/a	n/a	n/a	n/a	n/a	n/a	n/a	n/a	n/a	n/a	n/a	n/a	n/a	n/a	fixation
302057.20203729882	2750	n/a	1226	71	2750	194.797962701	stim	stop-signal	137	386216	0.0-9.17-1.17	beast_fmri_test	359	383673,/,384353,/,385033,/,385712,/,386392,/	t,t,t,t,t	<img class = center src='/static/experiments/beast_fmri_test/images/T.png'></img>	89,71	2750.0	test	<img class = center src='/static/experiments/beast_fmri_test/images/redT.png'></img>	go	2050.0	2.0	17.0	go	non-target	T	89,Middle Finger	71,Index Finger	750.0	700.0	2050.0	2050.0	1.0	n/a	700.0	1.0	go_stim
304807.20203729882	194.79796270119675	n/a	1226	71	2750	194.797962701	stim	stop-signal	137	386216	0.0-9.17-1.17	beast_fmri_test	359	383673,/,384353,/,385033,/,385712,/,386392,/	t,t,t,t,t	<img class = center src='/static/experiments/beast_fmri_test/images/T.png'></img>	89,71	2750.0	test	<img class = center src='/static/experiments/beast_fmri_test/images/redT.png'></img>	go	2050.0	2.0	17.0	go	non-target	T	89,Middle Finger	71,Index Finger	750.0	700.0	2050.0	2050.0	1.0	n/a	700.0	1.0	ITI
305715	500	n/a	-1	-1	500	0.0	fixation	poldrack-single-stim	138	386929	0.0-9.18-0.18	beast_fmri_test	359	n/a	n/a	<div class = centerbox2><div class = fixation>+</div></div>	none	500.0	test	n/a	n/a	n/a	n/a	n/a	n/a	n/a	n/a	n/a	n/a	n/a	n/a	n/a	n/a	n/a	n/a	n/a	n/a	fixation
305066.51810747845	700.0	n/a	-1	-1	2750	649.481892522	stim	stop-signal	139	389680	0.0-9.18-1.18	beast_fmri_test	359	387072,/,387752,/,388432,/,389112,/,389791,/	t,t,t,t,t	<img class = center src='/static/experiments/beast_fmri_test/images/D.png'></img>	89,71	2750.0	test	<img class = center src='/static/experiments/beast_fmri_test/images/redD.png'></img>	stop	2050.0	2.0	18.0	stop	non-target	D	89,Middle Finger	71,Index Finger	750.0	700.0	2050.0	2050.0	0.0	1.0	700.0	n/a	go_stim
307116.51810747845	2050.0	n/a	-1	-1	2750	649.481892522	stim	stop-signal	139	389680	0.0-9.18-1.18	beast_fmri_test	359	387072,/,387752,/,388432,/,389112,/,389791,/	t,t,t,t,t	<img class = center src='/static/experiments/beast_fmri_test/images/D.png'></img>	89,71	2750.0	test	<img class = center src='/static/experiments/beast_fmri_test/images/redD.png'></img>	stop	2050.0	2.0	18.0	stop	non-target	D	89,Middle Finger	71,Index Finger	750.0	700.0	2050.0	2050.0	0.0	1.0	700.0	n/a	stop_stim
307816.51810747845	649.48189252152736	n/a	-1	-1	2750	649.481892522	stim	stop-signal	139	389680	0.0-9.18-1.18	beast_fmri_test	359	387072,/,387752,/,388432,/,389112,/,389791,/	t,t,t,t,t	<img class = center src='/static/experiments/beast_fmri_test/images/D.png'></img>	89,71	2750.0	test	<img class = center src='/static/experiments/beast_fmri_test/images/redD.png'></img>	stop	2050.0	2.0	18.0	stop	non-target	D	89,Middle Finger	71,Index Finger	750.0	700.0	2050.0	2050.0	0.0	1.0	700.0	n/a	ITI
309634	500	n/a	-1	-1	500	0.0	fixation	poldrack-single-stim	140	390848	0.0-9.19-0.19	beast_fmri_test	359	390471,/	t	<div class = centerbox2><div class = fixation>+</div></div>	none	500.0	test	n/a	n/a	n/a	n/a	n/a	n/a	n/a	n/a	n/a	n/a	n/a	n/a	n/a	n/a	n/a	n/a	n/a	n/a	fixation
308888.8922726037	2750	n/a	1108	89	2750	746.107727396	stim	stop-signal	141	393599	0.0-9.19-1.19	beast_fmri_test	359	391150,/,391830,/,392510,/,393189,/,393868,/	t,t,t,t,t	<img class = center src='/static/experiments/beast_fmri_test/images/P.png'></img>	89,71	2750.0	test	<img class = center src='/static/experiments/beast_fmri_test/images/redP.png'></img>	go	2000.0	2.0	19.0	go	non-target	P	89,Middle Finger	71,Index Finger	750.0	750.0	2050.0	2000.0	0.0	n/a	750.0	0.0	go_stim
311638.8922726037	746.10772739628646	n/a	1108	89	2750	746.107727396	stim	stop-signal	141	393599	0.0-9.19-1.19	beast_fmri_test	359	391150,/,391830,/,392510,/,393189,/,393868,/	t,t,t,t,t	<img class = center src='/static/experiments/beast_fmri_test/images/P.png'></img>	89,71	2750.0	test	<img class = center src='/static/experiments/beast_fmri_test/images/redP.png'></img>	go	2000.0	2.0	19.0	go	non-target	P	89,Middle Finger	71,Index Finger	750.0	750.0	2050.0	2000.0	0.0	n/a	750.0	0.0	ITI
313655	500	n/a	-1	-1	500	0.0	fixation	poldrack-single-stim	142	394869	0.0-9.20-0.20	beast_fmri_test	359	394548,/	t	<div class = centerbox2><div class = fixation>+</div></div>	none	500.0	test	n/a	n/a	n/a	n/a	n/a	n/a	n/a	n/a	n/a	n/a	n/a	n/a	n/a	n/a	n/a	n/a	n/a	n/a	fixation
312857.63632027444	2750	n/a	1646	71	2750	798.363679726	stim	stop-signal	143	397620	0.0-9.20-1.20	beast_fmri_test	359	395229,/,395907,/,396586,/,397268,/,397946,/	t,t,t,t,t	<img class = center src='/static/experiments/beast_fmri_test/images/B.png'></img>	89,71	2750.0	test	<img class = center src='/static/experiments/beast_fmri_test/images/redB.png'></img>	go	2000.0	2.0	20.0	go	non-target	B	89,Middle Finger	71,Index Finger	750.0	750.0	2050.0	2000.0	1.0	n/a	750.0	1.0	go_stim
315607.63632027444	798.36367972556627	n/a	1646	71	2750	798.363679726	stim	stop-signal	143	397620	0.0-9.20-1.20	beast_fmri_test	359	395229,/,395907,/,396586,/,397268,/,397946,/	t,t,t,t,t	<img class = center src='/static/experiments/beast_fmri_test/images/B.png'></img>	89,71	2750.0	test	<img class = center src='/static/experiments/beast_fmri_test/images/redB.png'></img>	go	2000.0	2.0	20.0	go	non-target	B	89,Middle Finger	71,Index Finger	750.0	750.0	2050.0	2000.0	1.0	n/a	750.0	1.0	ITI
317726	500	n/a	-1	-1	500	0.0	fixation	poldrack-single-stim	144	398940	0.0-9.21-0.21	beast_fmri_test	359	398626,/	t	<div class = centerbox2><div class = fixation>+</div></div>	none	500.0	test	n/a	n/a	n/a	n/a	n/a	n/a	n/a	n/a	n/a	n/a	n/a	n/a	n/a	n/a	n/a	n/a	n/a	n/a	fixation
313416.79420994397	2750	n/a	1272	71	2750	4310.20579006	stim	stop-signal	145	401691	0.0-9.21-1.21	beast_fmri_test	359	399306,/,399985,/,400665,/,401345,/,402025,/,402705,/,403383,/,404064,/,404744,/,405424,/	t,t,t,t,t,t,t,t,t,t	<img class = center src='/static/experiments/beast_fmri_test/images/B.png'></img>	89,71	2750.0	test	<img class = center src='/static/experiments/beast_fmri_test/images/redB.png'></img>	go	2000.0	2.0	21.0	go	non-target	B	89,Middle Finger	71,Index Finger	750.0	750.0	2050.0	2000.0	1.0	n/a	750.0	1.0	go_stim
316166.79420994397	4310.2057900560339	n/a	1272	71	2750	4310.20579006	stim	stop-signal	145	401691	0.0-9.21-1.21	beast_fmri_test	359	399306,/,399985,/,400665,/,401345,/,402025,/,402705,/,403383,/,404064,/,404744,/,405424,/	t,t,t,t,t,t,t,t,t,t	<img class = center src='/static/experiments/beast_fmri_test/images/B.png'></img>	89,71	2750.0	test	<img class = center src='/static/experiments/beast_fmri_test/images/redB.png'></img>	go	2000.0	2.0	21.0	go	non-target	B	89,Middle Finger	71,Index Finger	750.0	750.0	2050.0	2000.0	1.0	n/a	750.0	1.0	ITI
325306	500	n/a	-1	-1	500	0.0	fixation	poldrack-single-stim	146	406520	0.0-9.22-0.22	beast_fmri_test	359	406103,/	t	<div class = centerbox2><div class = fixation>+</div></div>	none	500.0	test	n/a	n/a	n/a	n/a	n/a	n/a	n/a	n/a	n/a	n/a	n/a	n/a	n/a	n/a	n/a	n/a	n/a	n/a	fixation
324167.87414918689	2750	n/a	986	89	2750	1140.12585081	stim	stop-signal	147	409272	0.0-9.22-1.22	beast_fmri_test	359	406784,/,407463,/,408142,/,408823,/,409502,/,410181,/	t,t,t,t,t,t	<img class = center src='/static/experiments/beast_fmri_test/images/B.png'></img>	89,71	2750.0	test	<img class = center src='/static/experiments/beast_fmri_test/images/redB.png'></img>	go	2000.0	2.0	22.0	go	target	B	89,Middle Finger	71,Index Finger	750.0	750.0	2000.0	2000.0	1.0	n/a	750.0	1.0	go_stim
326917.87414918689	1140.1258508131025	n/a	986	89	2750	1140.12585081	stim	stop-signal	147	409272	0.0-9.22-1.22	beast_fmri_test	359	406784,/,407463,/,408142,/,408823,/,409502,/,410181,/	t,t,t,t,t,t	<img class = center src='/static/experiments/beast_fmri_test/images/B.png'></img>	89,71	2750.0	test	<img class = center src='/static/experiments/beast_fmri_test/images/redB.png'></img>	go	2000.0	2.0	22.0	go	target	B	89,Middle Finger	71,Index Finger	750.0	750.0	2000.0	2000.0	1.0	n/a	750.0	1.0	ITI
329719	500	n/a	-1	-1	500	0.0	fixation	poldrack-single-stim	148	410933	0.0-9.23-0.23	beast_fmri_test	359	410861,/	t	<div class = centerbox2><div class = fixation>+</div></div>	none	500.0	test	n/a	n/a	n/a	n/a	n/a	n/a	n/a	n/a	n/a	n/a	n/a	n/a	n/a	n/a	n/a	n/a	n/a	n/a	fixation
329060.20896263112	2750	n/a	911	71	2750	660.791037369	stim	stop-signal	149	413685	0.0-9.23-1.23	beast_fmri_test	359	411542,/,412221,/,412900,/,413579,/,414259,/	t,t,t,t,t	<img class = center src='/static/experiments/beast_fmri_test/images/P.png'></img>	89,71	2750.0	test	<img class = center src='/static/experiments/beast_fmri_test/images/redP.png'></img>	go	2000.0	2.0	23.0	go	non-target	P	89,Middle Finger	71,Index Finger	750.0	750.0	2000.0	2000.0	1.0	n/a	750.0	1.0	go_stim
331810.20896263112	660.79103736888862	n/a	911	71	2750	660.791037369	stim	stop-signal	149	413685	0.0-9.23-1.23	beast_fmri_test	359	411542,/,412221,/,412900,/,413579,/,414259,/	t,t,t,t,t	<img class = center src='/static/experiments/beast_fmri_test/images/P.png'></img>	89,71	2750.0	test	<img class = center src='/static/experiments/beast_fmri_test/images/redP.png'></img>	go	2000.0	2.0	23.0	go	non-target	P	89,Middle Finger	71,Index Finger	750.0	750.0	2000.0	2000.0	1.0	n/a	750.0	1.0	ITI
