onset	duration	text	rt	key_press	block_duration	timing_post_trial	trial_id	trial_type	trial_index	time_elapsed	internal_node_id	exp_id	subject_id	trigger_times	triggers	stimulus	possible_responses	stim_duration	exp_stage	SS_stimulus	SS_trial_type	SS_duration	load	trial_num	stop_trial_type	adaptive_trial_type	stim	yes_response_key	no_response_key	SSD_target	SSD_non_target	SSTarget	SSNonTarget	go_acc	stop_acc	SS_delay	adaptive_acc	new_trial_type
test	10880	n/a	-1	-1	10880	0.0	practice-no-stop-feedback	poldrack-single-stim	386	1093735	0.0-18.0	beast_fmri_test	359	1082859,/,1083536,/,1084217,/,1084897,/,1085575,/,1086255,/,1086936,/,1087616,/,1088295,/,1088975,/,1089654,/,1090333,/,1091013,/,1091694,/,1092372,/,1093053,/,1093733,/	t,t,t,t,t,t,t,t,t,t,t,t,t,t,t,t,t	"<div class = ""centerbox""><p class = ""block-text"">Your delay is 2 trials.</p><p class = block-text>Please wait for the scanner to start the block</p></div>"	77	10880.0	n/a	n/a	n/a	n/a	n/a	n/a	n/a	n/a	n/a	n/a	n/a	n/a	n/a	n/a	n/a	n/a	n/a	n/a	n/a	start_functional_block
11377	500	n/a	-1	-1	500	0.0	fixation	poldrack-single-stim	387	1094236	0.0-19.0-0.0	beast_fmri_test	359	n/a	n/a	<div class = centerbox2><div class = fixation>+</div></div>	none	500.0	test	n/a	n/a	n/a	n/a	n/a	n/a	n/a	n/a	n/a	n/a	n/a	n/a	n/a	n/a	n/a	n/a	n/a	n/a	fixation
8958.9378925489727	2750	n/a	1088	71	2750	2421.06210745	stim	stop-signal	388	1096989	0.0-19.0-1.0	beast_fmri_test	359	1094411,/,1095091,/,1095770,/,1096450,/,1097129,/,1097810,/,1098489,/,1099169,/	t,t,t,t,t,t,t,t	<img class = center src='/static/experiments/beast_fmri_test/images/D.png'></img>	89,71	2750.0	test	<img class = center src='/static/experiments/beast_fmri_test/images/redD.png'></img>	go	-1.0	2.0	0.0	go	temp-non-target	D	89,Middle Finger	71,Index Finger	800.0	800.0	1950.0	2000.0	0.0	n/a	n/a	n/a	go_stim
11708.937892548973	2421.06210745111	n/a	1088	71	2750	2421.06210745	stim	stop-signal	388	1096989	0.0-19.0-1.0	beast_fmri_test	359	1094411,/,1095091,/,1095770,/,1096450,/,1097129,/,1097810,/,1098489,/,1099169,/	t,t,t,t,t,t,t,t	<img class = center src='/static/experiments/beast_fmri_test/images/D.png'></img>	89,71	2750.0	test	<img class = center src='/static/experiments/beast_fmri_test/images/redD.png'></img>	go	-1.0	2.0	0.0	go	temp-non-target	D	89,Middle Finger	71,Index Finger	800.0	800.0	1950.0	2000.0	0.0	n/a	n/a	n/a	ITI
17097	500	n/a	-1	-1	500	0.0	fixation	poldrack-single-stim	389	1099956	0.0-19.1-0.1	beast_fmri_test	359	1099849,/	t	<div class = centerbox2><div class = fixation>+</div></div>	none	500.0	test	n/a	n/a	n/a	n/a	n/a	n/a	n/a	n/a	n/a	n/a	n/a	n/a	n/a	n/a	n/a	n/a	n/a	n/a	fixation
16388.15060017514	2750	n/a	1039	71	2750	709.849399825	stim	stop-signal	390	1102707	0.0-19.1-1.1	beast_fmri_test	359	1100529,/,1101207,/,1101887,/,1102568,/,1103248,/	t,t,t,t,t	<img class = center src='/static/experiments/beast_fmri_test/images/D.png'></img>	89,71	2750.0	test	<img class = center src='/static/experiments/beast_fmri_test/images/redD.png'></img>	go	-1.0	2.0	1.0	go	temp-non-target	D	89,Middle Finger	71,Index Finger	800.0	800.0	1950.0	2000.0	0.0	n/a	n/a	n/a	go_stim
19138.15060017514	709.84939982477681	n/a	1039	71	2750	709.849399825	stim	stop-signal	390	1102707	0.0-19.1-1.1	beast_fmri_test	359	1100529,/,1101207,/,1101887,/,1102568,/,1103248,/	t,t,t,t,t	<img class = center src='/static/experiments/beast_fmri_test/images/D.png'></img>	89,71	2750.0	test	<img class = center src='/static/experiments/beast_fmri_test/images/redD.png'></img>	go	-1.0	2.0	1.0	go	temp-non-target	D	89,Middle Finger	71,Index Finger	800.0	800.0	1950.0	2000.0	0.0	n/a	n/a	n/a	ITI
21101	500	n/a	-1	-1	500	0.0	fixation	poldrack-single-stim	391	1103960	0.0-19.2-0.2	beast_fmri_test	359	1103927,/	t	<div class = centerbox2><div class = fixation>+</div></div>	none	500.0	test	n/a	n/a	n/a	n/a	n/a	n/a	n/a	n/a	n/a	n/a	n/a	n/a	n/a	n/a	n/a	n/a	n/a	n/a	fixation
19519.83351171785	800.0	n/a	-1	-1	2750	1581.16648828	stim	stop-signal	392	1106710	0.0-19.2-1.2	beast_fmri_test	359	1104606,/,1105288,/,1105967,/,1106646,/,1107326,/,1108006,/	t,t,t,t,t,t	<img class = center src='/static/experiments/beast_fmri_test/images/B.png'></img>	89,71	2750.0	test	<img class = center src='/static/experiments/beast_fmri_test/images/redB.png'></img>	stop	1950.0	2.0	2.0	stop	non-target	B	89,Middle Finger	71,Index Finger	800.0	800.0	1950.0	1950.0	0.0	1.0	800.0	n/a	go_stim
21469.83351171785	1950.0	n/a	-1	-1	2750	1581.16648828	stim	stop-signal	392	1106710	0.0-19.2-1.2	beast_fmri_test	359	1104606,/,1105288,/,1105967,/,1106646,/,1107326,/,1108006,/	t,t,t,t,t,t	<img class = center src='/static/experiments/beast_fmri_test/images/B.png'></img>	89,71	2750.0	test	<img class = center src='/static/experiments/beast_fmri_test/images/redB.png'></img>	stop	1950.0	2.0	2.0	stop	non-target	B	89,Middle Finger	71,Index Finger	800.0	800.0	1950.0	1950.0	0.0	1.0	800.0	n/a	stop_stim
22269.83351171785	1581.1664882822104	n/a	-1	-1	2750	1581.16648828	stim	stop-signal	392	1106710	0.0-19.2-1.2	beast_fmri_test	359	1104606,/,1105288,/,1105967,/,1106646,/,1107326,/,1108006,/	t,t,t,t,t,t	<img class = center src='/static/experiments/beast_fmri_test/images/B.png'></img>	89,71	2750.0	test	<img class = center src='/static/experiments/beast_fmri_test/images/redB.png'></img>	stop	1950.0	2.0	2.0	stop	non-target	B	89,Middle Finger	71,Index Finger	800.0	800.0	1950.0	1950.0	0.0	1.0	800.0	n/a	ITI
25976	500	n/a	-1	-1	500	0.0	fixation	poldrack-single-stim	393	1108835	0.0-19.3-0.3	beast_fmri_test	359	1108686,/	t	<div class = centerbox2><div class = fixation>+</div></div>	none	500.0	test	n/a	n/a	n/a	n/a	n/a	n/a	n/a	n/a	n/a	n/a	n/a	n/a	n/a	n/a	n/a	n/a	n/a	n/a	fixation
25840.193891781149	2750	n/a	878	71	2750	135.806108219	stim	stop-signal	394	1111585	0.0-19.3-1.3	beast_fmri_test	359	1109365,/,1110045,/,1110725,/,1111404,/	t,t,t,t	<img class = center src='/static/experiments/beast_fmri_test/images/P.png'></img>	89,71	2750.0	test	<img class = center src='/static/experiments/beast_fmri_test/images/redP.png'></img>	go	1900.0	2.0	3.0	go	non-target	P	89,Middle Finger	71,Index Finger	800.0	850.0	1950.0	1900.0	1.0	n/a	850.0	1.0	go_stim
28590.193891781149	135.80610821876516	n/a	878	71	2750	135.806108219	stim	stop-signal	394	1111585	0.0-19.3-1.3	beast_fmri_test	359	1109365,/,1110045,/,1110725,/,1111404,/	t,t,t,t	<img class = center src='/static/experiments/beast_fmri_test/images/P.png'></img>	89,71	2750.0	test	<img class = center src='/static/experiments/beast_fmri_test/images/redP.png'></img>	go	1900.0	2.0	3.0	go	non-target	P	89,Middle Finger	71,Index Finger	800.0	850.0	1950.0	1900.0	1.0	n/a	850.0	1.0	ITI
29403	500	n/a	-1	-1	500	0.0	fixation	poldrack-single-stim	395	1112262	0.0-19.4-0.4	beast_fmri_test	359	1112085,/	t	<div class = centerbox2><div class = fixation>+</div></div>	none	500.0	test	n/a	n/a	n/a	n/a	n/a	n/a	n/a	n/a	n/a	n/a	n/a	n/a	n/a	n/a	n/a	n/a	n/a	n/a	fixation
28429.271618826548	2750	n/a	969	89	2750	975.728381173	stim	stop-signal	396	1115014	0.0-19.4-1.4	beast_fmri_test	359	1112765,/,1113442,/,1114122,/,1114802,/,1115481,/	t,t,t,t,t	<img class = center src='/static/experiments/beast_fmri_test/images/B.png'></img>	89,71	2750.0	test	<img class = center src='/static/experiments/beast_fmri_test/images/redB.png'></img>	go	1950.0	2.0	4.0	go	target	B	89,Middle Finger	71,Index Finger	800.0	850.0	1950.0	1900.0	1.0	n/a	800.0	1.0	go_stim
31179.271618826548	975.72838117347362	n/a	969	89	2750	975.728381173	stim	stop-signal	396	1115014	0.0-19.4-1.4	beast_fmri_test	359	1112765,/,1113442,/,1114122,/,1114802,/,1115481,/	t,t,t,t,t	<img class = center src='/static/experiments/beast_fmri_test/images/B.png'></img>	89,71	2750.0	test	<img class = center src='/static/experiments/beast_fmri_test/images/redB.png'></img>	go	1950.0	2.0	4.0	go	target	B	89,Middle Finger	71,Index Finger	800.0	850.0	1950.0	1900.0	1.0	n/a	800.0	1.0	ITI
33672	500	n/a	-1	-1	500	0.0	fixation	poldrack-single-stim	397	1116531	0.0-19.5-0.5	beast_fmri_test	359	1116163,/	t	<div class = centerbox2><div class = fixation>+</div></div>	none	500.0	test	n/a	n/a	n/a	n/a	n/a	n/a	n/a	n/a	n/a	n/a	n/a	n/a	n/a	n/a	n/a	n/a	n/a	n/a	fixation
33056.277880137088	2750	n/a	1426	71	2750	617.722119863	stim	stop-signal	398	1119283	0.0-19.5-1.5	beast_fmri_test	359	1116841,/,1117522,/,1118201,/,1118880,/,1119560,/	t,t,t,t,t	<img class = center src='/static/experiments/beast_fmri_test/images/B.png'></img>	89,71	2750.0	test	<img class = center src='/static/experiments/beast_fmri_test/images/redB.png'></img>	go	1900.0	2.0	5.0	go	non-target	B	89,Middle Finger	71,Index Finger	800.0	850.0	1950.0	1900.0	1.0	n/a	850.0	1.0	go_stim
35806.277880137088	617.72211986297623	n/a	1426	71	2750	617.722119863	stim	stop-signal	398	1119283	0.0-19.5-1.5	beast_fmri_test	359	1116841,/,1117522,/,1118201,/,1118880,/,1119560,/	t,t,t,t,t	<img class = center src='/static/experiments/beast_fmri_test/images/B.png'></img>	89,71	2750.0	test	<img class = center src='/static/experiments/beast_fmri_test/images/redB.png'></img>	go	1900.0	2.0	5.0	go	non-target	B	89,Middle Finger	71,Index Finger	800.0	850.0	1950.0	1900.0	1.0	n/a	850.0	1.0	ITI
37585	500	n/a	-1	-1	500	0.0	fixation	poldrack-single-stim	399	1120444	0.0-19.6-0.6	beast_fmri_test	359	1120239,/	t	<div class = centerbox2><div class = fixation>+</div></div>	none	500.0	test	n/a	n/a	n/a	n/a	n/a	n/a	n/a	n/a	n/a	n/a	n/a	n/a	n/a	n/a	n/a	n/a	n/a	n/a	fixation
36820.649783689994	2750	n/a	863	89	2750	766.35021631	stim	stop-signal	400	1123196	0.0-19.6-1.6	beast_fmri_test	359	1120919,/,1121599,/,1122279,/,1122958,/,1123637,/	t,t,t,t,t	<img class = center src='/static/experiments/beast_fmri_test/images/B.png'></img>	89,71	2750.0	test	<img class = center src='/static/experiments/beast_fmri_test/images/redB.png'></img>	go	1950.0	2.0	6.0	go	target	B	89,Middle Finger	71,Index Finger	800.0	850.0	1950.0	1900.0	1.0	n/a	800.0	1.0	go_stim
39570.649783689994	766.35021631006884	n/a	863	89	2750	766.35021631	stim	stop-signal	400	1123196	0.0-19.6-1.6	beast_fmri_test	359	1120919,/,1121599,/,1122279,/,1122958,/,1123637,/	t,t,t,t,t	<img class = center src='/static/experiments/beast_fmri_test/images/B.png'></img>	89,71	2750.0	test	<img class = center src='/static/experiments/beast_fmri_test/images/redB.png'></img>	go	1950.0	2.0	6.0	go	target	B	89,Middle Finger	71,Index Finger	800.0	850.0	1950.0	1900.0	1.0	n/a	800.0	1.0	ITI
41649	500	n/a	-1	-1	500	0.0	fixation	poldrack-single-stim	401	1124508	0.0-19.7-0.7	beast_fmri_test	359	1124317,/	t	<div class = centerbox2><div class = fixation>+</div></div>	none	500.0	test	n/a	n/a	n/a	n/a	n/a	n/a	n/a	n/a	n/a	n/a	n/a	n/a	n/a	n/a	n/a	n/a	n/a	n/a	fixation
41336.269385239575	2750	n/a	1000	71	2750	313.73061476	stim	stop-signal	402	1127259	0.0-19.7-1.7	beast_fmri_test	359	1124997,/,1125677,/,1126356,/,1127037,/	t,t,t,t	<img class = center src='/static/experiments/beast_fmri_test/images/P.png'></img>	89,71	2750.0	test	<img class = center src='/static/experiments/beast_fmri_test/images/redP.png'></img>	go	1900.0	2.0	7.0	go	non-target	P	89,Middle Finger	71,Index Finger	800.0	850.0	1950.0	1900.0	1.0	n/a	850.0	1.0	go_stim
44086.269385239575	313.73061476041403	n/a	1000	71	2750	313.73061476	stim	stop-signal	402	1127259	0.0-19.7-1.7	beast_fmri_test	359	1124997,/,1125677,/,1126356,/,1127037,/	t,t,t,t	<img class = center src='/static/experiments/beast_fmri_test/images/P.png'></img>	89,71	2750.0	test	<img class = center src='/static/experiments/beast_fmri_test/images/redP.png'></img>	go	1900.0	2.0	7.0	go	non-target	P	89,Middle Finger	71,Index Finger	800.0	850.0	1950.0	1900.0	1.0	n/a	850.0	1.0	ITI
45259	500	n/a	-1	-1	500	0.0	fixation	poldrack-single-stim	403	1128118	0.0-19.8-0.8	beast_fmri_test	359	1127716,/	t	<div class = centerbox2><div class = fixation>+</div></div>	none	500.0	test	n/a	n/a	n/a	n/a	n/a	n/a	n/a	n/a	n/a	n/a	n/a	n/a	n/a	n/a	n/a	n/a	n/a	n/a	fixation
45154.769388417713	2750	n/a	1023	89	2750	106.230611582	stim	stop-signal	404	1130870	0.0-19.8-1.8	beast_fmri_test	359	1128395,/,1129075,/,1129754,/,1130435,/	t,t,t,t	<img class = center src='/static/experiments/beast_fmri_test/images/B.png'></img>	89,71	2750.0	test	<img class = center src='/static/experiments/beast_fmri_test/images/redB.png'></img>	go	1950.0	2.0	8.0	go	target	B	89,Middle Finger	71,Index Finger	800.0	850.0	1950.0	1900.0	1.0	n/a	800.0	1.0	go_stim
47904.769388417713	106.23061158221216	n/a	1023	89	2750	106.230611582	stim	stop-signal	404	1130870	0.0-19.8-1.8	beast_fmri_test	359	1128395,/,1129075,/,1129754,/,1130435,/	t,t,t,t	<img class = center src='/static/experiments/beast_fmri_test/images/B.png'></img>	89,71	2750.0	test	<img class = center src='/static/experiments/beast_fmri_test/images/redB.png'></img>	go	1950.0	2.0	8.0	go	target	B	89,Middle Finger	71,Index Finger	800.0	850.0	1950.0	1900.0	1.0	n/a	800.0	1.0	ITI
48664	500	n/a	-1	-1	500	0.0	fixation	poldrack-single-stim	405	1131523	0.0-19.9-0.9	beast_fmri_test	359	1131114,/	t	<div class = centerbox2><div class = fixation>+</div></div>	none	500.0	test	n/a	n/a	n/a	n/a	n/a	n/a	n/a	n/a	n/a	n/a	n/a	n/a	n/a	n/a	n/a	n/a	n/a	n/a	fixation
46400.156890568556	850.0	n/a	973	71	2750	2264.84310943	stim	stop-signal	406	1134274	0.0-19.9-1.9	beast_fmri_test	359	1131795,/,1132474,/,1133155,/,1133832,/,1134514,/,1135193,/,1135873,/	t,t,t,t,t,t,t	<img class = center src='/static/experiments/beast_fmri_test/images/T.png'></img>	89,71	2750.0	test	<img class = center src='/static/experiments/beast_fmri_test/images/redT.png'></img>	stop	1900.0	2.0	9.0	stop	non-target	T	89,Middle Finger	71,Index Finger	800.0	850.0	1950.0	1900.0	0.0	0.0	850.0	n/a	go_stim
48300.156890568556	1900.0	n/a	973	71	2750	2264.84310943	stim	stop-signal	406	1134274	0.0-19.9-1.9	beast_fmri_test	359	1131795,/,1132474,/,1133155,/,1133832,/,1134514,/,1135193,/,1135873,/	t,t,t,t,t,t,t	<img class = center src='/static/experiments/beast_fmri_test/images/T.png'></img>	89,71	2750.0	test	<img class = center src='/static/experiments/beast_fmri_test/images/redT.png'></img>	stop	1900.0	2.0	9.0	stop	non-target	T	89,Middle Finger	71,Index Finger	800.0	850.0	1950.0	1900.0	0.0	0.0	850.0	n/a	stop_stim
49150.156890568556	2264.8431094314724	n/a	973	71	2750	2264.84310943	stim	stop-signal	406	1134274	0.0-19.9-1.9	beast_fmri_test	359	1131795,/,1132474,/,1133155,/,1133832,/,1134514,/,1135193,/,1135873,/	t,t,t,t,t,t,t	<img class = center src='/static/experiments/beast_fmri_test/images/T.png'></img>	89,71	2750.0	test	<img class = center src='/static/experiments/beast_fmri_test/images/redT.png'></img>	stop	1900.0	2.0	9.0	stop	non-target	T	89,Middle Finger	71,Index Finger	800.0	850.0	1950.0	1900.0	0.0	0.0	850.0	n/a	ITI
54225	500	n/a	-1	-1	500	0.0	fixation	poldrack-single-stim	407	1137084	0.0-19.10-0.10	beast_fmri_test	359	1136582,/	t	<div class = centerbox2><div class = fixation>+</div></div>	none	500.0	test	n/a	n/a	n/a	n/a	n/a	n/a	n/a	n/a	n/a	n/a	n/a	n/a	n/a	n/a	n/a	n/a	n/a	n/a	fixation
52517.049495344516	800.0	n/a	-1	-1	2750	1710.95050466	stim	stop-signal	408	1139837	0.0-19.10-1.10	beast_fmri_test	359	1137231,/,1137911,/,1138591,/,1139272,/,1139952,/,1140632,/,1141309,/	t,t,t,t,t,t,t	<img class = center src='/static/experiments/beast_fmri_test/images/B.png'></img>	89,71	2750.0	test	<img class = center src='/static/experiments/beast_fmri_test/images/redB.png'></img>	stop	1950.0	2.0	10.0	stop	target	B	89,Middle Finger	71,Index Finger	800.0	800.0	1950.0	1900.0	0.0	1.0	800.0	n/a	go_stim
54467.049495344516	1950.0	n/a	-1	-1	2750	1710.95050466	stim	stop-signal	408	1139837	0.0-19.10-1.10	beast_fmri_test	359	1137231,/,1137911,/,1138591,/,1139272,/,1139952,/,1140632,/,1141309,/	t,t,t,t,t,t,t	<img class = center src='/static/experiments/beast_fmri_test/images/B.png'></img>	89,71	2750.0	test	<img class = center src='/static/experiments/beast_fmri_test/images/redB.png'></img>	stop	1950.0	2.0	10.0	stop	target	B	89,Middle Finger	71,Index Finger	800.0	800.0	1950.0	1900.0	0.0	1.0	800.0	n/a	stop_stim
55267.049495344516	1710.9505046553875	n/a	-1	-1	2750	1710.95050466	stim	stop-signal	408	1139837	0.0-19.10-1.10	beast_fmri_test	359	1137231,/,1137911,/,1138591,/,1139272,/,1139952,/,1140632,/,1141309,/	t,t,t,t,t,t,t	<img class = center src='/static/experiments/beast_fmri_test/images/B.png'></img>	89,71	2750.0	test	<img class = center src='/static/experiments/beast_fmri_test/images/redB.png'></img>	stop	1950.0	2.0	10.0	stop	target	B	89,Middle Finger	71,Index Finger	800.0	800.0	1950.0	1900.0	0.0	1.0	800.0	n/a	ITI
59239	500	n/a	-1	-1	500	0.0	fixation	poldrack-single-stim	409	1142098	0.0-19.11-0.11	beast_fmri_test	359	1141990,/	t	<div class = centerbox2><div class = fixation>+</div></div>	none	500.0	test	n/a	n/a	n/a	n/a	n/a	n/a	n/a	n/a	n/a	n/a	n/a	n/a	n/a	n/a	n/a	n/a	n/a	n/a	fixation
58849.519945083186	2750	n/a	1377	89	2750	390.480054917	stim	stop-signal	410	1144849	0.0-19.11-1.11	beast_fmri_test	359	1142669,/,1143348,/,1144030,/,1144709,/	t,t,t,t	<img class = center src='/static/experiments/beast_fmri_test/images/T.png'></img>	89,71	2750.0	test	<img class = center src='/static/experiments/beast_fmri_test/images/redT.png'></img>	go	1900.0	2.0	11.0	go	target	T	89,Middle Finger	71,Index Finger	850.0	800.0	1900.0	1900.0	1.0	n/a	850.0	1.0	go_stim
61599.519945083186	390.48005491690856	n/a	1377	89	2750	390.480054917	stim	stop-signal	410	1144849	0.0-19.11-1.11	beast_fmri_test	359	1142669,/,1143348,/,1144030,/,1144709,/	t,t,t,t	<img class = center src='/static/experiments/beast_fmri_test/images/T.png'></img>	89,71	2750.0	test	<img class = center src='/static/experiments/beast_fmri_test/images/redT.png'></img>	go	1900.0	2.0	11.0	go	target	T	89,Middle Finger	71,Index Finger	850.0	800.0	1900.0	1900.0	1.0	n/a	850.0	1.0	ITI
62925	500	n/a	-1	-1	500	0.0	fixation	poldrack-single-stim	411	1145784	0.0-19.12-0.12	beast_fmri_test	359	1145389,/	t	<div class = centerbox2><div class = fixation>+</div></div>	none	500.0	test	n/a	n/a	n/a	n/a	n/a	n/a	n/a	n/a	n/a	n/a	n/a	n/a	n/a	n/a	n/a	n/a	n/a	n/a	fixation
62114.441126508173	850.0	n/a	-1	-1	2750	814.558873492	stim	stop-signal	412	1148538	0.0-19.12-1.12	beast_fmri_test	359	1146069,/,1146747,/,1147429,/,1148107,/,1148787,/	t,t,t,t,t	<img class = center src='/static/experiments/beast_fmri_test/images/B.png'></img>	89,71	2750.0	test	<img class = center src='/static/experiments/beast_fmri_test/images/redB.png'></img>	stop	1900.0	2.0	12.0	stop	target	B	89,Middle Finger	71,Index Finger	850.0	800.0	1900.0	1900.0	0.0	1.0	850.0	n/a	go_stim
64014.441126508173	1900.0	n/a	-1	-1	2750	814.558873492	stim	stop-signal	412	1148538	0.0-19.12-1.12	beast_fmri_test	359	1146069,/,1146747,/,1147429,/,1148107,/,1148787,/	t,t,t,t,t	<img class = center src='/static/experiments/beast_fmri_test/images/B.png'></img>	89,71	2750.0	test	<img class = center src='/static/experiments/beast_fmri_test/images/redB.png'></img>	stop	1900.0	2.0	12.0	stop	target	B	89,Middle Finger	71,Index Finger	850.0	800.0	1900.0	1900.0	0.0	1.0	850.0	n/a	stop_stim
64864.441126508173	814.55887349178943	n/a	-1	-1	2750	814.558873492	stim	stop-signal	412	1148538	0.0-19.12-1.12	beast_fmri_test	359	1146069,/,1146747,/,1147429,/,1148107,/,1148787,/	t,t,t,t,t	<img class = center src='/static/experiments/beast_fmri_test/images/B.png'></img>	89,71	2750.0	test	<img class = center src='/static/experiments/beast_fmri_test/images/redB.png'></img>	stop	1900.0	2.0	12.0	stop	target	B	89,Middle Finger	71,Index Finger	850.0	800.0	1900.0	1900.0	0.0	1.0	850.0	n/a	ITI
67037	500	n/a	-1	-1	500	0.0	fixation	poldrack-single-stim	413	1149896	0.0-19.13-0.13	beast_fmri_test	359	1149467,/	t	<div class = centerbox2><div class = fixation>+</div></div>	none	500.0	test	n/a	n/a	n/a	n/a	n/a	n/a	n/a	n/a	n/a	n/a	n/a	n/a	n/a	n/a	n/a	n/a	n/a	n/a	fixation
65921.150784432655	900.0	n/a	-1	-1	2750	1118.84921557	stim	stop-signal	414	1152649	0.0-19.13-1.13	beast_fmri_test	359	1150146,/,1150824,/,1151504,/,1152185,/,1152864,/,1153545,/	t,t,t,t,t,t	<img class = center src='/static/experiments/beast_fmri_test/images/T.png'></img>	89,71	2750.0	test	<img class = center src='/static/experiments/beast_fmri_test/images/redT.png'></img>	stop	1850.0	2.0	13.0	stop	target	T	89,Middle Finger	71,Index Finger	900.0	800.0	1850.0	1900.0	0.0	1.0	900.0	n/a	go_stim
67771.150784432655	1850.0	n/a	-1	-1	2750	1118.84921557	stim	stop-signal	414	1152649	0.0-19.13-1.13	beast_fmri_test	359	1150146,/,1150824,/,1151504,/,1152185,/,1152864,/,1153545,/	t,t,t,t,t,t	<img class = center src='/static/experiments/beast_fmri_test/images/T.png'></img>	89,71	2750.0	test	<img class = center src='/static/experiments/beast_fmri_test/images/redT.png'></img>	stop	1850.0	2.0	13.0	stop	target	T	89,Middle Finger	71,Index Finger	900.0	800.0	1850.0	1900.0	0.0	1.0	900.0	n/a	stop_stim
68671.150784432655	1118.8492155672673	n/a	-1	-1	2750	1118.84921557	stim	stop-signal	414	1152649	0.0-19.13-1.13	beast_fmri_test	359	1150146,/,1150824,/,1151504,/,1152185,/,1152864,/,1153545,/	t,t,t,t,t,t	<img class = center src='/static/experiments/beast_fmri_test/images/T.png'></img>	89,71	2750.0	test	<img class = center src='/static/experiments/beast_fmri_test/images/redT.png'></img>	stop	1850.0	2.0	13.0	stop	target	T	89,Middle Finger	71,Index Finger	900.0	800.0	1850.0	1900.0	0.0	1.0	900.0	n/a	ITI
71451	500	n/a	-1	-1	500	0.0	fixation	poldrack-single-stim	415	1154310	0.0-19.14-0.14	beast_fmri_test	359	1154225,/	t	<div class = centerbox2><div class = fixation>+</div></div>	none	500.0	test	n/a	n/a	n/a	n/a	n/a	n/a	n/a	n/a	n/a	n/a	n/a	n/a	n/a	n/a	n/a	n/a	n/a	n/a	fixation
71305.376879974036	2750	n/a	950	71	2750	147.623120026	stim	stop-signal	416	1157062	0.0-19.14-1.14	beast_fmri_test	359	1154903,/,1155584,/,1156262,/,1156942,/	t,t,t,t	<img class = center src='/static/experiments/beast_fmri_test/images/P.png'></img>	89,71	2750.0	test	<img class = center src='/static/experiments/beast_fmri_test/images/redP.png'></img>	go	1950.0	2.0	14.0	go	non-target	P	89,Middle Finger	71,Index Finger	950.0	800.0	1850.0	1950.0	1.0	n/a	800.0	1.0	go_stim
74055.376879974036	147.62312002598253	n/a	950	71	2750	147.623120026	stim	stop-signal	416	1157062	0.0-19.14-1.14	beast_fmri_test	359	1154903,/,1155584,/,1156262,/,1156942,/	t,t,t,t	<img class = center src='/static/experiments/beast_fmri_test/images/P.png'></img>	89,71	2750.0	test	<img class = center src='/static/experiments/beast_fmri_test/images/redP.png'></img>	go	1950.0	2.0	14.0	go	non-target	P	89,Middle Finger	71,Index Finger	950.0	800.0	1850.0	1950.0	1.0	n/a	800.0	1.0	ITI
74898	500	n/a	-1	-1	500	0.0	fixation	poldrack-single-stim	417	1157757	0.0-19.15-0.15	beast_fmri_test	359	1157621,/	t	<div class = centerbox2><div class = fixation>+</div></div>	none	500.0	test	n/a	n/a	n/a	n/a	n/a	n/a	n/a	n/a	n/a	n/a	n/a	n/a	n/a	n/a	n/a	n/a	n/a	n/a	fixation
74159.798372619785	2750	n/a	1317	89	2750	739.20162738	stim	stop-signal	418	1160508	0.0-19.15-1.15	beast_fmri_test	359	1158302,/,1158982,/,1159661,/,1160342,/,1161021,/	t,t,t,t,t	<img class = center src='/static/experiments/beast_fmri_test/images/T.png'></img>	89,71	2750.0	test	<img class = center src='/static/experiments/beast_fmri_test/images/redT.png'></img>	go	1800.0	2.0	15.0	go	target	T	89,Middle Finger	71,Index Finger	950.0	800.0	1800.0	1950.0	1.0	n/a	950.0	1.0	go_stim
76909.798372619785	739.20162738033082	n/a	1317	89	2750	739.20162738	stim	stop-signal	418	1160508	0.0-19.15-1.15	beast_fmri_test	359	1158302,/,1158982,/,1159661,/,1160342,/,1161021,/	t,t,t,t,t	<img class = center src='/static/experiments/beast_fmri_test/images/T.png'></img>	89,71	2750.0	test	<img class = center src='/static/experiments/beast_fmri_test/images/redT.png'></img>	go	1800.0	2.0	15.0	go	target	T	89,Middle Finger	71,Index Finger	950.0	800.0	1800.0	1950.0	1.0	n/a	950.0	1.0	ITI
78934	500	n/a	-1	-1	500	0.0	fixation	poldrack-single-stim	419	1161793	0.0-19.16-0.16	beast_fmri_test	359	1161700,/	t	<div class = centerbox2><div class = fixation>+</div></div>	none	500.0	test	n/a	n/a	n/a	n/a	n/a	n/a	n/a	n/a	n/a	n/a	n/a	n/a	n/a	n/a	n/a	n/a	n/a	n/a	fixation
78115.99663709267	2750	n/a	1260	89	2750	818.003362907	stim	stop-signal	420	1164543	0.0-19.16-1.16	beast_fmri_test	359	1162381,/,1163060,/,1163740,/,1164419,/,1165099,/	t,t,t,t,t	<img class = center src='/static/experiments/beast_fmri_test/images/P.png'></img>	89,71	2750.0	test	<img class = center src='/static/experiments/beast_fmri_test/images/redP.png'></img>	go	1800.0	2.0	16.0	go	target	P	89,Middle Finger	71,Index Finger	950.0	800.0	1800.0	1950.0	1.0	n/a	950.0	1.0	go_stim
80865.99663709267	818.00336290738062	n/a	1260	89	2750	818.003362907	stim	stop-signal	420	1164543	0.0-19.16-1.16	beast_fmri_test	359	1162381,/,1163060,/,1163740,/,1164419,/,1165099,/	t,t,t,t,t	<img class = center src='/static/experiments/beast_fmri_test/images/P.png'></img>	89,71	2750.0	test	<img class = center src='/static/experiments/beast_fmri_test/images/redP.png'></img>	go	1800.0	2.0	16.0	go	target	P	89,Middle Finger	71,Index Finger	950.0	800.0	1800.0	1950.0	1.0	n/a	950.0	1.0	ITI
83048	500	n/a	-1	-1	500	0.0	fixation	poldrack-single-stim	421	1165907	0.0-19.17-0.17	beast_fmri_test	359	1165779,/	t	<div class = centerbox2><div class = fixation>+</div></div>	none	500.0	test	n/a	n/a	n/a	n/a	n/a	n/a	n/a	n/a	n/a	n/a	n/a	n/a	n/a	n/a	n/a	n/a	n/a	n/a	fixation
81554.878694140119	800.0	n/a	-1	-1	2750	1495.12130586	stim	stop-signal	422	1168659	0.0-19.17-1.17	beast_fmri_test	359	1166458,/,1167138,/,1167819,/,1168497,/,1169178,/,1169856,/	t,t,t,t,t,t	<img class = center src='/static/experiments/beast_fmri_test/images/B.png'></img>	89,71	2750.0	test	<img class = center src='/static/experiments/beast_fmri_test/images/redB.png'></img>	stop	1950.0	2.0	17.0	stop	non-target	B	89,Middle Finger	71,Index Finger	950.0	800.0	1800.0	1950.0	0.0	1.0	800.0	n/a	go_stim
83504.878694140119	1950.0	n/a	-1	-1	2750	1495.12130586	stim	stop-signal	422	1168659	0.0-19.17-1.17	beast_fmri_test	359	1166458,/,1167138,/,1167819,/,1168497,/,1169178,/,1169856,/	t,t,t,t,t,t	<img class = center src='/static/experiments/beast_fmri_test/images/B.png'></img>	89,71	2750.0	test	<img class = center src='/static/experiments/beast_fmri_test/images/redB.png'></img>	stop	1950.0	2.0	17.0	stop	non-target	B	89,Middle Finger	71,Index Finger	950.0	800.0	1800.0	1950.0	0.0	1.0	800.0	n/a	stop_stim
84304.878694140119	1495.1213058599799	n/a	-1	-1	2750	1495.12130586	stim	stop-signal	422	1168659	0.0-19.17-1.17	beast_fmri_test	359	1166458,/,1167138,/,1167819,/,1168497,/,1169178,/,1169856,/	t,t,t,t,t,t	<img class = center src='/static/experiments/beast_fmri_test/images/B.png'></img>	89,71	2750.0	test	<img class = center src='/static/experiments/beast_fmri_test/images/redB.png'></img>	stop	1950.0	2.0	17.0	stop	non-target	B	89,Middle Finger	71,Index Finger	950.0	800.0	1800.0	1950.0	0.0	1.0	800.0	n/a	ITI
87840	500	n/a	-1	-1	500	0.0	fixation	poldrack-single-stim	423	1170699	0.0-19.18-0.18	beast_fmri_test	359	1170537,/	t	<div class = centerbox2><div class = fixation>+</div></div>	none	500.0	test	n/a	n/a	n/a	n/a	n/a	n/a	n/a	n/a	n/a	n/a	n/a	n/a	n/a	n/a	n/a	n/a	n/a	n/a	fixation
87829.673331188504	850.0	n/a	-1	-1	2750	13.3266688114	stim	stop-signal	424	1173452	0.0-19.18-1.18	beast_fmri_test	359	1171215,/,1171895,/,1172576,/,1173255,/	t,t,t,t	<img class = center src='/static/experiments/beast_fmri_test/images/B.png'></img>	89,71	2750.0	test	<img class = center src='/static/experiments/beast_fmri_test/images/redB.png'></img>	stop	1900.0	2.0	18.0	stop	non-target	B	89,Middle Finger	71,Index Finger	950.0	850.0	1800.0	1900.0	0.0	1.0	850.0	n/a	go_stim
89729.673331188504	1900.0	n/a	-1	-1	2750	13.3266688114	stim	stop-signal	424	1173452	0.0-19.18-1.18	beast_fmri_test	359	1171215,/,1171895,/,1172576,/,1173255,/	t,t,t,t	<img class = center src='/static/experiments/beast_fmri_test/images/B.png'></img>	89,71	2750.0	test	<img class = center src='/static/experiments/beast_fmri_test/images/redB.png'></img>	stop	1900.0	2.0	18.0	stop	non-target	B	89,Middle Finger	71,Index Finger	950.0	850.0	1800.0	1900.0	0.0	1.0	850.0	n/a	stop_stim
90579.673331188504	13.326668811396846	n/a	-1	-1	2750	13.3266688114	stim	stop-signal	424	1173452	0.0-19.18-1.18	beast_fmri_test	359	1171215,/,1171895,/,1172576,/,1173255,/	t,t,t,t	<img class = center src='/static/experiments/beast_fmri_test/images/B.png'></img>	89,71	2750.0	test	<img class = center src='/static/experiments/beast_fmri_test/images/redB.png'></img>	stop	1900.0	2.0	18.0	stop	non-target	B	89,Middle Finger	71,Index Finger	950.0	850.0	1800.0	1900.0	0.0	1.0	850.0	n/a	ITI
91151	500	n/a	-1	-1	500	0.0	fixation	poldrack-single-stim	425	1174010	0.0-19.19-0.19	beast_fmri_test	359	1173935,/	t	<div class = centerbox2><div class = fixation>+</div></div>	none	500.0	test	n/a	n/a	n/a	n/a	n/a	n/a	n/a	n/a	n/a	n/a	n/a	n/a	n/a	n/a	n/a	n/a	n/a	n/a	fixation
90258.665224604774	2750	n/a	1340	71	2750	893.334775395	stim	stop-signal	426	1176761	0.0-19.19-1.19	beast_fmri_test	359	1174614,/,1175294,/,1175974,/,1176654,/,1177333,/	t,t,t,t,t	<img class = center src='/static/experiments/beast_fmri_test/images/B.png'></img>	89,71	2750.0	test	<img class = center src='/static/experiments/beast_fmri_test/images/redB.png'></img>	go	1800.0	2.0	19.0	go	target	B	89,Middle Finger	71,Index Finger	950.0	900.0	1800.0	1900.0	0.0	n/a	950.0	0.0	go_stim
93008.665224604774	893.33477539527689	n/a	1340	71	2750	893.334775395	stim	stop-signal	426	1176761	0.0-19.19-1.19	beast_fmri_test	359	1174614,/,1175294,/,1175974,/,1176654,/,1177333,/	t,t,t,t,t	<img class = center src='/static/experiments/beast_fmri_test/images/B.png'></img>	89,71	2750.0	test	<img class = center src='/static/experiments/beast_fmri_test/images/redB.png'></img>	go	1800.0	2.0	19.0	go	target	B	89,Middle Finger	71,Index Finger	950.0	900.0	1800.0	1900.0	0.0	n/a	950.0	0.0	ITI
95338	500	n/a	-1	-1	500	0.0	fixation	poldrack-single-stim	427	1178197	0.0-19.20-0.20	beast_fmri_test	359	1178012,/	t	<div class = centerbox2><div class = fixation>+</div></div>	none	500.0	test	n/a	n/a	n/a	n/a	n/a	n/a	n/a	n/a	n/a	n/a	n/a	n/a	n/a	n/a	n/a	n/a	n/a	n/a	fixation
93513.656723780092	2750	n/a	1334	71	2750	1825.34327622	stim	stop-signal	428	1180948	0.0-19.20-1.20	beast_fmri_test	359	1178693,/,1179373,/,1180051,/,1180732,/,1181412,/,1182092,/,1182770,/	t,t,t,t,t,t,t	<img class = center src='/static/experiments/beast_fmri_test/images/P.png'></img>	89,71	2750.0	test	<img class = center src='/static/experiments/beast_fmri_test/images/redP.png'></img>	go	1850.0	2.0	20.0	go	non-target	P	89,Middle Finger	71,Index Finger	950.0	900.0	1800.0	1850.0	1.0	n/a	900.0	1.0	go_stim
96263.656723780092	1825.3432762199038	n/a	1334	71	2750	1825.34327622	stim	stop-signal	428	1180948	0.0-19.20-1.20	beast_fmri_test	359	1178693,/,1179373,/,1180051,/,1180732,/,1181412,/,1182092,/,1182770,/	t,t,t,t,t,t,t	<img class = center src='/static/experiments/beast_fmri_test/images/P.png'></img>	89,71	2750.0	test	<img class = center src='/static/experiments/beast_fmri_test/images/redP.png'></img>	go	1850.0	2.0	20.0	go	non-target	P	89,Middle Finger	71,Index Finger	950.0	900.0	1800.0	1850.0	1.0	n/a	900.0	1.0	ITI
100457	500	n/a	-1	-1	500	0.0	fixation	poldrack-single-stim	429	1183316	0.0-19.21-0.21	beast_fmri_test	359	n/a	n/a	<div class = centerbox2><div class = fixation>+</div></div>	none	500.0	test	n/a	n/a	n/a	n/a	n/a	n/a	n/a	n/a	n/a	n/a	n/a	n/a	n/a	n/a	n/a	n/a	n/a	n/a	fixation
99152.858253784711	2750	n/a	1505	71	2750	1307.14174622	stim	stop-signal	430	1186069	0.0-19.21-1.21	beast_fmri_test	359	1183451,/,1184130,/,1184809,/,1185489,/,1186168,/,1186849,/	t,t,t,t,t,t	<img class = center src='/static/experiments/beast_fmri_test/images/P.png'></img>	89,71	2750.0	test	<img class = center src='/static/experiments/beast_fmri_test/images/redP.png'></img>	go	1850.0	2.0	21.0	go	non-target	P	89,Middle Finger	71,Index Finger	950.0	900.0	1800.0	1850.0	1.0	n/a	900.0	1.0	go_stim
101902.85825378471	1307.1417462153595	n/a	1505	71	2750	1307.14174622	stim	stop-signal	430	1186069	0.0-19.21-1.21	beast_fmri_test	359	1183451,/,1184130,/,1184809,/,1185489,/,1186168,/,1186849,/	t,t,t,t,t,t	<img class = center src='/static/experiments/beast_fmri_test/images/P.png'></img>	89,71	2750.0	test	<img class = center src='/static/experiments/beast_fmri_test/images/redP.png'></img>	go	1850.0	2.0	21.0	go	non-target	P	89,Middle Finger	71,Index Finger	950.0	900.0	1800.0	1850.0	1.0	n/a	900.0	1.0	ITI
105065	500	n/a	-1	-1	500	0.0	fixation	poldrack-single-stim	431	1187924	0.0-19.22-0.22	beast_fmri_test	359	1187529,/	t	<div class = centerbox2><div class = fixation>+</div></div>	none	500.0	test	n/a	n/a	n/a	n/a	n/a	n/a	n/a	n/a	n/a	n/a	n/a	n/a	n/a	n/a	n/a	n/a	n/a	n/a	fixation
104470.0415999894	2750	n/a	1067	71	2750	597.958400011	stim	stop-signal	432	1190677	0.0-19.22-1.22	beast_fmri_test	359	1188208,/,1188888,/,1189568,/,1190246,/,1190928,/	t,t,t,t,t	<img class = center src='/static/experiments/beast_fmri_test/images/B.png'></img>	89,71	2750.0	test	<img class = center src='/static/experiments/beast_fmri_test/images/redB.png'></img>	go	1850.0	2.0	22.0	go	non-target	B	89,Middle Finger	71,Index Finger	950.0	900.0	1800.0	1850.0	1.0	n/a	900.0	1.0	go_stim
107220.0415999894	597.95840001054898	n/a	1067	71	2750	597.958400011	stim	stop-signal	432	1190677	0.0-19.22-1.22	beast_fmri_test	359	1188208,/,1188888,/,1189568,/,1190246,/,1190928,/	t,t,t,t,t	<img class = center src='/static/experiments/beast_fmri_test/images/B.png'></img>	89,71	2750.0	test	<img class = center src='/static/experiments/beast_fmri_test/images/redB.png'></img>	go	1850.0	2.0	22.0	go	non-target	B	89,Middle Finger	71,Index Finger	950.0	900.0	1800.0	1850.0	1.0	n/a	900.0	1.0	ITI
108965	500	n/a	-1	-1	500	0.0	fixation	poldrack-single-stim	433	1191824	0.0-19.23-0.23	beast_fmri_test	359	1191608,/	t	<div class = centerbox2><div class = fixation>+</div></div>	none	500.0	test	n/a	n/a	n/a	n/a	n/a	n/a	n/a	n/a	n/a	n/a	n/a	n/a	n/a	n/a	n/a	n/a	n/a	n/a	fixation
108897.39417138789	900.0	n/a	1055	71	2750	67.6058286121	stim	stop-signal	434	1194574	0.0-19.23-1.23	beast_fmri_test	359	1192287,/,1192966,/,1193646,/,1194326,/	t,t,t,t	<img class = center src='/static/experiments/beast_fmri_test/images/V.png'></img>	89,71	2750.0	test	<img class = center src='/static/experiments/beast_fmri_test/images/redV.png'></img>	stop	1850.0	2.0	23.0	stop	non-target	V	89,Middle Finger	71,Index Finger	950.0	900.0	1800.0	1850.0	0.0	0.0	900.0	n/a	go_stim
110747.39417138789	1850.0	n/a	1055	71	2750	67.6058286121	stim	stop-signal	434	1194574	0.0-19.23-1.23	beast_fmri_test	359	1192287,/,1192966,/,1193646,/,1194326,/	t,t,t,t	<img class = center src='/static/experiments/beast_fmri_test/images/V.png'></img>	89,71	2750.0	test	<img class = center src='/static/experiments/beast_fmri_test/images/redV.png'></img>	stop	1850.0	2.0	23.0	stop	non-target	V	89,Middle Finger	71,Index Finger	950.0	900.0	1800.0	1850.0	0.0	0.0	900.0	n/a	stop_stim
111647.39417138789	67.605828612122266	n/a	1055	71	2750	67.6058286121	stim	stop-signal	434	1194574	0.0-19.23-1.23	beast_fmri_test	359	1192287,/,1192966,/,1193646,/,1194326,/	t,t,t,t	<img class = center src='/static/experiments/beast_fmri_test/images/V.png'></img>	89,71	2750.0	test	<img class = center src='/static/experiments/beast_fmri_test/images/redV.png'></img>	stop	1850.0	2.0	23.0	stop	non-target	V	89,Middle Finger	71,Index Finger	950.0	900.0	1800.0	1850.0	0.0	0.0	900.0	n/a	ITI
112330	500	n/a	-1	-1	500	0.0	fixation	poldrack-single-stim	435	1195189	0.0-19.24-0.24	beast_fmri_test	359	1195005,/	t	<div class = centerbox2><div class = fixation>+</div></div>	none	500.0	test	n/a	n/a	n/a	n/a	n/a	n/a	n/a	n/a	n/a	n/a	n/a	n/a	n/a	n/a	n/a	n/a	n/a	n/a	fixation
112081.92533650342	2750	n/a	1404	71	2750	250.074663497	stim	stop-signal	436	1197941	0.0-19.24-1.24	beast_fmri_test	359	1195686,/,1196365,/,1197045,/,1197723,/	t,t,t,t	<img class = center src='/static/experiments/beast_fmri_test/images/T.png'></img>	89,71	2750.0	test	<img class = center src='/static/experiments/beast_fmri_test/images/redT.png'></img>	go	1900.0	2.0	24.0	go	non-target	T	89,Middle Finger	71,Index Finger	950.0	850.0	1800.0	1900.0	1.0	n/a	850.0	1.0	go_stim
114831.92533650342	250.07466349668084	n/a	1404	71	2750	250.074663497	stim	stop-signal	436	1197941	0.0-19.24-1.24	beast_fmri_test	359	1195686,/,1196365,/,1197045,/,1197723,/	t,t,t,t	<img class = center src='/static/experiments/beast_fmri_test/images/T.png'></img>	89,71	2750.0	test	<img class = center src='/static/experiments/beast_fmri_test/images/redT.png'></img>	go	1900.0	2.0	24.0	go	non-target	T	89,Middle Finger	71,Index Finger	950.0	850.0	1800.0	1900.0	1.0	n/a	850.0	1.0	ITI
115876	500	n/a	-1	-1	500	0.0	fixation	poldrack-single-stim	437	1198735	0.0-19.25-0.25	beast_fmri_test	359	1198404,/	t	<div class = centerbox2><div class = fixation>+</div></div>	none	500.0	test	n/a	n/a	n/a	n/a	n/a	n/a	n/a	n/a	n/a	n/a	n/a	n/a	n/a	n/a	n/a	n/a	n/a	n/a	fixation
115739.6337455567	2750	n/a	865	71	2750	139.366254443	stim	stop-signal	438	1201488	0.0-19.25-1.25	beast_fmri_test	359	1199083,/,1199764,/,1200443,/,1201123,/	t,t,t,t	<img class = center src='/static/experiments/beast_fmri_test/images/D.png'></img>	89,71	2750.0	test	<img class = center src='/static/experiments/beast_fmri_test/images/redD.png'></img>	go	1900.0	2.0	25.0	go	non-target	D	89,Middle Finger	71,Index Finger	950.0	850.0	1800.0	1900.0	1.0	n/a	850.0	1.0	go_stim
118489.6337455567	139.36625444338006	n/a	865	71	2750	139.366254443	stim	stop-signal	438	1201488	0.0-19.25-1.25	beast_fmri_test	359	1199083,/,1199764,/,1200443,/,1201123,/	t,t,t,t	<img class = center src='/static/experiments/beast_fmri_test/images/D.png'></img>	89,71	2750.0	test	<img class = center src='/static/experiments/beast_fmri_test/images/redD.png'></img>	go	1900.0	2.0	25.0	go	non-target	D	89,Middle Finger	71,Index Finger	950.0	850.0	1800.0	1900.0	1.0	n/a	850.0	1.0	ITI
119326	500	n/a	-1	-1	500	0.0	fixation	poldrack-single-stim	439	1202185	0.0-19.26-0.26	beast_fmri_test	359	1201803,/	t	<div class = centerbox2><div class = fixation>+</div></div>	none	500.0	test	n/a	n/a	n/a	n/a	n/a	n/a	n/a	n/a	n/a	n/a	n/a	n/a	n/a	n/a	n/a	n/a	n/a	n/a	fixation
115942.22781642992	850.0	n/a	-1	-1	2750	3385.77218357	stim	stop-signal	440	1204937	0.0-19.26-1.26	beast_fmri_test	359	1202482,/,1203162,/,1203841,/,1204520,/,1205200,/,1205880,/,1206561,/,1207240,/,1207920,/	t,t,t,t,t,t,t,t,t	<img class = center src='/static/experiments/beast_fmri_test/images/D.png'></img>	89,71	2750.0	test	<img class = center src='/static/experiments/beast_fmri_test/images/redD.png'></img>	stop	1900.0	2.0	26.0	stop	non-target	D	89,Middle Finger	71,Index Finger	950.0	850.0	1800.0	1900.0	0.0	1.0	850.0	n/a	go_stim
117842.22781642992	1900.0	n/a	-1	-1	2750	3385.77218357	stim	stop-signal	440	1204937	0.0-19.26-1.26	beast_fmri_test	359	1202482,/,1203162,/,1203841,/,1204520,/,1205200,/,1205880,/,1206561,/,1207240,/,1207920,/	t,t,t,t,t,t,t,t,t	<img class = center src='/static/experiments/beast_fmri_test/images/D.png'></img>	89,71	2750.0	test	<img class = center src='/static/experiments/beast_fmri_test/images/redD.png'></img>	stop	1900.0	2.0	26.0	stop	non-target	D	89,Middle Finger	71,Index Finger	950.0	850.0	1800.0	1900.0	0.0	1.0	850.0	n/a	stop_stim
118692.22781642992	3385.7721835699681	n/a	-1	-1	2750	3385.77218357	stim	stop-signal	440	1204937	0.0-19.26-1.26	beast_fmri_test	359	1202482,/,1203162,/,1203841,/,1204520,/,1205200,/,1205880,/,1206561,/,1207240,/,1207920,/	t,t,t,t,t,t,t,t,t	<img class = center src='/static/experiments/beast_fmri_test/images/D.png'></img>	89,71	2750.0	test	<img class = center src='/static/experiments/beast_fmri_test/images/redD.png'></img>	stop	1900.0	2.0	26.0	stop	non-target	D	89,Middle Finger	71,Index Finger	950.0	850.0	1800.0	1900.0	0.0	1.0	850.0	n/a	ITI
126010	500	n/a	-1	-1	500	0.0	fixation	poldrack-single-stim	441	1208869	0.0-19.27-0.27	beast_fmri_test	359	1208600,/	t	<div class = centerbox2><div class = fixation>+</div></div>	none	500.0	test	n/a	n/a	n/a	n/a	n/a	n/a	n/a	n/a	n/a	n/a	n/a	n/a	n/a	n/a	n/a	n/a	n/a	n/a	fixation
124968.95065090759	950.0	n/a	733	89	2750	1042.04934909	stim	stop-signal	442	1211620	0.0-19.27-1.27	beast_fmri_test	359	1209280,/,1209959,/,1210638,/,1211318,/,1211997,/	t,t,t,t,t	<img class = center src='/static/experiments/beast_fmri_test/images/D.png'></img>	89,71	2750.0	test	<img class = center src='/static/experiments/beast_fmri_test/images/redD.png'></img>	stop	1800.0	2.0	27.0	stop	target	D	89,Middle Finger	71,Index Finger	950.0	900.0	1800.0	1900.0	0.0	0.0	950.0	n/a	go_stim
126768.95065090759	1800.0	n/a	733	89	2750	1042.04934909	stim	stop-signal	442	1211620	0.0-19.27-1.27	beast_fmri_test	359	1209280,/,1209959,/,1210638,/,1211318,/,1211997,/	t,t,t,t,t	<img class = center src='/static/experiments/beast_fmri_test/images/D.png'></img>	89,71	2750.0	test	<img class = center src='/static/experiments/beast_fmri_test/images/redD.png'></img>	stop	1800.0	2.0	27.0	stop	target	D	89,Middle Finger	71,Index Finger	950.0	900.0	1800.0	1900.0	0.0	0.0	950.0	n/a	stop_stim
127718.95065090759	1042.0493490924916	n/a	733	89	2750	1042.04934909	stim	stop-signal	442	1211620	0.0-19.27-1.27	beast_fmri_test	359	1209280,/,1209959,/,1210638,/,1211318,/,1211997,/	t,t,t,t,t	<img class = center src='/static/experiments/beast_fmri_test/images/D.png'></img>	89,71	2750.0	test	<img class = center src='/static/experiments/beast_fmri_test/images/redD.png'></img>	stop	1800.0	2.0	27.0	stop	target	D	89,Middle Finger	71,Index Finger	950.0	900.0	1800.0	1900.0	0.0	0.0	950.0	n/a	ITI
130356	500	n/a	-1	-1	500	0.0	fixation	poldrack-single-stim	443	1213215	0.0-19.28-0.28	beast_fmri_test	359	1212713,/	t	<div class = centerbox2><div class = fixation>+</div></div>	none	500.0	test	n/a	n/a	n/a	n/a	n/a	n/a	n/a	n/a	n/a	n/a	n/a	n/a	n/a	n/a	n/a	n/a	n/a	n/a	fixation
130043.67686266406	2750	n/a	1043	71	2750	313.323137336	stim	stop-signal	444	1215966	0.0-19.28-1.28	beast_fmri_test	359	1213357,/,1214036,/,1214717,/,1215397,/,1216077,/	t,t,t,t,t	<img class = center src='/static/experiments/beast_fmri_test/images/P.png'></img>	89,71	2750.0	test	<img class = center src='/static/experiments/beast_fmri_test/images/redP.png'></img>	go	1850.0	2.0	28.0	go	non-target	P	89,Middle Finger	71,Index Finger	900.0	900.0	1800.0	1850.0	1.0	n/a	900.0	1.0	go_stim
132793.67686266406	313.32313733592343	n/a	1043	71	2750	313.323137336	stim	stop-signal	444	1215966	0.0-19.28-1.28	beast_fmri_test	359	1213357,/,1214036,/,1214717,/,1215397,/,1216077,/	t,t,t,t,t	<img class = center src='/static/experiments/beast_fmri_test/images/P.png'></img>	89,71	2750.0	test	<img class = center src='/static/experiments/beast_fmri_test/images/redP.png'></img>	go	1850.0	2.0	28.0	go	non-target	P	89,Middle Finger	71,Index Finger	900.0	900.0	1800.0	1850.0	1.0	n/a	900.0	1.0	ITI
133971	500	n/a	-1	-1	500	0.0	fixation	poldrack-single-stim	445	1216830	0.0-19.29-0.29	beast_fmri_test	359	1216756,/	t	<div class = centerbox2><div class = fixation>+</div></div>	none	500.0	test	n/a	n/a	n/a	n/a	n/a	n/a	n/a	n/a	n/a	n/a	n/a	n/a	n/a	n/a	n/a	n/a	n/a	n/a	fixation
132422.58460078505	2750	n/a	1139	71	2750	1549.41539921	stim	stop-signal	446	1219581	0.0-19.29-1.29	beast_fmri_test	359	1217436,/,1218115,/,1218795,/,1219473,/,1220154,/,1220834,/	t,t,t,t,t,t	<img class = center src='/static/experiments/beast_fmri_test/images/T.png'></img>	89,71	2750.0	test	<img class = center src='/static/experiments/beast_fmri_test/images/redT.png'></img>	go	1850.0	2.0	29.0	go	non-target	T	89,Middle Finger	71,Index Finger	900.0	900.0	1800.0	1850.0	1.0	n/a	900.0	1.0	go_stim
135172.58460078505	1549.4153992149984	n/a	1139	71	2750	1549.41539921	stim	stop-signal	446	1219581	0.0-19.29-1.29	beast_fmri_test	359	1217436,/,1218115,/,1218795,/,1219473,/,1220154,/,1220834,/	t,t,t,t,t,t	<img class = center src='/static/experiments/beast_fmri_test/images/T.png'></img>	89,71	2750.0	test	<img class = center src='/static/experiments/beast_fmri_test/images/redT.png'></img>	go	1850.0	2.0	29.0	go	non-target	T	89,Middle Finger	71,Index Finger	900.0	900.0	1800.0	1850.0	1.0	n/a	900.0	1.0	ITI
138822	500	n/a	-1	-1	500	0.0	fixation	poldrack-single-stim	447	1221681	0.0-19.30-0.30	beast_fmri_test	359	1221514,/	t	<div class = centerbox2><div class = fixation>+</div></div>	none	500.0	test	n/a	n/a	n/a	n/a	n/a	n/a	n/a	n/a	n/a	n/a	n/a	n/a	n/a	n/a	n/a	n/a	n/a	n/a	fixation
137953.80446298281	2750	n/a	1339	71	2750	870.195537017	stim	stop-signal	448	1224433	0.0-19.30-1.30	beast_fmri_test	359	1222193,/,1222874,/,1223553,/,1224232,/,1224913,/	t,t,t,t,t	<img class = center src='/static/experiments/beast_fmri_test/images/T.png'></img>	89,71	2750.0	test	<img class = center src='/static/experiments/beast_fmri_test/images/redT.png'></img>	go	1850.0	2.0	30.0	go	non-target	T	89,Middle Finger	71,Index Finger	900.0	900.0	1800.0	1850.0	1.0	n/a	900.0	1.0	go_stim
140703.80446298281	870.19553701726682	n/a	1339	71	2750	870.195537017	stim	stop-signal	448	1224433	0.0-19.30-1.30	beast_fmri_test	359	1222193,/,1222874,/,1223553,/,1224232,/,1224913,/	t,t,t,t,t	<img class = center src='/static/experiments/beast_fmri_test/images/T.png'></img>	89,71	2750.0	test	<img class = center src='/static/experiments/beast_fmri_test/images/redT.png'></img>	go	1850.0	2.0	30.0	go	non-target	T	89,Middle Finger	71,Index Finger	900.0	900.0	1800.0	1850.0	1.0	n/a	900.0	1.0	ITI
142999	500	n/a	-1	-1	500	0.0	fixation	poldrack-single-stim	449	1225858	0.0-19.31-0.31	beast_fmri_test	359	1225593,/	t	<div class = centerbox2><div class = fixation>+</div></div>	none	500.0	test	n/a	n/a	n/a	n/a	n/a	n/a	n/a	n/a	n/a	n/a	n/a	n/a	n/a	n/a	n/a	n/a	n/a	n/a	fixation
141340.12297892268	2750	n/a	1077	71	2750	1659.87702108	stim	stop-signal	450	1228609	0.0-19.31-1.31	beast_fmri_test	359	1226271,/,1226950,/,1227630,/,1228310,/,1228990,/,1229671,/	t,t,t,t,t,t	<img class = center src='/static/experiments/beast_fmri_test/images/V.png'></img>	89,71	2750.0	test	<img class = center src='/static/experiments/beast_fmri_test/images/redV.png'></img>	go	1850.0	2.0	31.0	go	non-target	V	89,Middle Finger	71,Index Finger	900.0	900.0	1800.0	1850.0	1.0	n/a	900.0	1.0	go_stim
144090.12297892268	1659.8770210774353	n/a	1077	71	2750	1659.87702108	stim	stop-signal	450	1228609	0.0-19.31-1.31	beast_fmri_test	359	1226271,/,1226950,/,1227630,/,1228310,/,1228990,/,1229671,/	t,t,t,t,t,t	<img class = center src='/static/experiments/beast_fmri_test/images/V.png'></img>	89,71	2750.0	test	<img class = center src='/static/experiments/beast_fmri_test/images/redV.png'></img>	go	1850.0	2.0	31.0	go	non-target	V	89,Middle Finger	71,Index Finger	900.0	900.0	1800.0	1850.0	1.0	n/a	900.0	1.0	ITI
147959	500	n/a	-1	-1	500	0.0	fixation	poldrack-single-stim	451	1230818	0.0-19.32-0.32	beast_fmri_test	359	1230350,/	t	<div class = centerbox2><div class = fixation>+</div></div>	none	500.0	test	n/a	n/a	n/a	n/a	n/a	n/a	n/a	n/a	n/a	n/a	n/a	n/a	n/a	n/a	n/a	n/a	n/a	n/a	fixation
147810.16022110963	900.0	n/a	1154	71	2750	149.83977889	stim	stop-signal	452	1233569	0.0-19.32-1.32	beast_fmri_test	359	1231029,/,1231709,/,1232387,/,1233067,/	t,t,t,t	<img class = center src='/static/experiments/beast_fmri_test/images/D.png'></img>	89,71	2750.0	test	<img class = center src='/static/experiments/beast_fmri_test/images/redD.png'></img>	stop	1850.0	2.0	32.0	stop	non-target	D	89,Middle Finger	71,Index Finger	900.0	900.0	1800.0	1850.0	0.0	0.0	900.0	n/a	go_stim
149660.16022110963	1850.0	n/a	1154	71	2750	149.83977889	stim	stop-signal	452	1233569	0.0-19.32-1.32	beast_fmri_test	359	1231029,/,1231709,/,1232387,/,1233067,/	t,t,t,t	<img class = center src='/static/experiments/beast_fmri_test/images/D.png'></img>	89,71	2750.0	test	<img class = center src='/static/experiments/beast_fmri_test/images/redD.png'></img>	stop	1850.0	2.0	32.0	stop	non-target	D	89,Middle Finger	71,Index Finger	900.0	900.0	1800.0	1850.0	0.0	0.0	900.0	n/a	stop_stim
150560.16022110963	149.83977889028091	n/a	1154	71	2750	149.83977889	stim	stop-signal	452	1233569	0.0-19.32-1.32	beast_fmri_test	359	1231029,/,1231709,/,1232387,/,1233067,/	t,t,t,t	<img class = center src='/static/experiments/beast_fmri_test/images/D.png'></img>	89,71	2750.0	test	<img class = center src='/static/experiments/beast_fmri_test/images/redD.png'></img>	stop	1850.0	2.0	32.0	stop	non-target	D	89,Middle Finger	71,Index Finger	900.0	900.0	1800.0	1850.0	0.0	0.0	900.0	n/a	ITI
151411	500	n/a	-1	-1	500	0.0	fixation	poldrack-single-stim	453	1234270	0.0-19.33-0.33	beast_fmri_test	359	1233769,/	t	<div class = centerbox2><div class = fixation>+</div></div>	none	500.0	test	n/a	n/a	n/a	n/a	n/a	n/a	n/a	n/a	n/a	n/a	n/a	n/a	n/a	n/a	n/a	n/a	n/a	n/a	fixation
149076.14647979289	900.0	n/a	1355	89	2750	2337.85352021	stim	stop-signal	454	1237023	0.0-19.33-1.33	beast_fmri_test	359	1234427,/,1235108,/,1235786,/,1236466,/,1237145,/,1237826,/,1238505,/,1239185,/	t,t,t,t,t,t,t,t	<img class = center src='/static/experiments/beast_fmri_test/images/V.png'></img>	89,71	2750.0	test	<img class = center src='/static/experiments/beast_fmri_test/images/redV.png'></img>	stop	1850.0	2.0	33.0	stop	target	V	89,Middle Finger	71,Index Finger	900.0	850.0	1850.0	1850.0	0.0	0.0	900.0	n/a	go_stim
150926.14647979289	1850.0	n/a	1355	89	2750	2337.85352021	stim	stop-signal	454	1237023	0.0-19.33-1.33	beast_fmri_test	359	1234427,/,1235108,/,1235786,/,1236466,/,1237145,/,1237826,/,1238505,/,1239185,/	t,t,t,t,t,t,t,t	<img class = center src='/static/experiments/beast_fmri_test/images/V.png'></img>	89,71	2750.0	test	<img class = center src='/static/experiments/beast_fmri_test/images/redV.png'></img>	stop	1850.0	2.0	33.0	stop	target	V	89,Middle Finger	71,Index Finger	900.0	850.0	1850.0	1850.0	0.0	0.0	900.0	n/a	stop_stim
151826.14647979289	2337.8535202072226	n/a	1355	89	2750	2337.85352021	stim	stop-signal	454	1237023	0.0-19.33-1.33	beast_fmri_test	359	1234427,/,1235108,/,1235786,/,1236466,/,1237145,/,1237826,/,1238505,/,1239185,/	t,t,t,t,t,t,t,t	<img class = center src='/static/experiments/beast_fmri_test/images/V.png'></img>	89,71	2750.0	test	<img class = center src='/static/experiments/beast_fmri_test/images/redV.png'></img>	stop	1850.0	2.0	33.0	stop	target	V	89,Middle Finger	71,Index Finger	900.0	850.0	1850.0	1850.0	0.0	0.0	900.0	n/a	ITI
157051	500	n/a	-1	-1	500	0.0	fixation	poldrack-single-stim	455	1239910	0.0-19.34-0.34	beast_fmri_test	359	1239865,/	t	<div class = centerbox2><div class = fixation>+</div></div>	none	500.0	test	n/a	n/a	n/a	n/a	n/a	n/a	n/a	n/a	n/a	n/a	n/a	n/a	n/a	n/a	n/a	n/a	n/a	n/a	fixation
156392.05540668336	850.0	n/a	1054	71	2750	659.944593317	stim	stop-signal	456	1242661	0.0-19.34-1.34	beast_fmri_test	359	1240544,/,1241224,/,1241904,/,1242583,/,1243264,/	t,t,t,t,t	<img class = center src='/static/experiments/beast_fmri_test/images/P.png'></img>	89,71	2750.0	test	<img class = center src='/static/experiments/beast_fmri_test/images/redP.png'></img>	stop	1900.0	2.0	34.0	stop	non-target	P	89,Middle Finger	71,Index Finger	850.0	850.0	1850.0	1900.0	0.0	0.0	850.0	n/a	go_stim
158292.05540668336	1900.0	n/a	1054	71	2750	659.944593317	stim	stop-signal	456	1242661	0.0-19.34-1.34	beast_fmri_test	359	1240544,/,1241224,/,1241904,/,1242583,/,1243264,/	t,t,t,t,t	<img class = center src='/static/experiments/beast_fmri_test/images/P.png'></img>	89,71	2750.0	test	<img class = center src='/static/experiments/beast_fmri_test/images/redP.png'></img>	stop	1900.0	2.0	34.0	stop	non-target	P	89,Middle Finger	71,Index Finger	850.0	850.0	1850.0	1900.0	0.0	0.0	850.0	n/a	stop_stim
159142.05540668336	659.94459331664609	n/a	1054	71	2750	659.944593317	stim	stop-signal	456	1242661	0.0-19.34-1.34	beast_fmri_test	359	1240544,/,1241224,/,1241904,/,1242583,/,1243264,/	t,t,t,t,t	<img class = center src='/static/experiments/beast_fmri_test/images/P.png'></img>	89,71	2750.0	test	<img class = center src='/static/experiments/beast_fmri_test/images/redP.png'></img>	stop	1900.0	2.0	34.0	stop	non-target	P	89,Middle Finger	71,Index Finger	850.0	850.0	1850.0	1900.0	0.0	0.0	850.0	n/a	ITI
161014	500	n/a	-1	-1	500	0.0	fixation	poldrack-single-stim	457	1243873	0.0-19.35-0.35	beast_fmri_test	359	n/a	n/a	<div class = centerbox2><div class = fixation>+</div></div>	none	500.0	test	n/a	n/a	n/a	n/a	n/a	n/a	n/a	n/a	n/a	n/a	n/a	n/a	n/a	n/a	n/a	n/a	n/a	n/a	fixation
160216.16096876352	2750	n/a	996	89	2750	800.839031237	stim	stop-signal	458	1246626	0.0-19.35-1.35	beast_fmri_test	359	1243943,/,1244622,/,1245302,/,1245982,/,1246660,/,1247341,/	t,t,t,t,t,t	<img class = center src='/static/experiments/beast_fmri_test/images/V.png'></img>	89,71	2750.0	test	<img class = center src='/static/experiments/beast_fmri_test/images/redV.png'></img>	go	1900.0	2.0	35.0	go	target	V	89,Middle Finger	71,Index Finger	850.0	800.0	1900.0	1900.0	1.0	n/a	850.0	1.0	go_stim
162966.16096876352	800.83903123652237	n/a	996	89	2750	800.839031237	stim	stop-signal	458	1246626	0.0-19.35-1.35	beast_fmri_test	359	1243943,/,1244622,/,1245302,/,1245982,/,1246660,/,1247341,/	t,t,t,t,t,t	<img class = center src='/static/experiments/beast_fmri_test/images/V.png'></img>	89,71	2750.0	test	<img class = center src='/static/experiments/beast_fmri_test/images/redV.png'></img>	go	1900.0	2.0	35.0	go	target	V	89,Middle Finger	71,Index Finger	850.0	800.0	1900.0	1900.0	1.0	n/a	850.0	1.0	ITI
165120	500	n/a	-1	-1	500	0.0	fixation	poldrack-single-stim	459	1247979	0.0-19.36-0.36	beast_fmri_test	359	n/a	n/a	<div class = centerbox2><div class = fixation>+</div></div>	none	500.0	test	n/a	n/a	n/a	n/a	n/a	n/a	n/a	n/a	n/a	n/a	n/a	n/a	n/a	n/a	n/a	n/a	n/a	n/a	fixation
164043.83851211728	2750	n/a	1006	71	2750	1078.16148788	stim	stop-signal	460	1250731	0.0-19.36-1.36	beast_fmri_test	359	1248022,/,1248701,/,1249380,/,1250061,/,1250740,/,1251419,/	t,t,t,t,t,t	<img class = center src='/static/experiments/beast_fmri_test/images/D.png'></img>	89,71	2750.0	test	<img class = center src='/static/experiments/beast_fmri_test/images/redD.png'></img>	go	1950.0	2.0	36.0	go	non-target	D	89,Middle Finger	71,Index Finger	850.0	800.0	1900.0	1950.0	1.0	n/a	800.0	1.0	go_stim
166793.83851211728	1078.1614878827656	n/a	1006	71	2750	1078.16148788	stim	stop-signal	460	1250731	0.0-19.36-1.36	beast_fmri_test	359	1248022,/,1248701,/,1249380,/,1250061,/,1250740,/,1251419,/	t,t,t,t,t,t	<img class = center src='/static/experiments/beast_fmri_test/images/D.png'></img>	89,71	2750.0	test	<img class = center src='/static/experiments/beast_fmri_test/images/redD.png'></img>	go	1950.0	2.0	36.0	go	non-target	D	89,Middle Finger	71,Index Finger	850.0	800.0	1900.0	1950.0	1.0	n/a	800.0	1.0	ITI
169502	500	n/a	-1	-1	500	0.0	fixation	poldrack-single-stim	461	1252361	0.0-19.37-0.37	beast_fmri_test	359	1252100,/	t	<div class = centerbox2><div class = fixation>+</div></div>	none	500.0	test	n/a	n/a	n/a	n/a	n/a	n/a	n/a	n/a	n/a	n/a	n/a	n/a	n/a	n/a	n/a	n/a	n/a	n/a	fixation
167999.54759633727	2750	n/a	960	71	2750	1503.45240366	stim	stop-signal	462	1255112	0.0-19.37-1.37	beast_fmri_test	359	1252780,/,1253459,/,1254139,/,1254817,/,1255498,/,1256177,/	t,t,t,t,t,t	<img class = center src='/static/experiments/beast_fmri_test/images/T.png'></img>	89,71	2750.0	test	<img class = center src='/static/experiments/beast_fmri_test/images/redT.png'></img>	go	1950.0	2.0	37.0	go	non-target	T	89,Middle Finger	71,Index Finger	850.0	800.0	1900.0	1950.0	1.0	n/a	800.0	1.0	go_stim
170749.54759633727	1503.4524036627288	n/a	960	71	2750	1503.45240366	stim	stop-signal	462	1255112	0.0-19.37-1.37	beast_fmri_test	359	1252780,/,1253459,/,1254139,/,1254817,/,1255498,/,1256177,/	t,t,t,t,t,t	<img class = center src='/static/experiments/beast_fmri_test/images/T.png'></img>	89,71	2750.0	test	<img class = center src='/static/experiments/beast_fmri_test/images/redT.png'></img>	go	1950.0	2.0	37.0	go	non-target	T	89,Middle Finger	71,Index Finger	850.0	800.0	1900.0	1950.0	1.0	n/a	800.0	1.0	ITI
174313	500	n/a	-1	-1	500	0.0	fixation	poldrack-single-stim	463	1257172	0.0-19.38-0.38	beast_fmri_test	359	1256859,/	t	<div class = centerbox2><div class = fixation>+</div></div>	none	500.0	test	n/a	n/a	n/a	n/a	n/a	n/a	n/a	n/a	n/a	n/a	n/a	n/a	n/a	n/a	n/a	n/a	n/a	n/a	fixation
173337.35667670052	2750	n/a	1006	71	2750	976.6433233	stim	stop-signal	464	1259923	0.0-19.38-1.38	beast_fmri_test	359	1257538,/,1258217,/,1258896,/,1259576,/,1260255,/	t,t,t,t,t	<img class = center src='/static/experiments/beast_fmri_test/images/T.png'></img>	89,71	2750.0	test	<img class = center src='/static/experiments/beast_fmri_test/images/redT.png'></img>	go	1950.0	2.0	38.0	go	non-target	T	89,Middle Finger	71,Index Finger	850.0	800.0	1900.0	1950.0	1.0	n/a	800.0	1.0	go_stim
176087.35667670052	976.64332329952242	n/a	1006	71	2750	976.6433233	stim	stop-signal	464	1259923	0.0-19.38-1.38	beast_fmri_test	359	1257538,/,1258217,/,1258896,/,1259576,/,1260255,/	t,t,t,t,t	<img class = center src='/static/experiments/beast_fmri_test/images/T.png'></img>	89,71	2750.0	test	<img class = center src='/static/experiments/beast_fmri_test/images/redT.png'></img>	go	1950.0	2.0	38.0	go	non-target	T	89,Middle Finger	71,Index Finger	850.0	800.0	1900.0	1950.0	1.0	n/a	800.0	1.0	ITI
178597	500	n/a	-1	-1	500	0.0	fixation	poldrack-single-stim	465	1261456	0.0-19.39-0.39	beast_fmri_test	359	1260955,/	t	<div class = centerbox2><div class = fixation>+</div></div>	none	500.0	test	n/a	n/a	n/a	n/a	n/a	n/a	n/a	n/a	n/a	n/a	n/a	n/a	n/a	n/a	n/a	n/a	n/a	n/a	fixation
177964.03951525851	800.0	n/a	799	71	2750	633.960484742	stim	stop-signal	466	1264207	0.0-19.39-1.39	beast_fmri_test	359	1261615,/,1262294,/,1262975,/,1263655,/,1264332,/	t,t,t,t,t	<img class = center src='/static/experiments/beast_fmri_test/images/D.png'></img>	89,71	2750.0	test	<img class = center src='/static/experiments/beast_fmri_test/images/redD.png'></img>	stop	1950.0	2.0	39.0	stop	non-target	D	89,Middle Finger	71,Index Finger	850.0	800.0	1900.0	1950.0	0.0	0.0	800.0	n/a	go_stim
179914.03951525851	1950.0	n/a	799	71	2750	633.960484742	stim	stop-signal	466	1264207	0.0-19.39-1.39	beast_fmri_test	359	1261615,/,1262294,/,1262975,/,1263655,/,1264332,/	t,t,t,t,t	<img class = center src='/static/experiments/beast_fmri_test/images/D.png'></img>	89,71	2750.0	test	<img class = center src='/static/experiments/beast_fmri_test/images/redD.png'></img>	stop	1950.0	2.0	39.0	stop	non-target	D	89,Middle Finger	71,Index Finger	850.0	800.0	1900.0	1950.0	0.0	0.0	800.0	n/a	stop_stim
180714.03951525851	633.96048474151553	n/a	799	71	2750	633.960484742	stim	stop-signal	466	1264207	0.0-19.39-1.39	beast_fmri_test	359	1261615,/,1262294,/,1262975,/,1263655,/,1264332,/	t,t,t,t,t	<img class = center src='/static/experiments/beast_fmri_test/images/D.png'></img>	89,71	2750.0	test	<img class = center src='/static/experiments/beast_fmri_test/images/redD.png'></img>	stop	1950.0	2.0	39.0	stop	non-target	D	89,Middle Finger	71,Index Finger	850.0	800.0	1900.0	1950.0	0.0	0.0	800.0	n/a	ITI
182532	500	n/a	-1	-1	500	0.0	fixation	poldrack-single-stim	467	1265391	0.0-19.40-0.40	beast_fmri_test	359	1265014,/	t	<div class = centerbox2><div class = fixation>+</div></div>	none	500.0	test	n/a	n/a	n/a	n/a	n/a	n/a	n/a	n/a	n/a	n/a	n/a	n/a	n/a	n/a	n/a	n/a	n/a	n/a	fixation
181502.17659885646	2750	n/a	1401	71	2750	1031.82340114	stim	stop-signal	468	1268143	0.0-19.40-1.40	beast_fmri_test	359	1265692,/,1266372,/,1267052,/,1267732,/,1268411,/,1269091,/	t,t,t,t,t,t	<img class = center src='/static/experiments/beast_fmri_test/images/D.png'></img>	89,71	2750.0	test	<img class = center src='/static/experiments/beast_fmri_test/images/redD.png'></img>	go	2000.0	2.0	40.0	go	non-target	D	89,Middle Finger	71,Index Finger	850.0	750.0	1900.0	2000.0	1.0	n/a	750.0	1.0	go_stim
184252.17659885646	1031.8234011436284	n/a	1401	71	2750	1031.82340114	stim	stop-signal	468	1268143	0.0-19.40-1.40	beast_fmri_test	359	1265692,/,1266372,/,1267052,/,1267732,/,1268411,/,1269091,/	t,t,t,t,t,t	<img class = center src='/static/experiments/beast_fmri_test/images/D.png'></img>	89,71	2750.0	test	<img class = center src='/static/experiments/beast_fmri_test/images/redD.png'></img>	go	2000.0	2.0	40.0	go	non-target	D	89,Middle Finger	71,Index Finger	850.0	750.0	1900.0	2000.0	1.0	n/a	750.0	1.0	ITI
186865	500	n/a	-1	-1	500	0.0	fixation	poldrack-single-stim	469	1269724	0.0-19.41-0.41	beast_fmri_test	359	n/a	n/a	<div class = centerbox2><div class = fixation>+</div></div>	none	500.0	test	n/a	n/a	n/a	n/a	n/a	n/a	n/a	n/a	n/a	n/a	n/a	n/a	n/a	n/a	n/a	n/a	n/a	n/a	fixation
186369.65694819856	750.0	n/a	-1	-1	2750	496.343051801	stim	stop-signal	470	1272475	0.0-19.41-1.41	beast_fmri_test	359	1269770,/,1270450,/,1271131,/,1271810,/,1272489,/	t,t,t,t,t	<img class = center src='/static/experiments/beast_fmri_test/images/T.png'></img>	89,71	2750.0	test	<img class = center src='/static/experiments/beast_fmri_test/images/redT.png'></img>	stop	2000.0	2.0	41.0	stop	non-target	T	89,Middle Finger	71,Index Finger	850.0	750.0	1900.0	2000.0	0.0	1.0	750.0	n/a	go_stim
188369.65694819856	2000.0	n/a	-1	-1	2750	496.343051801	stim	stop-signal	470	1272475	0.0-19.41-1.41	beast_fmri_test	359	1269770,/,1270450,/,1271131,/,1271810,/,1272489,/	t,t,t,t,t	<img class = center src='/static/experiments/beast_fmri_test/images/T.png'></img>	89,71	2750.0	test	<img class = center src='/static/experiments/beast_fmri_test/images/redT.png'></img>	stop	2000.0	2.0	41.0	stop	non-target	T	89,Middle Finger	71,Index Finger	850.0	750.0	1900.0	2000.0	0.0	1.0	750.0	n/a	stop_stim
189119.65694819856	496.34305180139086	n/a	-1	-1	2750	496.343051801	stim	stop-signal	470	1272475	0.0-19.41-1.41	beast_fmri_test	359	1269770,/,1270450,/,1271131,/,1271810,/,1272489,/	t,t,t,t,t	<img class = center src='/static/experiments/beast_fmri_test/images/T.png'></img>	89,71	2750.0	test	<img class = center src='/static/experiments/beast_fmri_test/images/redT.png'></img>	stop	2000.0	2.0	41.0	stop	non-target	T	89,Middle Finger	71,Index Finger	850.0	750.0	1900.0	2000.0	0.0	1.0	750.0	n/a	ITI
190661	500	n/a	-1	-1	500	0.0	fixation	poldrack-single-stim	471	1273520	0.0-19.42-0.42	beast_fmri_test	359	1273169,/	t	<div class = centerbox2><div class = fixation>+</div></div>	none	500.0	test	n/a	n/a	n/a	n/a	n/a	n/a	n/a	n/a	n/a	n/a	n/a	n/a	n/a	n/a	n/a	n/a	n/a	n/a	fixation
190453.15771081438	2750	n/a	1436	89	2750	209.842289186	stim	stop-signal	472	1276272	0.0-19.42-1.42	beast_fmri_test	359	1273849,/,1274529,/,1275209,/,1275888,/	t,t,t,t	<img class = center src='/static/experiments/beast_fmri_test/images/D.png'></img>	89,71	2750.0	test	<img class = center src='/static/experiments/beast_fmri_test/images/redD.png'></img>	go	1900.0	2.0	42.0	go	target	D	89,Middle Finger	71,Index Finger	850.0	800.0	1900.0	2000.0	1.0	n/a	850.0	1.0	go_stim
193203.15771081438	209.84228918554496	n/a	1436	89	2750	209.842289186	stim	stop-signal	472	1276272	0.0-19.42-1.42	beast_fmri_test	359	1273849,/,1274529,/,1275209,/,1275888,/	t,t,t,t	<img class = center src='/static/experiments/beast_fmri_test/images/D.png'></img>	89,71	2750.0	test	<img class = center src='/static/experiments/beast_fmri_test/images/redD.png'></img>	go	1900.0	2.0	42.0	go	target	D	89,Middle Finger	71,Index Finger	850.0	800.0	1900.0	2000.0	1.0	n/a	850.0	1.0	ITI
194173	500	n/a	-1	-1	500	0.0	fixation	poldrack-single-stim	473	1277032	0.0-19.43-0.43	beast_fmri_test	359	1276572,/	t	<div class = centerbox2><div class = fixation>+</div></div>	none	500.0	test	n/a	n/a	n/a	n/a	n/a	n/a	n/a	n/a	n/a	n/a	n/a	n/a	n/a	n/a	n/a	n/a	n/a	n/a	fixation
193739.26057766122	2750	n/a	1105	71	2750	435.739422339	stim	stop-signal	474	1279784	0.0-19.43-1.43	beast_fmri_test	359	1277248,/,1277928,/,1278607,/,1279288,/,1279967,/	t,t,t,t,t	<img class = center src='/static/experiments/beast_fmri_test/images/V.png'></img>	89,71	2750.0	test	<img class = center src='/static/experiments/beast_fmri_test/images/redV.png'></img>	go	1950.0	2.0	43.0	go	non-target	V	89,Middle Finger	71,Index Finger	850.0	800.0	1900.0	1950.0	1.0	n/a	800.0	1.0	go_stim
196489.26057766122	435.73942233878768	n/a	1105	71	2750	435.739422339	stim	stop-signal	474	1279784	0.0-19.43-1.43	beast_fmri_test	359	1277248,/,1277928,/,1278607,/,1279288,/,1279967,/	t,t,t,t,t	<img class = center src='/static/experiments/beast_fmri_test/images/V.png'></img>	89,71	2750.0	test	<img class = center src='/static/experiments/beast_fmri_test/images/redV.png'></img>	go	1950.0	2.0	43.0	go	non-target	V	89,Middle Finger	71,Index Finger	850.0	800.0	1900.0	1950.0	1.0	n/a	800.0	1.0	ITI
197908	500	n/a	-1	-1	500	0.0	fixation	poldrack-single-stim	475	1280767	0.0-19.44-0.44	beast_fmri_test	359	1280646,/	t	<div class = centerbox2><div class = fixation>+</div></div>	none	500.0	test	n/a	n/a	n/a	n/a	n/a	n/a	n/a	n/a	n/a	n/a	n/a	n/a	n/a	n/a	n/a	n/a	n/a	n/a	fixation
196894.34780418081	2750	n/a	1308	89	2750	1015.65219582	stim	stop-signal	476	1283519	0.0-19.44-1.44	beast_fmri_test	359	1281326,/,1282006,/,1282685,/,1283364,/,1284044,/	t,t,t,t,t	<img class = center src='/static/experiments/beast_fmri_test/images/D.png'></img>	89,71	2750.0	test	<img class = center src='/static/experiments/beast_fmri_test/images/redD.png'></img>	go	1900.0	2.0	44.0	go	target	D	89,Middle Finger	71,Index Finger	850.0	800.0	1900.0	1950.0	1.0	n/a	850.0	1.0	go_stim
199644.34780418081	1015.6521958192944	n/a	1308	89	2750	1015.65219582	stim	stop-signal	476	1283519	0.0-19.44-1.44	beast_fmri_test	359	1281326,/,1282006,/,1282685,/,1283364,/,1284044,/	t,t,t,t,t	<img class = center src='/static/experiments/beast_fmri_test/images/D.png'></img>	89,71	2750.0	test	<img class = center src='/static/experiments/beast_fmri_test/images/redD.png'></img>	go	1900.0	2.0	44.0	go	target	D	89,Middle Finger	71,Index Finger	850.0	800.0	1900.0	1950.0	1.0	n/a	850.0	1.0	ITI
202226	500	n/a	-1	-1	500	0.0	fixation	poldrack-single-stim	477	1285085	0.0-19.45-0.45	beast_fmri_test	359	1284723,/	t	<div class = centerbox2><div class = fixation>+</div></div>	none	500.0	test	n/a	n/a	n/a	n/a	n/a	n/a	n/a	n/a	n/a	n/a	n/a	n/a	n/a	n/a	n/a	n/a	n/a	n/a	fixation
201878.20625449647	2750	n/a	893	71	2750	349.793745504	stim	stop-signal	478	1287837	0.0-19.45-1.45	beast_fmri_test	359	1285405,/,1286084,/,1286764,/,1287442,/,1288123,/	t,t,t,t,t	<img class = center src='/static/experiments/beast_fmri_test/images/B.png'></img>	89,71	2750.0	test	<img class = center src='/static/experiments/beast_fmri_test/images/redB.png'></img>	go	1950.0	2.0	45.0	go	non-target	B	89,Middle Finger	71,Index Finger	850.0	800.0	1900.0	1950.0	1.0	n/a	800.0	1.0	go_stim
204628.20625449647	349.79374550360671	n/a	893	71	2750	349.793745504	stim	stop-signal	478	1287837	0.0-19.45-1.45	beast_fmri_test	359	1285405,/,1286084,/,1286764,/,1287442,/,1288123,/	t,t,t,t,t	<img class = center src='/static/experiments/beast_fmri_test/images/B.png'></img>	89,71	2750.0	test	<img class = center src='/static/experiments/beast_fmri_test/images/redB.png'></img>	go	1950.0	2.0	45.0	go	non-target	B	89,Middle Finger	71,Index Finger	850.0	800.0	1900.0	1950.0	1.0	n/a	800.0	1.0	ITI
205876	500	n/a	-1	-1	500	0.0	fixation	poldrack-single-stim	479	1288735	0.0-19.46-0.46	beast_fmri_test	359	n/a	n/a	<div class = centerbox2><div class = fixation>+</div></div>	none	500.0	test	n/a	n/a	n/a	n/a	n/a	n/a	n/a	n/a	n/a	n/a	n/a	n/a	n/a	n/a	n/a	n/a	n/a	n/a	fixation
204137.81943995599	2750	n/a	893	71	2750	1739.18056004	stim	stop-signal	480	1291486	0.0-19.46-1.46	beast_fmri_test	359	1288802,/,1289483,/,1290161,/,1290842,/,1291521,/,1292200,/,1292880,/	t,t,t,t,t,t,t	<img class = center src='/static/experiments/beast_fmri_test/images/T.png'></img>	89,71	2750.0	test	<img class = center src='/static/experiments/beast_fmri_test/images/redT.png'></img>	go	1950.0	2.0	46.0	go	non-target	T	89,Middle Finger	71,Index Finger	850.0	800.0	1900.0	1950.0	1.0	n/a	800.0	1.0	go_stim
206887.81943995599	1739.1805600440814	n/a	893	71	2750	1739.18056004	stim	stop-signal	480	1291486	0.0-19.46-1.46	beast_fmri_test	359	1288802,/,1289483,/,1290161,/,1290842,/,1291521,/,1292200,/,1292880,/	t,t,t,t,t,t,t	<img class = center src='/static/experiments/beast_fmri_test/images/T.png'></img>	89,71	2750.0	test	<img class = center src='/static/experiments/beast_fmri_test/images/redT.png'></img>	go	1950.0	2.0	46.0	go	non-target	T	89,Middle Finger	71,Index Finger	850.0	800.0	1900.0	1950.0	1.0	n/a	800.0	1.0	ITI
225411	15000	n/a	-1	-1	15000	0.0	practice-no-stop-feedback	poldrack-single-stim	481	1308270	0.0-20.0	beast_fmri_test	359	1293561,/,1294240,/,1294919,/,1295599,/,1296279,/,1296958,/,1297637,/,1298319,/,1298997,/,1299678,/,1300357,/,1301037,/,1301715,/,1302395,/,1303075,/,1303754,/,1304434,/,1305114,/,1305794,/,1306475,/,1307153,/,1307835,/	t,t,t,t,t,t,t,t,t,t,t,t,t,t,t,t,t,t,t,t,t,t	"<div class = ""centerbox""><p class = ""block-text"">Your delay is 3 trials.</p><p class = block-text>Please wait for the scanner to start the block</p></div>"	77	15000.0	n/a	n/a	n/a	n/a	n/a	n/a	n/a	n/a	n/a	n/a	n/a	n/a	n/a	n/a	n/a	n/a	n/a	n/a	n/a	practice-no-stop-feedback
225914	500	n/a	-1	-1	500	0.0	fixation	poldrack-single-stim	482	1308773	0.0-21.0-0.0	beast_fmri_test	359	1308514,/	t	<div class = centerbox2><div class = fixation>+</div></div>	none	500.0	test	n/a	n/a	n/a	n/a	n/a	n/a	n/a	n/a	n/a	n/a	n/a	n/a	n/a	n/a	n/a	n/a	n/a	n/a	fixation
223745.63851822959	2750	n/a	1105	71	2750	2171.36148177	stim	stop-signal	483	1311526	0.0-21.0-1.0	beast_fmri_test	359	1309194,/,1309873,/,1310553,/,1311232,/,1311921,/,1312592,/,1313272,/	t,t,t,t,t,t,t	<img class = center src='/static/experiments/beast_fmri_test/images/V.png'></img>	89,71	2750.0	test	<img class = center src='/static/experiments/beast_fmri_test/images/redV.png'></img>	go	-1.0	3.0	0.0	go	temp-non-target	V	89,Middle Finger	71,Index Finger	850.0	800.0	1900.0	1950.0	0.0	n/a	n/a	n/a	go_stim
226495.63851822959	2171.3614817704761	n/a	1105	71	2750	2171.36148177	stim	stop-signal	483	1311526	0.0-21.0-1.0	beast_fmri_test	359	1309194,/,1309873,/,1310553,/,1311232,/,1311921,/,1312592,/,1313272,/	t,t,t,t,t,t,t	<img class = center src='/static/experiments/beast_fmri_test/images/V.png'></img>	89,71	2750.0	test	<img class = center src='/static/experiments/beast_fmri_test/images/redV.png'></img>	go	-1.0	3.0	0.0	go	temp-non-target	V	89,Middle Finger	71,Index Finger	850.0	800.0	1900.0	1950.0	0.0	n/a	n/a	n/a	ITI
231387	500	n/a	-1	-1	500	0.0	fixation	poldrack-single-stim	484	1314246	0.0-21.1-0.1	beast_fmri_test	359	1313952,/	t	<div class = centerbox2><div class = fixation>+</div></div>	none	500.0	test	n/a	n/a	n/a	n/a	n/a	n/a	n/a	n/a	n/a	n/a	n/a	n/a	n/a	n/a	n/a	n/a	n/a	n/a	fixation
229103.57062541624	temp_go_duration	n/a	1037	71	2750	2285.42937458	stim	stop-signal	485	1316998	0.0-21.1-1.1	beast_fmri_test	359	1314631,/,1315310,/,1315989,/,1316670,/,1317350,/,1318030,/,1318709,/	t,t,t,t,t,t,t	<img class = center src='/static/experiments/beast_fmri_test/images/D.png'></img>	89,71	2750.0	test	<img class = center src='/static/experiments/beast_fmri_test/images/redD.png'></img>	stop	-1.0	3.0	1.0	stop	temp-non-target	D	89,Middle Finger	71,Index Finger	850.0	800.0	1900.0	1950.0	0.0	0.0	n/a	n/a	go_stim
temp-non-target	temp_stop_duration	n/a	1037	71	2750	2285.42937458	stim	stop-signal	485	1316998	0.0-21.1-1.1	beast_fmri_test	359	1314631,/,1315310,/,1315989,/,1316670,/,1317350,/,1318030,/,1318709,/	t,t,t,t,t,t,t	<img class = center src='/static/experiments/beast_fmri_test/images/D.png'></img>	89,71	2750.0	test	<img class = center src='/static/experiments/beast_fmri_test/images/redD.png'></img>	stop	-1.0	3.0	1.0	stop	temp-non-target	D	89,Middle Finger	71,Index Finger	850.0	800.0	1900.0	1950.0	0.0	0.0	n/a	n/a	stop_stim
231853.57062541624	2285.4293745836649	n/a	1037	71	2750	2285.42937458	stim	stop-signal	485	1316998	0.0-21.1-1.1	beast_fmri_test	359	1314631,/,1315310,/,1315989,/,1316670,/,1317350,/,1318030,/,1318709,/	t,t,t,t,t,t,t	<img class = center src='/static/experiments/beast_fmri_test/images/D.png'></img>	89,71	2750.0	test	<img class = center src='/static/experiments/beast_fmri_test/images/redD.png'></img>	stop	-1.0	3.0	1.0	stop	temp-non-target	D	89,Middle Finger	71,Index Finger	850.0	800.0	1900.0	1950.0	0.0	0.0	n/a	n/a	ITI
236975	500	n/a	-1	-1	500	0.0	fixation	poldrack-single-stim	486	1319834	0.0-21.2-0.2	beast_fmri_test	359	1319388,/	t	<div class = centerbox2><div class = fixation>+</div></div>	none	500.0	test	n/a	n/a	n/a	n/a	n/a	n/a	n/a	n/a	n/a	n/a	n/a	n/a	n/a	n/a	n/a	n/a	n/a	n/a	fixation
236251.82055497682	2750	n/a	1104	71	2750	723.179445023	stim	stop-signal	487	1322584	0.0-21.2-1.2	beast_fmri_test	359	1320068,/,1320747,/,1321426,/,1322106,/,1322786,/	t,t,t,t,t	<img class = center src='/static/experiments/beast_fmri_test/images/P.png'></img>	89,71	2750.0	test	<img class = center src='/static/experiments/beast_fmri_test/images/redP.png'></img>	go	-1.0	3.0	2.0	go	temp-non-target	P	89,Middle Finger	71,Index Finger	850.0	800.0	1900.0	1950.0	0.0	n/a	n/a	n/a	go_stim
239001.82055497682	723.17944502313901	n/a	1104	71	2750	723.179445023	stim	stop-signal	487	1322584	0.0-21.2-1.2	beast_fmri_test	359	1320068,/,1320747,/,1321426,/,1322106,/,1322786,/	t,t,t,t,t	<img class = center src='/static/experiments/beast_fmri_test/images/P.png'></img>	89,71	2750.0	test	<img class = center src='/static/experiments/beast_fmri_test/images/redP.png'></img>	go	-1.0	3.0	2.0	go	temp-non-target	P	89,Middle Finger	71,Index Finger	850.0	800.0	1900.0	1950.0	0.0	n/a	n/a	n/a	ITI
241002	500	n/a	-1	-1	500	0.0	fixation	poldrack-single-stim	488	1323861	0.0-21.3-0.3	beast_fmri_test	359	1323466,/	t	<div class = centerbox2><div class = fixation>+</div></div>	none	500.0	test	n/a	n/a	n/a	n/a	n/a	n/a	n/a	n/a	n/a	n/a	n/a	n/a	n/a	n/a	n/a	n/a	n/a	n/a	fixation
239615.66766720661	850.0	n/a	-1	-1	2750	1386.33233279	stim	stop-signal	489	1326611	0.0-21.3-1.3	beast_fmri_test	359	1324146,/,1324826,/,1325505,/,1326184,/,1326865,/,1327544,/	t,t,t,t,t,t	<img class = center src='/static/experiments/beast_fmri_test/images/V.png'></img>	89,71	2750.0	test	<img class = center src='/static/experiments/beast_fmri_test/images/redV.png'></img>	stop	1900.0	3.0	3.0	stop	target	V	89,Middle Finger	71,Index Finger	850.0	800.0	1900.0	1950.0	0.0	1.0	850.0	n/a	go_stim
241515.66766720661	1900.0	n/a	-1	-1	2750	1386.33233279	stim	stop-signal	489	1326611	0.0-21.3-1.3	beast_fmri_test	359	1324146,/,1324826,/,1325505,/,1326184,/,1326865,/,1327544,/	t,t,t,t,t,t	<img class = center src='/static/experiments/beast_fmri_test/images/V.png'></img>	89,71	2750.0	test	<img class = center src='/static/experiments/beast_fmri_test/images/redV.png'></img>	stop	1900.0	3.0	3.0	stop	target	V	89,Middle Finger	71,Index Finger	850.0	800.0	1900.0	1950.0	0.0	1.0	850.0	n/a	stop_stim
242365.66766720661	1386.3323327934952	n/a	-1	-1	2750	1386.33233279	stim	stop-signal	489	1326611	0.0-21.3-1.3	beast_fmri_test	359	1324146,/,1324826,/,1325505,/,1326184,/,1326865,/,1327544,/	t,t,t,t,t,t	<img class = center src='/static/experiments/beast_fmri_test/images/V.png'></img>	89,71	2750.0	test	<img class = center src='/static/experiments/beast_fmri_test/images/redV.png'></img>	stop	1900.0	3.0	3.0	stop	target	V	89,Middle Finger	71,Index Finger	850.0	800.0	1900.0	1950.0	0.0	1.0	850.0	n/a	ITI
245696	500	n/a	-1	-1	500	0.0	fixation	poldrack-single-stim	490	1328555	0.0-21.4-0.4	beast_fmri_test	359	1328225,/	t	<div class = centerbox2><div class = fixation>+</div></div>	none	500.0	test	n/a	n/a	n/a	n/a	n/a	n/a	n/a	n/a	n/a	n/a	n/a	n/a	n/a	n/a	n/a	n/a	n/a	n/a	fixation
244882.4106109899	2750	n/a	1058	71	2750	815.58938901	stim	stop-signal	491	1331307	0.0-21.4-1.4	beast_fmri_test	359	1328904,/,1329583,/,1330262,/,1330943,/,1331623,/	t,t,t,t,t	<img class = center src='/static/experiments/beast_fmri_test/images/V.png'></img>	89,71	2750.0	test	<img class = center src='/static/experiments/beast_fmri_test/images/redV.png'></img>	go	1950.0	3.0	4.0	go	non-target	V	89,Middle Finger	71,Index Finger	900.0	800.0	1900.0	1950.0	1.0	n/a	800.0	1.0	go_stim
247632.4106109899	815.58938901019201	n/a	1058	71	2750	815.58938901	stim	stop-signal	491	1331307	0.0-21.4-1.4	beast_fmri_test	359	1328904,/,1329583,/,1330262,/,1330943,/,1331623,/	t,t,t,t,t	<img class = center src='/static/experiments/beast_fmri_test/images/V.png'></img>	89,71	2750.0	test	<img class = center src='/static/experiments/beast_fmri_test/images/redV.png'></img>	go	1950.0	3.0	4.0	go	non-target	V	89,Middle Finger	71,Index Finger	900.0	800.0	1900.0	1950.0	1.0	n/a	800.0	1.0	ITI
249820	500	n/a	-1	-1	500	0.0	fixation	poldrack-single-stim	492	1332679	0.0-21.5-0.5	beast_fmri_test	359	1332302,/	t	<div class = centerbox2><div class = fixation>+</div></div>	none	500.0	test	n/a	n/a	n/a	n/a	n/a	n/a	n/a	n/a	n/a	n/a	n/a	n/a	n/a	n/a	n/a	n/a	n/a	n/a	fixation
247833.96728652087	2750	n/a	1135	71	2750	1987.03271348	stim	stop-signal	493	1335430	0.0-21.5-1.5	beast_fmri_test	359	1332982,/,1333662,/,1334340,/,1335021,/,1335701,/,1336381,/,1337061,/	t,t,t,t,t,t,t	<img class = center src='/static/experiments/beast_fmri_test/images/B.png'></img>	89,71	2750.0	test	<img class = center src='/static/experiments/beast_fmri_test/images/redB.png'></img>	go	1950.0	3.0	5.0	go	non-target	B	89,Middle Finger	71,Index Finger	900.0	800.0	1900.0	1950.0	1.0	n/a	800.0	1.0	go_stim
250583.96728652087	1987.0327134790866	n/a	1135	71	2750	1987.03271348	stim	stop-signal	493	1335430	0.0-21.5-1.5	beast_fmri_test	359	1332982,/,1333662,/,1334340,/,1335021,/,1335701,/,1336381,/,1337061,/	t,t,t,t,t,t,t	<img class = center src='/static/experiments/beast_fmri_test/images/B.png'></img>	89,71	2750.0	test	<img class = center src='/static/experiments/beast_fmri_test/images/redB.png'></img>	go	1950.0	3.0	5.0	go	non-target	B	89,Middle Finger	71,Index Finger	900.0	800.0	1900.0	1950.0	1.0	n/a	800.0	1.0	ITI
255116	500	n/a	-1	-1	500	0.0	fixation	poldrack-single-stim	494	1337975	0.0-21.6-0.6	beast_fmri_test	359	1337741,/	t	<div class = centerbox2><div class = fixation>+</div></div>	none	500.0	test	n/a	n/a	n/a	n/a	n/a	n/a	n/a	n/a	n/a	n/a	n/a	n/a	n/a	n/a	n/a	n/a	n/a	n/a	fixation
253447.33521442325	900.0	n/a	1045	89	2750	1670.66478558	stim	stop-signal	495	1340727	0.0-21.6-1.6	beast_fmri_test	359	1338421,/,1339099,/,1339778,/,1340459,/,1341139,/,1341819,/	t,t,t,t,t,t	<img class = center src='/static/experiments/beast_fmri_test/images/V.png'></img>	89,71	2750.0	test	<img class = center src='/static/experiments/beast_fmri_test/images/redV.png'></img>	stop	1850.0	3.0	6.0	stop	target	V	89,Middle Finger	71,Index Finger	900.0	800.0	1850.0	1950.0	0.0	0.0	900.0	n/a	go_stim
255297.33521442325	1850.0	n/a	1045	89	2750	1670.66478558	stim	stop-signal	495	1340727	0.0-21.6-1.6	beast_fmri_test	359	1338421,/,1339099,/,1339778,/,1340459,/,1341139,/,1341819,/	t,t,t,t,t,t	<img class = center src='/static/experiments/beast_fmri_test/images/V.png'></img>	89,71	2750.0	test	<img class = center src='/static/experiments/beast_fmri_test/images/redV.png'></img>	stop	1850.0	3.0	6.0	stop	target	V	89,Middle Finger	71,Index Finger	900.0	800.0	1850.0	1950.0	0.0	0.0	900.0	n/a	stop_stim
256197.33521442325	1670.6647855767997	n/a	1045	89	2750	1670.66478558	stim	stop-signal	495	1340727	0.0-21.6-1.6	beast_fmri_test	359	1338421,/,1339099,/,1339778,/,1340459,/,1341139,/,1341819,/	t,t,t,t,t,t	<img class = center src='/static/experiments/beast_fmri_test/images/V.png'></img>	89,71	2750.0	test	<img class = center src='/static/experiments/beast_fmri_test/images/redV.png'></img>	stop	1850.0	3.0	6.0	stop	target	V	89,Middle Finger	71,Index Finger	900.0	800.0	1850.0	1950.0	0.0	0.0	900.0	n/a	ITI
260091	500	n/a	-1	-1	500	0.0	fixation	poldrack-single-stim	496	1342950	0.0-21.7-0.7	beast_fmri_test	359	1342497,/	t	<div class = centerbox2><div class = fixation>+</div></div>	none	500.0	test	n/a	n/a	n/a	n/a	n/a	n/a	n/a	n/a	n/a	n/a	n/a	n/a	n/a	n/a	n/a	n/a	n/a	n/a	fixation
259446.10534314346	2750	n/a	1033	71	2750	646.894656856	stim	stop-signal	497	1345702	0.0-21.7-1.7	beast_fmri_test	359	1343178,/,1343856,/,1344536,/,1345217,/,1345897,/	t,t,t,t,t	<img class = center src='/static/experiments/beast_fmri_test/images/D.png'></img>	89,71	2750.0	test	<img class = center src='/static/experiments/beast_fmri_test/images/redD.png'></img>	go	1950.0	3.0	7.0	go	non-target	D	89,Middle Finger	71,Index Finger	850.0	800.0	1850.0	1950.0	1.0	n/a	800.0	1.0	go_stim
262196.10534314346	646.89465685648634	n/a	1033	71	2750	646.894656856	stim	stop-signal	497	1345702	0.0-21.7-1.7	beast_fmri_test	359	1343178,/,1343856,/,1344536,/,1345217,/,1345897,/	t,t,t,t,t	<img class = center src='/static/experiments/beast_fmri_test/images/D.png'></img>	89,71	2750.0	test	<img class = center src='/static/experiments/beast_fmri_test/images/redD.png'></img>	go	1950.0	3.0	7.0	go	non-target	D	89,Middle Finger	71,Index Finger	850.0	800.0	1850.0	1950.0	1.0	n/a	800.0	1.0	ITI
264050	500	n/a	-1	-1	500	0.0	fixation	poldrack-single-stim	498	1346909	0.0-21.8-0.8	beast_fmri_test	359	1346576,/	t	<div class = centerbox2><div class = fixation>+</div></div>	none	500.0	test	n/a	n/a	n/a	n/a	n/a	n/a	n/a	n/a	n/a	n/a	n/a	n/a	n/a	n/a	n/a	n/a	n/a	n/a	fixation
263932.7345099079	2750	n/a	1934	71	2750	118.265490092	stim	stop-signal	499	1349660	0.0-21.8-1.8	beast_fmri_test	359	1347256,/,1347934,/,1348614,/,1349294,/	t,t,t,t	<img class = center src='/static/experiments/beast_fmri_test/images/B.png'></img>	89,71	2750.0	test	<img class = center src='/static/experiments/beast_fmri_test/images/redB.png'></img>	go	1900.0	3.0	8.0	go	target	B	89,Middle Finger	71,Index Finger	850.0	800.0	1900.0	1950.0	0.0	n/a	850.0	0.0	go_stim
266682.7345099079	118.26549009200848	n/a	1934	71	2750	118.265490092	stim	stop-signal	499	1349660	0.0-21.8-1.8	beast_fmri_test	359	1347256,/,1347934,/,1348614,/,1349294,/	t,t,t,t	<img class = center src='/static/experiments/beast_fmri_test/images/B.png'></img>	89,71	2750.0	test	<img class = center src='/static/experiments/beast_fmri_test/images/redB.png'></img>	go	1900.0	3.0	8.0	go	target	B	89,Middle Finger	71,Index Finger	850.0	800.0	1900.0	1950.0	0.0	n/a	850.0	0.0	ITI
267476	500	n/a	-1	-1	500	0.0	fixation	poldrack-single-stim	500	1350335	0.0-21.9-0.9	beast_fmri_test	359	1349973,/	t	<div class = centerbox2><div class = fixation>+</div></div>	none	500.0	test	n/a	n/a	n/a	n/a	n/a	n/a	n/a	n/a	n/a	n/a	n/a	n/a	n/a	n/a	n/a	n/a	n/a	n/a	fixation
264406.27283701766	2750	n/a	2581	71	2750	3071.72716298	stim	stop-signal	501	1353087	0.0-21.9-1.9	beast_fmri_test	359	1350654,/,1351334,/,1352014,/,1352694,/,1353373,/,1354051,/,1354731,/,1355412,/,1356091,/	t,t,t,t,t,t,t,t,t	<img class = center src='/static/experiments/beast_fmri_test/images/V.png'></img>	89,71	2750.0	test	<img class = center src='/static/experiments/beast_fmri_test/images/redV.png'></img>	go	1900.0	3.0	9.0	go	target	V	89,Middle Finger	71,Index Finger	850.0	800.0	1900.0	1950.0	0.0	n/a	850.0	0.0	go_stim
267156.27283701766	3071.727162982419	n/a	2581	71	2750	3071.72716298	stim	stop-signal	501	1353087	0.0-21.9-1.9	beast_fmri_test	359	1350654,/,1351334,/,1352014,/,1352694,/,1353373,/,1354051,/,1354731,/,1355412,/,1356091,/	t,t,t,t,t,t,t,t,t	<img class = center src='/static/experiments/beast_fmri_test/images/V.png'></img>	89,71	2750.0	test	<img class = center src='/static/experiments/beast_fmri_test/images/redV.png'></img>	go	1900.0	3.0	9.0	go	target	V	89,Middle Finger	71,Index Finger	850.0	800.0	1900.0	1950.0	0.0	n/a	850.0	0.0	ITI
273860	500	n/a	-1	-1	500	0.0	fixation	poldrack-single-stim	502	1356719	0.0-21.10-0.10	beast_fmri_test	359	n/a	n/a	<div class = centerbox2><div class = fixation>+</div></div>	none	500.0	test	n/a	n/a	n/a	n/a	n/a	n/a	n/a	n/a	n/a	n/a	n/a	n/a	n/a	n/a	n/a	n/a	n/a	n/a	fixation
272818.09820321389	2750	n/a	1678	89	2750	1043.90179679	stim	stop-signal	503	1359471	0.0-21.10-1.10	beast_fmri_test	359	1356771,/,1357450,/,1358130,/,1358809,/,1359492,/,1360169,/	t,t,t,t,t,t	<img class = center src='/static/experiments/beast_fmri_test/images/B.png'></img>	89,71	2750.0	test	<img class = center src='/static/experiments/beast_fmri_test/images/redB.png'></img>	go	1950.0	3.0	10.0	go	non-target	B	89,Middle Finger	71,Index Finger	850.0	800.0	1900.0	1950.0	0.0	n/a	800.0	0.0	go_stim
275568.09820321389	1043.9017967861646	n/a	1678	89	2750	1043.90179679	stim	stop-signal	503	1359471	0.0-21.10-1.10	beast_fmri_test	359	1356771,/,1357450,/,1358130,/,1358809,/,1359492,/,1360169,/	t,t,t,t,t,t	<img class = center src='/static/experiments/beast_fmri_test/images/B.png'></img>	89,71	2750.0	test	<img class = center src='/static/experiments/beast_fmri_test/images/redB.png'></img>	go	1950.0	3.0	10.0	go	non-target	B	89,Middle Finger	71,Index Finger	850.0	800.0	1900.0	1950.0	0.0	n/a	800.0	0.0	ITI
278214	500	n/a	-1	-1	500	0.0	fixation	poldrack-single-stim	504	1361073	0.0-21.11-0.11	beast_fmri_test	359	1360850,/	t	<div class = centerbox2><div class = fixation>+</div></div>	none	500.0	test	n/a	n/a	n/a	n/a	n/a	n/a	n/a	n/a	n/a	n/a	n/a	n/a	n/a	n/a	n/a	n/a	n/a	n/a	fixation
277808.81566966581	800.0	n/a	-1	-1	2750	407.184330334	stim	stop-signal	505	1363825	0.0-21.11-1.11	beast_fmri_test	359	1361528,/,1362208,/,1362888,/,1363569,/	t,t,t,t	<img class = center src='/static/experiments/beast_fmri_test/images/D.png'></img>	89,71	2750.0	test	<img class = center src='/static/experiments/beast_fmri_test/images/redD.png'></img>	stop	1950.0	3.0	11.0	stop	non-target	D	89,Middle Finger	71,Index Finger	850.0	800.0	1900.0	1950.0	0.0	1.0	800.0	n/a	go_stim
279758.81566966581	1950.0	n/a	-1	-1	2750	407.184330334	stim	stop-signal	505	1363825	0.0-21.11-1.11	beast_fmri_test	359	1361528,/,1362208,/,1362888,/,1363569,/	t,t,t,t	<img class = center src='/static/experiments/beast_fmri_test/images/D.png'></img>	89,71	2750.0	test	<img class = center src='/static/experiments/beast_fmri_test/images/redD.png'></img>	stop	1950.0	3.0	11.0	stop	non-target	D	89,Middle Finger	71,Index Finger	850.0	800.0	1900.0	1950.0	0.0	1.0	800.0	n/a	stop_stim
280558.81566966581	407.18433033417887	n/a	-1	-1	2750	407.184330334	stim	stop-signal	505	1363825	0.0-21.11-1.11	beast_fmri_test	359	1361528,/,1362208,/,1362888,/,1363569,/	t,t,t,t	<img class = center src='/static/experiments/beast_fmri_test/images/D.png'></img>	89,71	2750.0	test	<img class = center src='/static/experiments/beast_fmri_test/images/redD.png'></img>	stop	1950.0	3.0	11.0	stop	non-target	D	89,Middle Finger	71,Index Finger	850.0	800.0	1900.0	1950.0	0.0	1.0	800.0	n/a	ITI
281937	500	n/a	-1	-1	500	0.0	fixation	poldrack-single-stim	506	1364796	0.0-21.12-0.12	beast_fmri_test	359	1364295,/	t	<div class = centerbox2><div class = fixation>+</div></div>	none	500.0	test	n/a	n/a	n/a	n/a	n/a	n/a	n/a	n/a	n/a	n/a	n/a	n/a	n/a	n/a	n/a	n/a	n/a	n/a	fixation
280688.95086002816	850.0	n/a	1130	71	2750	1250.04913997	stim	stop-signal	507	1367548	0.0-21.12-1.12	beast_fmri_test	359	1364928,/,1365607,/,1366286,/,1366966,/,1367646,/,1368326,/	t,t,t,t,t,t	<img class = center src='/static/experiments/beast_fmri_test/images/P.png'></img>	89,71	2750.0	test	<img class = center src='/static/experiments/beast_fmri_test/images/redP.png'></img>	stop	1900.0	3.0	12.0	stop	non-target	P	89,Middle Finger	71,Index Finger	850.0	850.0	1900.0	1900.0	0.0	0.0	850.0	n/a	go_stim
282588.95086002816	1900.0	n/a	1130	71	2750	1250.04913997	stim	stop-signal	507	1367548	0.0-21.12-1.12	beast_fmri_test	359	1364928,/,1365607,/,1366286,/,1366966,/,1367646,/,1368326,/	t,t,t,t,t,t	<img class = center src='/static/experiments/beast_fmri_test/images/P.png'></img>	89,71	2750.0	test	<img class = center src='/static/experiments/beast_fmri_test/images/redP.png'></img>	stop	1900.0	3.0	12.0	stop	non-target	P	89,Middle Finger	71,Index Finger	850.0	850.0	1900.0	1900.0	0.0	0.0	850.0	n/a	stop_stim
283438.95086002816	1250.0491399718774	n/a	1130	71	2750	1250.04913997	stim	stop-signal	507	1367548	0.0-21.12-1.12	beast_fmri_test	359	1364928,/,1365607,/,1366286,/,1366966,/,1367646,/,1368326,/	t,t,t,t,t,t	<img class = center src='/static/experiments/beast_fmri_test/images/P.png'></img>	89,71	2750.0	test	<img class = center src='/static/experiments/beast_fmri_test/images/redP.png'></img>	stop	1900.0	3.0	12.0	stop	non-target	P	89,Middle Finger	71,Index Finger	850.0	850.0	1900.0	1900.0	0.0	0.0	850.0	n/a	ITI
286496	500	n/a	-1	-1	500	0.0	fixation	poldrack-single-stim	508	1369355	0.0-21.13-0.13	beast_fmri_test	359	1369005,/	t	<div class = centerbox2><div class = fixation>+</div></div>	none	500.0	test	n/a	n/a	n/a	n/a	n/a	n/a	n/a	n/a	n/a	n/a	n/a	n/a	n/a	n/a	n/a	n/a	n/a	n/a	fixation
285611.34214919666	2750	n/a	1893	71	2750	885.657850803	stim	stop-signal	509	1372106	0.0-21.13-1.13	beast_fmri_test	359	1369686,/,1370365,/,1371045,/,1371725,/,1372404,/	t,t,t,t,t	<img class = center src='/static/experiments/beast_fmri_test/images/V.png'></img>	89,71	2750.0	test	<img class = center src='/static/experiments/beast_fmri_test/images/redV.png'></img>	go	1950.0	3.0	13.0	go	non-target	V	89,Middle Finger	71,Index Finger	850.0	800.0	1900.0	1950.0	1.0	n/a	800.0	1.0	go_stim
288361.34214919666	885.65785080328487	n/a	1893	71	2750	885.657850803	stim	stop-signal	509	1372106	0.0-21.13-1.13	beast_fmri_test	359	1369686,/,1370365,/,1371045,/,1371725,/,1372404,/	t,t,t,t,t	<img class = center src='/static/experiments/beast_fmri_test/images/V.png'></img>	89,71	2750.0	test	<img class = center src='/static/experiments/beast_fmri_test/images/redV.png'></img>	go	1950.0	3.0	13.0	go	non-target	V	89,Middle Finger	71,Index Finger	850.0	800.0	1900.0	1950.0	1.0	n/a	800.0	1.0	ITI
290691	500	n/a	-1	-1	500	0.0	fixation	poldrack-single-stim	510	1373550	0.0-21.14-0.14	beast_fmri_test	359	1373082,/	t	<div class = centerbox2><div class = fixation>+</div></div>	none	500.0	test	n/a	n/a	n/a	n/a	n/a	n/a	n/a	n/a	n/a	n/a	n/a	n/a	n/a	n/a	n/a	n/a	n/a	n/a	fixation
289132.3137339754	800.0	n/a	-1	-1	2750	1560.68626602	stim	stop-signal	511	1376302	0.0-21.14-1.14	beast_fmri_test	359	1373763,/,1374443,/,1375122,/,1375802,/,1376482,/,1377161,/,1377840,/	t,t,t,t,t,t,t	<img class = center src='/static/experiments/beast_fmri_test/images/T.png'></img>	89,71	2750.0	test	<img class = center src='/static/experiments/beast_fmri_test/images/redT.png'></img>	stop	1950.0	3.0	14.0	stop	non-target	T	89,Middle Finger	71,Index Finger	850.0	800.0	1900.0	1950.0	0.0	1.0	800.0	n/a	go_stim
291082.3137339754	1950.0	n/a	-1	-1	2750	1560.68626602	stim	stop-signal	511	1376302	0.0-21.14-1.14	beast_fmri_test	359	1373763,/,1374443,/,1375122,/,1375802,/,1376482,/,1377161,/,1377840,/	t,t,t,t,t,t,t	<img class = center src='/static/experiments/beast_fmri_test/images/T.png'></img>	89,71	2750.0	test	<img class = center src='/static/experiments/beast_fmri_test/images/redT.png'></img>	stop	1950.0	3.0	14.0	stop	non-target	T	89,Middle Finger	71,Index Finger	850.0	800.0	1900.0	1950.0	0.0	1.0	800.0	n/a	stop_stim
291882.3137339754	1560.686266024627	n/a	-1	-1	2750	1560.68626602	stim	stop-signal	511	1376302	0.0-21.14-1.14	beast_fmri_test	359	1373763,/,1374443,/,1375122,/,1375802,/,1376482,/,1377161,/,1377840,/	t,t,t,t,t,t,t	<img class = center src='/static/experiments/beast_fmri_test/images/T.png'></img>	89,71	2750.0	test	<img class = center src='/static/experiments/beast_fmri_test/images/redT.png'></img>	stop	1950.0	3.0	14.0	stop	non-target	T	89,Middle Finger	71,Index Finger	850.0	800.0	1900.0	1950.0	0.0	1.0	800.0	n/a	ITI
295570	500	n/a	-1	-1	500	0.0	fixation	poldrack-single-stim	512	1378429	0.0-21.15-0.15	beast_fmri_test	359	n/a	n/a	<div class = centerbox2><div class = fixation>+</div></div>	none	500.0	test	n/a	n/a	n/a	n/a	n/a	n/a	n/a	n/a	n/a	n/a	n/a	n/a	n/a	n/a	n/a	n/a	n/a	n/a	fixation
295398.24093914428	850.0	n/a	-1	-1	2750	173.759060856	stim	stop-signal	513	1381181	0.0-21.15-1.15	beast_fmri_test	359	1378522,/,1379201,/,1379882,/,1380561,/,1381240,/	t,t,t,t,t	<img class = center src='/static/experiments/beast_fmri_test/images/T.png'></img>	89,71	2750.0	test	<img class = center src='/static/experiments/beast_fmri_test/images/redT.png'></img>	stop	1900.0	3.0	15.0	stop	non-target	T	89,Middle Finger	71,Index Finger	850.0	850.0	1900.0	1900.0	0.0	1.0	850.0	n/a	go_stim
297298.24093914428	1900.0	n/a	-1	-1	2750	173.759060856	stim	stop-signal	513	1381181	0.0-21.15-1.15	beast_fmri_test	359	1378522,/,1379201,/,1379882,/,1380561,/,1381240,/	t,t,t,t,t	<img class = center src='/static/experiments/beast_fmri_test/images/T.png'></img>	89,71	2750.0	test	<img class = center src='/static/experiments/beast_fmri_test/images/redT.png'></img>	stop	1900.0	3.0	15.0	stop	non-target	T	89,Middle Finger	71,Index Finger	850.0	850.0	1900.0	1900.0	0.0	1.0	850.0	n/a	stop_stim
298148.24093914428	173.75906085583327	n/a	-1	-1	2750	173.759060856	stim	stop-signal	513	1381181	0.0-21.15-1.15	beast_fmri_test	359	1378522,/,1379201,/,1379882,/,1380561,/,1381240,/	t,t,t,t,t	<img class = center src='/static/experiments/beast_fmri_test/images/T.png'></img>	89,71	2750.0	test	<img class = center src='/static/experiments/beast_fmri_test/images/redT.png'></img>	stop	1900.0	3.0	15.0	stop	non-target	T	89,Middle Finger	71,Index Finger	850.0	850.0	1900.0	1900.0	0.0	1.0	850.0	n/a	ITI
299051	500	n/a	-1	-1	500	0.0	fixation	poldrack-single-stim	514	1381910	0.0-21.16-0.16	beast_fmri_test	359	n/a	n/a	<div class = centerbox2><div class = fixation>+</div></div>	none	500.0	test	n/a	n/a	n/a	n/a	n/a	n/a	n/a	n/a	n/a	n/a	n/a	n/a	n/a	n/a	n/a	n/a	n/a	n/a	fixation
299047.95359314163	2750	n/a	822	89	2750	5.04640685826	stim	stop-signal	515	1384662	0.0-21.16-1.16	beast_fmri_test	359	1381920,/,1382598,/,1383278,/,1383958,/,1384638,/	t,t,t,t,t	<img class = center src='/static/experiments/beast_fmri_test/images/V.png'></img>	89,71	2750.0	test	<img class = center src='/static/experiments/beast_fmri_test/images/redV.png'></img>	go	1900.0	3.0	16.0	go	target	V	89,Middle Finger	71,Index Finger	850.0	900.0	1900.0	1900.0	1.0	n/a	850.0	1.0	go_stim
301797.95359314163	5.0464068582554624	n/a	822	89	2750	5.04640685826	stim	stop-signal	515	1384662	0.0-21.16-1.16	beast_fmri_test	359	1381920,/,1382598,/,1383278,/,1383958,/,1384638,/	t,t,t,t,t	<img class = center src='/static/experiments/beast_fmri_test/images/V.png'></img>	89,71	2750.0	test	<img class = center src='/static/experiments/beast_fmri_test/images/redV.png'></img>	go	1900.0	3.0	16.0	go	target	V	89,Middle Finger	71,Index Finger	850.0	900.0	1900.0	1900.0	1.0	n/a	850.0	1.0	ITI
302360	500	n/a	-1	-1	500	0.0	fixation	poldrack-single-stim	516	1385219	0.0-21.17-0.17	beast_fmri_test	359	n/a	n/a	<div class = centerbox2><div class = fixation>+</div></div>	none	500.0	test	n/a	n/a	n/a	n/a	n/a	n/a	n/a	n/a	n/a	n/a	n/a	n/a	n/a	n/a	n/a	n/a	n/a	n/a	fixation
301876.07529639988	2750	n/a	2002	71	2750	485.9247036	stim	stop-signal	517	1387971	0.0-21.17-1.17	beast_fmri_test	359	1385319,/,1385998,/,1386676,/,1387356,/,1388036,/	t,t,t,t,t	<img class = center src='/static/experiments/beast_fmri_test/images/P.png'></img>	89,71	2750.0	test	<img class = center src='/static/experiments/beast_fmri_test/images/redP.png'></img>	go	1850.0	3.0	17.0	go	non-target	P	89,Middle Finger	71,Index Finger	850.0	900.0	1900.0	1850.0	1.0	n/a	900.0	1.0	go_stim
304626.07529639988	485.92470360007894	n/a	2002	71	2750	485.9247036	stim	stop-signal	517	1387971	0.0-21.17-1.17	beast_fmri_test	359	1385319,/,1385998,/,1386676,/,1387356,/,1388036,/	t,t,t,t,t	<img class = center src='/static/experiments/beast_fmri_test/images/P.png'></img>	89,71	2750.0	test	<img class = center src='/static/experiments/beast_fmri_test/images/redP.png'></img>	go	1850.0	3.0	17.0	go	non-target	P	89,Middle Finger	71,Index Finger	850.0	900.0	1900.0	1850.0	1.0	n/a	900.0	1.0	ITI
306151	500	n/a	-1	-1	500	0.0	fixation	poldrack-single-stim	518	1389010	0.0-21.18-0.18	beast_fmri_test	359	1388717,/	t	<div class = centerbox2><div class = fixation>+</div></div>	none	500.0	test	n/a	n/a	n/a	n/a	n/a	n/a	n/a	n/a	n/a	n/a	n/a	n/a	n/a	n/a	n/a	n/a	n/a	n/a	fixation
304517.822159759	900.0	n/a	-1	-1	2750	1634.17784024	stim	stop-signal	519	1391761	0.0-21.18-1.18	beast_fmri_test	359	1389396,/,1390076,/,1390755,/,1391436,/,1392116,/,1392795,/	t,t,t,t,t,t	<img class = center src='/static/experiments/beast_fmri_test/images/B.png'></img>	89,71	2750.0	test	<img class = center src='/static/experiments/beast_fmri_test/images/redB.png'></img>	stop	1850.0	3.0	18.0	stop	non-target	B	89,Middle Finger	71,Index Finger	850.0	900.0	1900.0	1850.0	0.0	1.0	900.0	n/a	go_stim
306367.822159759	1850.0	n/a	-1	-1	2750	1634.17784024	stim	stop-signal	519	1391761	0.0-21.18-1.18	beast_fmri_test	359	1389396,/,1390076,/,1390755,/,1391436,/,1392116,/,1392795,/	t,t,t,t,t,t	<img class = center src='/static/experiments/beast_fmri_test/images/B.png'></img>	89,71	2750.0	test	<img class = center src='/static/experiments/beast_fmri_test/images/redB.png'></img>	stop	1850.0	3.0	18.0	stop	non-target	B	89,Middle Finger	71,Index Finger	850.0	900.0	1900.0	1850.0	0.0	1.0	900.0	n/a	stop_stim
307267.822159759	1634.1778402409925	n/a	-1	-1	2750	1634.17784024	stim	stop-signal	519	1391761	0.0-21.18-1.18	beast_fmri_test	359	1389396,/,1390076,/,1390755,/,1391436,/,1392116,/,1392795,/	t,t,t,t,t,t	<img class = center src='/static/experiments/beast_fmri_test/images/B.png'></img>	89,71	2750.0	test	<img class = center src='/static/experiments/beast_fmri_test/images/redB.png'></img>	stop	1850.0	3.0	18.0	stop	non-target	B	89,Middle Finger	71,Index Finger	850.0	900.0	1900.0	1850.0	0.0	1.0	900.0	n/a	ITI
311091	500	n/a	-1	-1	500	0.0	fixation	poldrack-single-stim	520	1393950	0.0-21.19-0.19	beast_fmri_test	359	1393474,/	t	<div class = centerbox2><div class = fixation>+</div></div>	none	500.0	test	n/a	n/a	n/a	n/a	n/a	n/a	n/a	n/a	n/a	n/a	n/a	n/a	n/a	n/a	n/a	n/a	n/a	n/a	fixation
310956.73123632511	2750	n/a	1225	89	2750	136.268763675	stim	stop-signal	521	1396702	0.0-21.19-1.19	beast_fmri_test	359	1394154,/,1394835,/,1395514,/,1396193,/	t,t,t,t	<img class = center src='/static/experiments/beast_fmri_test/images/V.png'></img>	89,71	2750.0	test	<img class = center src='/static/experiments/beast_fmri_test/images/redV.png'></img>	go	1900.0	3.0	19.0	go	target	V	89,Middle Finger	71,Index Finger	850.0	950.0	1900.0	1850.0	1.0	n/a	850.0	1.0	go_stim
313706.73123632511	136.26876367480415	n/a	1225	89	2750	136.268763675	stim	stop-signal	521	1396702	0.0-21.19-1.19	beast_fmri_test	359	1394154,/,1394835,/,1395514,/,1396193,/	t,t,t,t	<img class = center src='/static/experiments/beast_fmri_test/images/V.png'></img>	89,71	2750.0	test	<img class = center src='/static/experiments/beast_fmri_test/images/redV.png'></img>	go	1900.0	3.0	19.0	go	target	V	89,Middle Finger	71,Index Finger	850.0	950.0	1900.0	1850.0	1.0	n/a	850.0	1.0	ITI
314533	500	n/a	-1	-1	500	0.0	fixation	poldrack-single-stim	522	1397392	0.0-21.20-0.20	beast_fmri_test	359	1396892,/	t	<div class = centerbox2><div class = fixation>+</div></div>	none	500.0	test	n/a	n/a	n/a	n/a	n/a	n/a	n/a	n/a	n/a	n/a	n/a	n/a	n/a	n/a	n/a	n/a	n/a	n/a	fixation
314316.53103659861	2750	n/a	1910	89	2750	217.468963401	stim	stop-signal	523	1400143	0.0-21.20-1.20	beast_fmri_test	359	1397553,/,1398232,/,1398913,/,1399591,/,1400270,/	t,t,t,t,t	<img class = center src='/static/experiments/beast_fmri_test/images/T.png'></img>	89,71	2750.0	test	<img class = center src='/static/experiments/beast_fmri_test/images/redT.png'></img>	go	1800.0	3.0	20.0	go	non-target	T	89,Middle Finger	71,Index Finger	850.0	950.0	1900.0	1800.0	0.0	n/a	950.0	0.0	go_stim
317066.53103659861	217.46896340139168	n/a	1910	89	2750	217.468963401	stim	stop-signal	523	1400143	0.0-21.20-1.20	beast_fmri_test	359	1397553,/,1398232,/,1398913,/,1399591,/,1400270,/	t,t,t,t,t	<img class = center src='/static/experiments/beast_fmri_test/images/T.png'></img>	89,71	2750.0	test	<img class = center src='/static/experiments/beast_fmri_test/images/redT.png'></img>	go	1800.0	3.0	20.0	go	non-target	T	89,Middle Finger	71,Index Finger	850.0	950.0	1900.0	1800.0	0.0	n/a	950.0	0.0	ITI
318054	500	n/a	-1	-1	500	0.0	fixation	poldrack-single-stim	524	1400913	0.0-21.21-0.21	beast_fmri_test	359	n/a	n/a	<div class = centerbox2><div class = fixation>+</div></div>	none	500.0	test	n/a	n/a	n/a	n/a	n/a	n/a	n/a	n/a	n/a	n/a	n/a	n/a	n/a	n/a	n/a	n/a	n/a	n/a	fixation
315396.1971749654	850.0	n/a	-1	-1	2750	2659.80282503	stim	stop-signal	525	1403665	0.0-21.21-1.21	beast_fmri_test	359	1400951,/,1401630,/,1402310,/,1402991,/,1403670,/,1404350,/,1405029,/,1405709,/	t,t,t,t,t,t,t,t	<img class = center src='/static/experiments/beast_fmri_test/images/B.png'></img>	89,71	2750.0	test	<img class = center src='/static/experiments/beast_fmri_test/images/redB.png'></img>	stop	1900.0	3.0	21.0	stop	target	B	89,Middle Finger	71,Index Finger	850.0	950.0	1900.0	1800.0	0.0	1.0	850.0	n/a	go_stim
