onset	duration	text	rt	key_press	block_duration	timing_post_trial	trial_id	trial_type	trial_index	time_elapsed	internal_node_id	exp_id	subject_id	trigger_times	triggers	stimulus	possible_responses	stim_duration	exp_stage	SS_stimulus	SS_trial_type	SS_duration	load	trial_num	stop_trial_type	adaptive_trial_type	stim	yes_response_key	no_response_key	SSD_target	SSD_non_target	SSTarget	SSNonTarget	go_acc	stop_acc	SS_delay	adaptive_acc	new_trial_type
test	10880	n/a	-1	-1	10880	0.0	practice-no-stop-feedback	poldrack-single-stim	580	1636320	0.0-24.0	beast_fmri_test	359	1625445,/,1626123,/,1626802,/,1627482,/,1628162,/,1628840,/,1629520,/,1630199,/,1630879,/,1631559,/,1632240,/,1632919,/,1633598,/,1634278,/,1634957,/,1635638,/,1636317,/	t,t,t,t,t,t,t,t,t,t,t,t,t,t,t,t,t	"<div class = ""centerbox""><p class = ""block-text"">Your delay is 2 trials.</p><p class = block-text>Please wait for the scanner to start the block</p></div>"	77	10880.0	n/a	n/a	n/a	n/a	n/a	n/a	n/a	n/a	n/a	n/a	n/a	n/a	n/a	n/a	n/a	n/a	n/a	n/a	n/a	start_functional_block
11378	500	n/a	-1	-1	500	0.0	fixation	poldrack-single-stim	581	1636823	0.0-25.0-0.0	beast_fmri_test	359	n/a	n/a	<div class = centerbox2><div class = fixation>+</div></div>	none	500.0	test	n/a	n/a	n/a	n/a	n/a	n/a	n/a	n/a	n/a	n/a	n/a	n/a	n/a	n/a	n/a	n/a	n/a	n/a	fixation
9765.5233975504525	temp_go_duration	n/a	1093	71	2750	1613.47660245	stim	stop-signal	582	1639574	0.0-25.0-1.0	beast_fmri_test	359	1636997,/,1637677,/,1638356,/,1639036,/,1639714,/,1640395,/,1641074,/	t,t,t,t,t,t,t	<img class = center src='/static/experiments/beast_fmri_test/images/V.png'></img>	89,71	2750.0	test	<img class = center src='/static/experiments/beast_fmri_test/images/redV.png'></img>	stop	-1.0	2.0	0.0	stop	temp-non-target	V	89,Middle Finger	71,Index Finger	1000.0	1100.0	1750.0	1700.0	0.0	0.0	n/a	n/a	go_stim
temp-non-target	temp_stop_duration	n/a	1093	71	2750	1613.47660245	stim	stop-signal	582	1639574	0.0-25.0-1.0	beast_fmri_test	359	1636997,/,1637677,/,1638356,/,1639036,/,1639714,/,1640395,/,1641074,/	t,t,t,t,t,t,t	<img class = center src='/static/experiments/beast_fmri_test/images/V.png'></img>	89,71	2750.0	test	<img class = center src='/static/experiments/beast_fmri_test/images/redV.png'></img>	stop	-1.0	2.0	0.0	stop	temp-non-target	V	89,Middle Finger	71,Index Finger	1000.0	1100.0	1750.0	1700.0	0.0	0.0	n/a	n/a	stop_stim
12515.523397550453	1613.4766024494681	n/a	1093	71	2750	1613.47660245	stim	stop-signal	582	1639574	0.0-25.0-1.0	beast_fmri_test	359	1636997,/,1637677,/,1638356,/,1639036,/,1639714,/,1640395,/,1641074,/	t,t,t,t,t,t,t	<img class = center src='/static/experiments/beast_fmri_test/images/V.png'></img>	89,71	2750.0	test	<img class = center src='/static/experiments/beast_fmri_test/images/redV.png'></img>	stop	-1.0	2.0	0.0	stop	temp-non-target	V	89,Middle Finger	71,Index Finger	1000.0	1100.0	1750.0	1700.0	0.0	0.0	n/a	n/a	ITI
16311	500	n/a	-1	-1	500	0.0	fixation	poldrack-single-stim	583	1641756	0.0-25.1-0.1	beast_fmri_test	359	1641755,/	t	<div class = centerbox2><div class = fixation>+</div></div>	none	500.0	test	n/a	n/a	n/a	n/a	n/a	n/a	n/a	n/a	n/a	n/a	n/a	n/a	n/a	n/a	n/a	n/a	n/a	n/a	fixation
13759.752871514298	2750	n/a	1024	71	2750	2552.24712849	stim	stop-signal	584	1644507	0.0-25.1-1.1	beast_fmri_test	359	1642435,/,1643114,/,1643793,/,1644473,/,1645152,/,1645832,/,1646513,/	t,t,t,t,t,t,t	<img class = center src='/static/experiments/beast_fmri_test/images/P.png'></img>	89,71	2750.0	test	<img class = center src='/static/experiments/beast_fmri_test/images/redP.png'></img>	go	-1.0	2.0	1.0	go	temp-non-target	P	89,Middle Finger	71,Index Finger	1000.0	1100.0	1750.0	1700.0	0.0	n/a	n/a	n/a	go_stim
16509.752871514298	2552.2471284857293	n/a	1024	71	2750	2552.24712849	stim	stop-signal	584	1644507	0.0-25.1-1.1	beast_fmri_test	359	1642435,/,1643114,/,1643793,/,1644473,/,1645152,/,1645832,/,1646513,/	t,t,t,t,t,t,t	<img class = center src='/static/experiments/beast_fmri_test/images/P.png'></img>	89,71	2750.0	test	<img class = center src='/static/experiments/beast_fmri_test/images/redP.png'></img>	go	-1.0	2.0	1.0	go	temp-non-target	P	89,Middle Finger	71,Index Finger	1000.0	1100.0	1750.0	1700.0	0.0	n/a	n/a	n/a	ITI
22186	500	n/a	-1	-1	500	0.0	fixation	poldrack-single-stim	585	1647631	0.0-25.2-0.2	beast_fmri_test	359	1647193,/	t	<div class = centerbox2><div class = fixation>+</div></div>	none	500.0	test	n/a	n/a	n/a	n/a	n/a	n/a	n/a	n/a	n/a	n/a	n/a	n/a	n/a	n/a	n/a	n/a	n/a	n/a	fixation
21693.697144826408	2750	n/a	898	71	2750	493.302855173	stim	stop-signal	586	1650382	0.0-25.2-1.2	beast_fmri_test	359	1647872,/,1648553,/,1649231,/,1649911,/,1650590,/	t,t,t,t,t	<img class = center src='/static/experiments/beast_fmri_test/images/D.png'></img>	89,71	2750.0	test	<img class = center src='/static/experiments/beast_fmri_test/images/redD.png'></img>	go	1650.0	2.0	2.0	go	non-target	D	89,Middle Finger	71,Index Finger	1000.0	1100.0	1750.0	1650.0	1.0	n/a	1100.0	1.0	go_stim
24443.697144826408	493.30285517349063	n/a	898	71	2750	493.302855173	stim	stop-signal	586	1650382	0.0-25.2-1.2	beast_fmri_test	359	1647872,/,1648553,/,1649231,/,1649911,/,1650590,/	t,t,t,t,t	<img class = center src='/static/experiments/beast_fmri_test/images/D.png'></img>	89,71	2750.0	test	<img class = center src='/static/experiments/beast_fmri_test/images/redD.png'></img>	go	1650.0	2.0	2.0	go	non-target	D	89,Middle Finger	71,Index Finger	1000.0	1100.0	1750.0	1650.0	1.0	n/a	1100.0	1.0	ITI
26004	500	n/a	-1	-1	500	0.0	fixation	poldrack-single-stim	587	1651449	0.0-25.3-0.3	beast_fmri_test	359	1651270,/	t	<div class = centerbox2><div class = fixation>+</div></div>	none	500.0	test	n/a	n/a	n/a	n/a	n/a	n/a	n/a	n/a	n/a	n/a	n/a	n/a	n/a	n/a	n/a	n/a	n/a	n/a	fixation
24881.228977371473	1100.0	n/a	1251	71	2750	1124.77102263	stim	stop-signal	588	1654201	0.0-25.3-1.3	beast_fmri_test	359	1651950,/,1652629,/,1653309,/,1653990,/,1654670,/	t,t,t,t,t	<img class = center src='/static/experiments/beast_fmri_test/images/T.png'></img>	89,71	2750.0	test	<img class = center src='/static/experiments/beast_fmri_test/images/redT.png'></img>	stop	1650.0	2.0	3.0	stop	non-target	T	89,Middle Finger	71,Index Finger	1000.0	1100.0	1750.0	1650.0	0.0	0.0	1100.0	n/a	go_stim
26531.228977371473	1650.0	n/a	1251	71	2750	1124.77102263	stim	stop-signal	588	1654201	0.0-25.3-1.3	beast_fmri_test	359	1651950,/,1652629,/,1653309,/,1653990,/,1654670,/	t,t,t,t,t	<img class = center src='/static/experiments/beast_fmri_test/images/T.png'></img>	89,71	2750.0	test	<img class = center src='/static/experiments/beast_fmri_test/images/redT.png'></img>	stop	1650.0	2.0	3.0	stop	non-target	T	89,Middle Finger	71,Index Finger	1000.0	1100.0	1750.0	1650.0	0.0	0.0	1100.0	n/a	stop_stim
27631.228977371473	1124.7710226285774	n/a	1251	71	2750	1124.77102263	stim	stop-signal	588	1654201	0.0-25.3-1.3	beast_fmri_test	359	1651950,/,1652629,/,1653309,/,1653990,/,1654670,/	t,t,t,t,t	<img class = center src='/static/experiments/beast_fmri_test/images/T.png'></img>	89,71	2750.0	test	<img class = center src='/static/experiments/beast_fmri_test/images/redT.png'></img>	stop	1650.0	2.0	3.0	stop	non-target	T	89,Middle Finger	71,Index Finger	1000.0	1100.0	1750.0	1650.0	0.0	0.0	1100.0	n/a	ITI
30457	500	n/a	-1	-1	500	0.0	fixation	poldrack-single-stim	589	1655902	0.0-25.4-0.4	beast_fmri_test	359	1655400,/	t	<div class = centerbox2><div class = fixation>+</div></div>	none	500.0	test	n/a	n/a	n/a	n/a	n/a	n/a	n/a	n/a	n/a	n/a	n/a	n/a	n/a	n/a	n/a	n/a	n/a	n/a	fixation
30233.92373497528	1000.0	n/a	967	89	2750	224.076265025	stim	stop-signal	590	1658653	0.0-25.4-1.4	beast_fmri_test	359	1656029,/,1656708,/,1657388,/,1658067,/,1658746,/	t,t,t,t,t	<img class = center src='/static/experiments/beast_fmri_test/images/D.png'></img>	89,71	2750.0	test	<img class = center src='/static/experiments/beast_fmri_test/images/redD.png'></img>	stop	1750.0	2.0	4.0	stop	target	D	89,Middle Finger	71,Index Finger	1000.0	1050.0	1750.0	1650.0	0.0	0.0	1000.0	n/a	go_stim
31983.92373497528	1750.0	n/a	967	89	2750	224.076265025	stim	stop-signal	590	1658653	0.0-25.4-1.4	beast_fmri_test	359	1656029,/,1656708,/,1657388,/,1658067,/,1658746,/	t,t,t,t,t	<img class = center src='/static/experiments/beast_fmri_test/images/D.png'></img>	89,71	2750.0	test	<img class = center src='/static/experiments/beast_fmri_test/images/redD.png'></img>	stop	1750.0	2.0	4.0	stop	target	D	89,Middle Finger	71,Index Finger	1000.0	1050.0	1750.0	1650.0	0.0	0.0	1000.0	n/a	stop_stim
32983.92373497528	224.07626502471433	n/a	967	89	2750	224.076265025	stim	stop-signal	590	1658653	0.0-25.4-1.4	beast_fmri_test	359	1656029,/,1656708,/,1657388,/,1658067,/,1658746,/	t,t,t,t,t	<img class = center src='/static/experiments/beast_fmri_test/images/D.png'></img>	89,71	2750.0	test	<img class = center src='/static/experiments/beast_fmri_test/images/redD.png'></img>	stop	1750.0	2.0	4.0	stop	target	D	89,Middle Finger	71,Index Finger	1000.0	1050.0	1750.0	1650.0	0.0	0.0	1000.0	n/a	ITI
34005	500	n/a	-1	-1	500	0.0	fixation	poldrack-single-stim	591	1659450	0.0-25.5-0.5	beast_fmri_test	359	1659427,/	t	<div class = centerbox2><div class = fixation>+</div></div>	none	500.0	test	n/a	n/a	n/a	n/a	n/a	n/a	n/a	n/a	n/a	n/a	n/a	n/a	n/a	n/a	n/a	n/a	n/a	n/a	fixation
33060.700920417439	2750	n/a	1148	89	2750	945.299079583	stim	stop-signal	592	1662201	0.0-25.5-1.5	beast_fmri_test	359	1660107,/,1660786,/,1661465,/,1662145,/,1662824,/	t,t,t,t,t	<img class = center src='/static/experiments/beast_fmri_test/images/T.png'></img>	89,71	2750.0	test	<img class = center src='/static/experiments/beast_fmri_test/images/redT.png'></img>	go	1800.0	2.0	5.0	go	target	T	89,Middle Finger	71,Index Finger	950.0	1050.0	1800.0	1650.0	1.0	n/a	950.0	1.0	go_stim
35810.700920417439	945.29907958259173	n/a	1148	89	2750	945.299079583	stim	stop-signal	592	1662201	0.0-25.5-1.5	beast_fmri_test	359	1660107,/,1660786,/,1661465,/,1662145,/,1662824,/	t,t,t,t,t	<img class = center src='/static/experiments/beast_fmri_test/images/T.png'></img>	89,71	2750.0	test	<img class = center src='/static/experiments/beast_fmri_test/images/redT.png'></img>	go	1800.0	2.0	5.0	go	target	T	89,Middle Finger	71,Index Finger	950.0	1050.0	1800.0	1650.0	1.0	n/a	950.0	1.0	ITI
38277	500	n/a	-1	-1	500	0.0	fixation	poldrack-single-stim	593	1663722	0.0-25.6-0.6	beast_fmri_test	359	1663505,/	t	<div class = centerbox2><div class = fixation>+</div></div>	none	500.0	test	n/a	n/a	n/a	n/a	n/a	n/a	n/a	n/a	n/a	n/a	n/a	n/a	n/a	n/a	n/a	n/a	n/a	n/a	fixation
37965.128477113787	1050.0	n/a	960	71	2750	313.871522886	stim	stop-signal	594	1666474	0.0-25.6-1.6	beast_fmri_test	359	1664185,/,1664864,/,1665544,/,1666223,/	t,t,t,t	<img class = center src='/static/experiments/beast_fmri_test/images/B.png'></img>	89,71	2750.0	test	<img class = center src='/static/experiments/beast_fmri_test/images/redB.png'></img>	stop	1700.0	2.0	6.0	stop	non-target	B	89,Middle Finger	71,Index Finger	950.0	1050.0	1800.0	1700.0	0.0	0.0	1050.0	n/a	go_stim
39665.128477113787	1700.0	n/a	960	71	2750	313.871522886	stim	stop-signal	594	1666474	0.0-25.6-1.6	beast_fmri_test	359	1664185,/,1664864,/,1665544,/,1666223,/	t,t,t,t	<img class = center src='/static/experiments/beast_fmri_test/images/B.png'></img>	89,71	2750.0	test	<img class = center src='/static/experiments/beast_fmri_test/images/redB.png'></img>	stop	1700.0	2.0	6.0	stop	non-target	B	89,Middle Finger	71,Index Finger	950.0	1050.0	1800.0	1700.0	0.0	0.0	1050.0	n/a	stop_stim
40715.128477113787	313.87152288626362	n/a	960	71	2750	313.871522886	stim	stop-signal	594	1666474	0.0-25.6-1.6	beast_fmri_test	359	1664185,/,1664864,/,1665544,/,1666223,/	t,t,t,t	<img class = center src='/static/experiments/beast_fmri_test/images/B.png'></img>	89,71	2750.0	test	<img class = center src='/static/experiments/beast_fmri_test/images/redB.png'></img>	stop	1700.0	2.0	6.0	stop	non-target	B	89,Middle Finger	71,Index Finger	950.0	1050.0	1800.0	1700.0	0.0	0.0	1050.0	n/a	ITI
41915	500	n/a	-1	-1	500	0.0	fixation	poldrack-single-stim	595	1667360	0.0-25.7-0.7	beast_fmri_test	359	1666902,/	t	<div class = centerbox2><div class = fixation>+</div></div>	none	500.0	test	n/a	n/a	n/a	n/a	n/a	n/a	n/a	n/a	n/a	n/a	n/a	n/a	n/a	n/a	n/a	n/a	n/a	n/a	fixation
41017.327435081359	2750	n/a	946	71	2750	899.672564919	stim	stop-signal	596	1670112	0.0-25.7-1.7	beast_fmri_test	359	1667584,/,1668263,/,1668943,/,1669622,/,1670301,/,1670980,/	t,t,t,t,t,t	<img class = center src='/static/experiments/beast_fmri_test/images/V.png'></img>	89,71	2750.0	test	<img class = center src='/static/experiments/beast_fmri_test/images/redV.png'></img>	go	1750.0	2.0	7.0	go	non-target	V	89,Middle Finger	71,Index Finger	950.0	1000.0	1800.0	1750.0	1.0	n/a	1000.0	1.0	go_stim
43767.327435081359	899.67256491875708	n/a	946	71	2750	899.672564919	stim	stop-signal	596	1670112	0.0-25.7-1.7	beast_fmri_test	359	1667584,/,1668263,/,1668943,/,1669622,/,1670301,/,1670980,/	t,t,t,t,t,t	<img class = center src='/static/experiments/beast_fmri_test/images/V.png'></img>	89,71	2750.0	test	<img class = center src='/static/experiments/beast_fmri_test/images/redV.png'></img>	go	1750.0	2.0	7.0	go	non-target	V	89,Middle Finger	71,Index Finger	950.0	1000.0	1800.0	1750.0	1.0	n/a	1000.0	1.0	ITI
46148	500	n/a	-1	-1	500	0.0	fixation	poldrack-single-stim	597	1671593	0.0-25.8-0.8	beast_fmri_test	359	n/a	n/a	<div class = centerbox2><div class = fixation>+</div></div>	none	500.0	test	n/a	n/a	n/a	n/a	n/a	n/a	n/a	n/a	n/a	n/a	n/a	n/a	n/a	n/a	n/a	n/a	n/a	n/a	fixation
43643.074002414243	2750	n/a	1133	71	2750	2506.92599759	stim	stop-signal	598	1674345	0.0-25.8-1.8	beast_fmri_test	359	1671660,/,1672340,/,1673019,/,1673699,/,1674385,/,1675059,/,1675739,/,1676420,/	t,t,t,t,t,t,t,t	<img class = center src='/static/experiments/beast_fmri_test/images/P.png'></img>	89,71	2750.0	test	<img class = center src='/static/experiments/beast_fmri_test/images/redP.png'></img>	go	1750.0	2.0	8.0	go	non-target	P	89,Middle Finger	71,Index Finger	950.0	1000.0	1800.0	1750.0	1.0	n/a	1000.0	1.0	go_stim
46393.074002414243	2506.925997585869	n/a	1133	71	2750	2506.92599759	stim	stop-signal	598	1674345	0.0-25.8-1.8	beast_fmri_test	359	1671660,/,1672340,/,1673019,/,1673699,/,1674385,/,1675059,/,1675739,/,1676420,/	t,t,t,t,t,t,t,t	<img class = center src='/static/experiments/beast_fmri_test/images/P.png'></img>	89,71	2750.0	test	<img class = center src='/static/experiments/beast_fmri_test/images/redP.png'></img>	go	1750.0	2.0	8.0	go	non-target	P	89,Middle Finger	71,Index Finger	950.0	1000.0	1800.0	1750.0	1.0	n/a	1000.0	1.0	ITI
51968	500	n/a	-1	-1	500	0.0	fixation	poldrack-single-stim	599	1677413	0.0-25.9-0.9	beast_fmri_test	359	1677100,/	t	<div class = centerbox2><div class = fixation>+</div></div>	none	500.0	test	n/a	n/a	n/a	n/a	n/a	n/a	n/a	n/a	n/a	n/a	n/a	n/a	n/a	n/a	n/a	n/a	n/a	n/a	fixation
51813.211403339868	2750	n/a	1138	89	2750	155.78859666	stim	stop-signal	600	1680164	0.0-25.9-1.9	beast_fmri_test	359	1677780,/,1678460,/,1679138,/,1679818,/	t,t,t,t	<img class = center src='/static/experiments/beast_fmri_test/images/V.png'></img>	89,71	2750.0	test	<img class = center src='/static/experiments/beast_fmri_test/images/redV.png'></img>	go	1800.0	2.0	9.0	go	target	V	89,Middle Finger	71,Index Finger	950.0	1000.0	1800.0	1750.0	1.0	n/a	950.0	1.0	go_stim
54563.211403339868	155.78859666007881	n/a	1138	89	2750	155.78859666	stim	stop-signal	600	1680164	0.0-25.9-1.9	beast_fmri_test	359	1677780,/,1678460,/,1679138,/,1679818,/	t,t,t,t	<img class = center src='/static/experiments/beast_fmri_test/images/V.png'></img>	89,71	2750.0	test	<img class = center src='/static/experiments/beast_fmri_test/images/redV.png'></img>	go	1800.0	2.0	9.0	go	target	V	89,Middle Finger	71,Index Finger	950.0	1000.0	1800.0	1750.0	1.0	n/a	950.0	1.0	ITI
55439	500	n/a	-1	-1	500	0.0	fixation	poldrack-single-stim	601	1680884	0.0-25.10-0.10	beast_fmri_test	359	1680497,/	t	<div class = centerbox2><div class = fixation>+</div></div>	none	500.0	test	n/a	n/a	n/a	n/a	n/a	n/a	n/a	n/a	n/a	n/a	n/a	n/a	n/a	n/a	n/a	n/a	n/a	n/a	fixation
54384.404294429114	2750	n/a	1908	89	2750	1056.59570557	stim	stop-signal	602	1683636	0.0-25.10-1.10	beast_fmri_test	359	1681177,/,1681857,/,1682537,/,1683216,/,1683897,/,1684575,/	t,t,t,t,t,t	<img class = center src='/static/experiments/beast_fmri_test/images/B.png'></img>	89,71	2750.0	test	<img class = center src='/static/experiments/beast_fmri_test/images/redB.png'></img>	go	1750.0	2.0	10.0	go	non-target	B	89,Middle Finger	71,Index Finger	950.0	1000.0	1800.0	1750.0	0.0	n/a	1000.0	0.0	go_stim
57134.404294429114	1056.5957055708832	n/a	1908	89	2750	1056.59570557	stim	stop-signal	602	1683636	0.0-25.10-1.10	beast_fmri_test	359	1681177,/,1681857,/,1682537,/,1683216,/,1683897,/,1684575,/	t,t,t,t,t,t	<img class = center src='/static/experiments/beast_fmri_test/images/B.png'></img>	89,71	2750.0	test	<img class = center src='/static/experiments/beast_fmri_test/images/redB.png'></img>	go	1750.0	2.0	10.0	go	non-target	B	89,Middle Finger	71,Index Finger	950.0	1000.0	1800.0	1750.0	0.0	n/a	1000.0	0.0	ITI
59811	500	n/a	-1	-1	500	0.0	fixation	poldrack-single-stim	603	1685256	0.0-25.11-0.11	beast_fmri_test	359	1685256,/	t	<div class = centerbox2><div class = fixation>+</div></div>	none	500.0	test	n/a	n/a	n/a	n/a	n/a	n/a	n/a	n/a	n/a	n/a	n/a	n/a	n/a	n/a	n/a	n/a	n/a	n/a	fixation
59721.222740399651	2750	n/a	1703	89	2750	91.7772596003	stim	stop-signal	604	1688008	0.0-25.11-1.11	beast_fmri_test	359	1685935,/,1686614,/,1687294,/,1687974,/	t,t,t,t	<img class = center src='/static/experiments/beast_fmri_test/images/V.png'></img>	89,71	2750.0	test	<img class = center src='/static/experiments/beast_fmri_test/images/redV.png'></img>	go	1800.0	2.0	11.0	go	target	V	89,Middle Finger	71,Index Finger	950.0	1000.0	1800.0	1750.0	1.0	n/a	950.0	1.0	go_stim
62471.222740399651	91.777259600317777	n/a	1703	89	2750	91.7772596003	stim	stop-signal	604	1688008	0.0-25.11-1.11	beast_fmri_test	359	1685935,/,1686614,/,1687294,/,1687974,/	t,t,t,t	<img class = center src='/static/experiments/beast_fmri_test/images/V.png'></img>	89,71	2750.0	test	<img class = center src='/static/experiments/beast_fmri_test/images/redV.png'></img>	go	1800.0	2.0	11.0	go	target	V	89,Middle Finger	71,Index Finger	950.0	1000.0	1800.0	1750.0	1.0	n/a	950.0	1.0	ITI
63223	500	n/a	-1	-1	500	0.0	fixation	poldrack-single-stim	605	1688668	0.0-25.12-0.12	beast_fmri_test	359	1688654,/	t	<div class = centerbox2><div class = fixation>+</div></div>	none	500.0	test	n/a	n/a	n/a	n/a	n/a	n/a	n/a	n/a	n/a	n/a	n/a	n/a	n/a	n/a	n/a	n/a	n/a	n/a	fixation
62196.80547596165	2750	n/a	1004	71	2750	1028.19452404	stim	stop-signal	606	1691420	0.0-25.12-1.12	beast_fmri_test	359	1689334,/,1690013,/,1690692,/,1691373,/,1692052,/	t,t,t,t,t	<img class = center src='/static/experiments/beast_fmri_test/images/T.png'></img>	89,71	2750.0	test	<img class = center src='/static/experiments/beast_fmri_test/images/redT.png'></img>	go	1750.0	2.0	12.0	go	non-target	T	89,Middle Finger	71,Index Finger	950.0	1000.0	1800.0	1750.0	1.0	n/a	1000.0	1.0	go_stim
64946.80547596165	1028.1945240384159	n/a	1004	71	2750	1028.19452404	stim	stop-signal	606	1691420	0.0-25.12-1.12	beast_fmri_test	359	1689334,/,1690013,/,1690692,/,1691373,/,1692052,/	t,t,t,t,t	<img class = center src='/static/experiments/beast_fmri_test/images/T.png'></img>	89,71	2750.0	test	<img class = center src='/static/experiments/beast_fmri_test/images/redT.png'></img>	go	1750.0	2.0	12.0	go	non-target	T	89,Middle Finger	71,Index Finger	950.0	1000.0	1800.0	1750.0	1.0	n/a	1000.0	1.0	ITI
67572	500	n/a	-1	-1	500	0.0	fixation	poldrack-single-stim	607	1693017	0.0-25.13-0.13	beast_fmri_test	359	1692733,/	t	<div class = centerbox2><div class = fixation>+</div></div>	none	500.0	test	n/a	n/a	n/a	n/a	n/a	n/a	n/a	n/a	n/a	n/a	n/a	n/a	n/a	n/a	n/a	n/a	n/a	n/a	fixation
66761.734649644466	2750	n/a	1174	89	2750	811.265350355	stim	stop-signal	608	1695768	0.0-25.13-1.13	beast_fmri_test	359	1693412,/,1694091,/,1694771,/,1695449,/,1696129,/	t,t,t,t,t	<img class = center src='/static/experiments/beast_fmri_test/images/V.png'></img>	89,71	2750.0	test	<img class = center src='/static/experiments/beast_fmri_test/images/redV.png'></img>	go	1800.0	2.0	13.0	go	target	V	89,Middle Finger	71,Index Finger	950.0	1000.0	1800.0	1750.0	1.0	n/a	950.0	1.0	go_stim
69511.734649644466	811.26535035548523	n/a	1174	89	2750	811.265350355	stim	stop-signal	608	1695768	0.0-25.13-1.13	beast_fmri_test	359	1693412,/,1694091,/,1694771,/,1695449,/,1696129,/	t,t,t,t,t	<img class = center src='/static/experiments/beast_fmri_test/images/V.png'></img>	89,71	2750.0	test	<img class = center src='/static/experiments/beast_fmri_test/images/redV.png'></img>	go	1800.0	2.0	13.0	go	target	V	89,Middle Finger	71,Index Finger	950.0	1000.0	1800.0	1750.0	1.0	n/a	950.0	1.0	ITI
71701	500	n/a	-1	-1	500	0.0	fixation	poldrack-single-stim	609	1697146	0.0-25.14-0.14	beast_fmri_test	359	1696811,/	t	<div class = centerbox2><div class = fixation>+</div></div>	none	500.0	test	n/a	n/a	n/a	n/a	n/a	n/a	n/a	n/a	n/a	n/a	n/a	n/a	n/a	n/a	n/a	n/a	n/a	n/a	fixation
71033.914074457949	2750	n/a	974	71	2750	669.085925542	stim	stop-signal	610	1699898	0.0-25.14-1.14	beast_fmri_test	359	1697489,/,1698168,/,1698849,/,1699528,/,1700207,/	t,t,t,t,t	<img class = center src='/static/experiments/beast_fmri_test/images/D.png'></img>	89,71	2750.0	test	<img class = center src='/static/experiments/beast_fmri_test/images/redD.png'></img>	go	1750.0	2.0	14.0	go	non-target	D	89,Middle Finger	71,Index Finger	950.0	1000.0	1800.0	1750.0	1.0	n/a	1000.0	1.0	go_stim
73783.914074457949	669.08592554211327	n/a	974	71	2750	669.085925542	stim	stop-signal	610	1699898	0.0-25.14-1.14	beast_fmri_test	359	1697489,/,1698168,/,1698849,/,1699528,/,1700207,/	t,t,t,t,t	<img class = center src='/static/experiments/beast_fmri_test/images/D.png'></img>	89,71	2750.0	test	<img class = center src='/static/experiments/beast_fmri_test/images/redD.png'></img>	go	1750.0	2.0	14.0	go	non-target	D	89,Middle Finger	71,Index Finger	950.0	1000.0	1800.0	1750.0	1.0	n/a	1000.0	1.0	ITI
75687	500	n/a	-1	-1	500	0.0	fixation	poldrack-single-stim	611	1701132	0.0-25.15-0.15	beast_fmri_test	359	1700889,/	t	<div class = centerbox2><div class = fixation>+</div></div>	none	500.0	test	n/a	n/a	n/a	n/a	n/a	n/a	n/a	n/a	n/a	n/a	n/a	n/a	n/a	n/a	n/a	n/a	n/a	n/a	fixation
74296.607894878602	1000.0	n/a	-1	-1	2750	1393.39210512	stim	stop-signal	612	1703885	0.0-25.15-1.15	beast_fmri_test	359	1701568,/,1702247,/,1702927,/,1703607,/,1704287,/,1704967,/	t,t,t,t,t,t	<img class = center src='/static/experiments/beast_fmri_test/images/D.png'></img>	89,71	2750.0	test	<img class = center src='/static/experiments/beast_fmri_test/images/redD.png'></img>	stop	1750.0	2.0	15.0	stop	non-target	D	89,Middle Finger	71,Index Finger	950.0	1000.0	1800.0	1750.0	0.0	1.0	1000.0	n/a	go_stim
76046.607894878602	1750.0	n/a	-1	-1	2750	1393.39210512	stim	stop-signal	612	1703885	0.0-25.15-1.15	beast_fmri_test	359	1701568,/,1702247,/,1702927,/,1703607,/,1704287,/,1704967,/	t,t,t,t,t,t	<img class = center src='/static/experiments/beast_fmri_test/images/D.png'></img>	89,71	2750.0	test	<img class = center src='/static/experiments/beast_fmri_test/images/redD.png'></img>	stop	1750.0	2.0	15.0	stop	non-target	D	89,Middle Finger	71,Index Finger	950.0	1000.0	1800.0	1750.0	0.0	1.0	1000.0	n/a	stop_stim
77046.607894878602	1393.3921051213413	n/a	-1	-1	2750	1393.39210512	stim	stop-signal	612	1703885	0.0-25.15-1.15	beast_fmri_test	359	1701568,/,1702247,/,1702927,/,1703607,/,1704287,/,1704967,/	t,t,t,t,t,t	<img class = center src='/static/experiments/beast_fmri_test/images/D.png'></img>	89,71	2750.0	test	<img class = center src='/static/experiments/beast_fmri_test/images/redD.png'></img>	stop	1750.0	2.0	15.0	stop	non-target	D	89,Middle Finger	71,Index Finger	950.0	1000.0	1800.0	1750.0	0.0	1.0	1000.0	n/a	ITI
80397	500	n/a	-1	-1	500	0.0	fixation	poldrack-single-stim	613	1705842	0.0-25.16-0.16	beast_fmri_test	359	1705645,/	t	<div class = centerbox2><div class = fixation>+</div></div>	none	500.0	test	n/a	n/a	n/a	n/a	n/a	n/a	n/a	n/a	n/a	n/a	n/a	n/a	n/a	n/a	n/a	n/a	n/a	n/a	fixation
80156.9498108353	950.0	n/a	990	89	2750	242.050189165	stim	stop-signal	614	1708594	0.0-25.16-1.16	beast_fmri_test	359	1706326,/,1707005,/,1707685,/,1708365,/	t,t,t,t	<img class = center src='/static/experiments/beast_fmri_test/images/D.png'></img>	89,71	2750.0	test	<img class = center src='/static/experiments/beast_fmri_test/images/redD.png'></img>	stop	1800.0	2.0	16.0	stop	target	D	89,Middle Finger	71,Index Finger	950.0	1050.0	1800.0	1750.0	0.0	0.0	950.0	n/a	go_stim
81956.9498108353	1800.0	n/a	990	89	2750	242.050189165	stim	stop-signal	614	1708594	0.0-25.16-1.16	beast_fmri_test	359	1706326,/,1707005,/,1707685,/,1708365,/	t,t,t,t	<img class = center src='/static/experiments/beast_fmri_test/images/D.png'></img>	89,71	2750.0	test	<img class = center src='/static/experiments/beast_fmri_test/images/redD.png'></img>	stop	1800.0	2.0	16.0	stop	target	D	89,Middle Finger	71,Index Finger	950.0	1050.0	1800.0	1750.0	0.0	0.0	950.0	n/a	stop_stim
82906.9498108353	242.05018916479838	n/a	990	89	2750	242.050189165	stim	stop-signal	614	1708594	0.0-25.16-1.16	beast_fmri_test	359	1706326,/,1707005,/,1707685,/,1708365,/	t,t,t,t	<img class = center src='/static/experiments/beast_fmri_test/images/D.png'></img>	89,71	2750.0	test	<img class = center src='/static/experiments/beast_fmri_test/images/redD.png'></img>	stop	1800.0	2.0	16.0	stop	target	D	89,Middle Finger	71,Index Finger	950.0	1050.0	1800.0	1750.0	0.0	0.0	950.0	n/a	ITI
83955	500	n/a	-1	-1	500	0.0	fixation	poldrack-single-stim	615	1709400	0.0-25.17-0.17	beast_fmri_test	359	1709045,/	t	<div class = centerbox2><div class = fixation>+</div></div>	none	500.0	test	n/a	n/a	n/a	n/a	n/a	n/a	n/a	n/a	n/a	n/a	n/a	n/a	n/a	n/a	n/a	n/a	n/a	n/a	fixation
82882.259323909413	1050.0	n/a	826	71	2750	1073.74067609	stim	stop-signal	616	1712151	0.0-25.17-1.17	beast_fmri_test	359	1709723,/,1710404,/,1711084,/,1711764,/,1712442,/,1713122,/	t,t,t,t,t,t	<img class = center src='/static/experiments/beast_fmri_test/images/P.png'></img>	89,71	2750.0	test	<img class = center src='/static/experiments/beast_fmri_test/images/redP.png'></img>	stop	1700.0	2.0	17.0	stop	non-target	P	89,Middle Finger	71,Index Finger	900.0	1050.0	1800.0	1700.0	0.0	0.0	1050.0	n/a	go_stim
84582.259323909413	1700.0	n/a	826	71	2750	1073.74067609	stim	stop-signal	616	1712151	0.0-25.17-1.17	beast_fmri_test	359	1709723,/,1710404,/,1711084,/,1711764,/,1712442,/,1713122,/	t,t,t,t,t,t	<img class = center src='/static/experiments/beast_fmri_test/images/P.png'></img>	89,71	2750.0	test	<img class = center src='/static/experiments/beast_fmri_test/images/redP.png'></img>	stop	1700.0	2.0	17.0	stop	non-target	P	89,Middle Finger	71,Index Finger	900.0	1050.0	1800.0	1700.0	0.0	0.0	1050.0	n/a	stop_stim
85632.259323909413	1073.7406760905824	n/a	826	71	2750	1073.74067609	stim	stop-signal	616	1712151	0.0-25.17-1.17	beast_fmri_test	359	1709723,/,1710404,/,1711084,/,1711764,/,1712442,/,1713122,/	t,t,t,t,t,t	<img class = center src='/static/experiments/beast_fmri_test/images/P.png'></img>	89,71	2750.0	test	<img class = center src='/static/experiments/beast_fmri_test/images/redP.png'></img>	stop	1700.0	2.0	17.0	stop	non-target	P	89,Middle Finger	71,Index Finger	900.0	1050.0	1800.0	1700.0	0.0	0.0	1050.0	n/a	ITI
88357	500	n/a	-1	-1	500	0.0	fixation	poldrack-single-stim	617	1713802	0.0-25.18-0.18	beast_fmri_test	359	n/a	n/a	<div class = centerbox2><div class = fixation>+</div></div>	none	500.0	test	n/a	n/a	n/a	n/a	n/a	n/a	n/a	n/a	n/a	n/a	n/a	n/a	n/a	n/a	n/a	n/a	n/a	n/a	fixation
87690.729056899203	1000.0	n/a	1179	71	2750	668.270943101	stim	stop-signal	618	1716554	0.0-25.18-1.18	beast_fmri_test	359	1713804,/,1714481,/,1715162,/,1715841,/,1716521,/,1717200,/	t,t,t,t,t,t	<img class = center src='/static/experiments/beast_fmri_test/images/V.png'></img>	89,71	2750.0	test	<img class = center src='/static/experiments/beast_fmri_test/images/redV.png'></img>	stop	1750.0	2.0	18.0	stop	non-target	V	89,Middle Finger	71,Index Finger	900.0	1000.0	1800.0	1750.0	0.0	0.0	1000.0	n/a	go_stim
89440.729056899203	1750.0	n/a	1179	71	2750	668.270943101	stim	stop-signal	618	1716554	0.0-25.18-1.18	beast_fmri_test	359	1713804,/,1714481,/,1715162,/,1715841,/,1716521,/,1717200,/	t,t,t,t,t,t	<img class = center src='/static/experiments/beast_fmri_test/images/V.png'></img>	89,71	2750.0	test	<img class = center src='/static/experiments/beast_fmri_test/images/redV.png'></img>	stop	1750.0	2.0	18.0	stop	non-target	V	89,Middle Finger	71,Index Finger	900.0	1000.0	1800.0	1750.0	0.0	0.0	1000.0	n/a	stop_stim
90440.729056899203	668.27094310082043	n/a	1179	71	2750	668.270943101	stim	stop-signal	618	1716554	0.0-25.18-1.18	beast_fmri_test	359	1713804,/,1714481,/,1715162,/,1715841,/,1716521,/,1717200,/	t,t,t,t,t,t	<img class = center src='/static/experiments/beast_fmri_test/images/V.png'></img>	89,71	2750.0	test	<img class = center src='/static/experiments/beast_fmri_test/images/redV.png'></img>	stop	1750.0	2.0	18.0	stop	non-target	V	89,Middle Finger	71,Index Finger	900.0	1000.0	1800.0	1750.0	0.0	0.0	1000.0	n/a	ITI
92339	500	n/a	-1	-1	500	0.0	fixation	poldrack-single-stim	619	1717784	0.0-25.19-0.19	beast_fmri_test	359	n/a	n/a	<div class = centerbox2><div class = fixation>+</div></div>	none	500.0	test	n/a	n/a	n/a	n/a	n/a	n/a	n/a	n/a	n/a	n/a	n/a	n/a	n/a	n/a	n/a	n/a	n/a	n/a	fixation
89858.788533163024	2750	n/a	1342	89	2750	2482.21146684	stim	stop-signal	620	1720536	0.0-25.19-1.19	beast_fmri_test	359	1717880,/,1718560,/,1719240,/,1719918,/,1720599,/,1721279,/,1721959,/,1722637,/	t,t,t,t,t,t,t,t	<img class = center src='/static/experiments/beast_fmri_test/images/P.png'></img>	89,71	2750.0	test	<img class = center src='/static/experiments/beast_fmri_test/images/redP.png'></img>	go	1850.0	2.0	19.0	go	target	P	89,Middle Finger	71,Index Finger	900.0	950.0	1850.0	1750.0	1.0	n/a	900.0	1.0	go_stim
92608.788533163024	2482.2114668370541	n/a	1342	89	2750	2482.21146684	stim	stop-signal	620	1720536	0.0-25.19-1.19	beast_fmri_test	359	1717880,/,1718560,/,1719240,/,1719918,/,1720599,/,1721279,/,1721959,/,1722637,/	t,t,t,t,t,t,t,t	<img class = center src='/static/experiments/beast_fmri_test/images/P.png'></img>	89,71	2750.0	test	<img class = center src='/static/experiments/beast_fmri_test/images/redP.png'></img>	go	1850.0	2.0	19.0	go	target	P	89,Middle Finger	71,Index Finger	900.0	950.0	1850.0	1750.0	1.0	n/a	900.0	1.0	ITI
98137	500	n/a	-1	-1	500	0.0	fixation	poldrack-single-stim	621	1723582	0.0-25.20-0.20	beast_fmri_test	359	1723318,/	t	<div class = centerbox2><div class = fixation>+</div></div>	none	500.0	test	n/a	n/a	n/a	n/a	n/a	n/a	n/a	n/a	n/a	n/a	n/a	n/a	n/a	n/a	n/a	n/a	n/a	n/a	fixation
96971.076326463837	2750	n/a	1242	71	2750	1167.92367354	stim	stop-signal	622	1726334	0.0-25.20-1.20	beast_fmri_test	359	1723996,/,1724678,/,1725357,/,1726036,/,1726717,/,1727395,/	t,t,t,t,t,t	<img class = center src='/static/experiments/beast_fmri_test/images/D.png'></img>	89,71	2750.0	test	<img class = center src='/static/experiments/beast_fmri_test/images/redD.png'></img>	go	1800.0	2.0	20.0	go	non-target	D	89,Middle Finger	71,Index Finger	900.0	950.0	1850.0	1800.0	1.0	n/a	950.0	1.0	go_stim
99721.076326463837	1167.9236735361314	n/a	1242	71	2750	1167.92367354	stim	stop-signal	622	1726334	0.0-25.20-1.20	beast_fmri_test	359	1723996,/,1724678,/,1725357,/,1726036,/,1726717,/,1727395,/	t,t,t,t,t,t	<img class = center src='/static/experiments/beast_fmri_test/images/D.png'></img>	89,71	2750.0	test	<img class = center src='/static/experiments/beast_fmri_test/images/redD.png'></img>	go	1800.0	2.0	20.0	go	non-target	D	89,Middle Finger	71,Index Finger	900.0	950.0	1850.0	1800.0	1.0	n/a	950.0	1.0	ITI
102627	500	n/a	-1	-1	500	0.0	fixation	poldrack-single-stim	623	1728072	0.0-25.21-0.21	beast_fmri_test	359	n/a	n/a	<div class = centerbox2><div class = fixation>+</div></div>	none	500.0	test	n/a	n/a	n/a	n/a	n/a	n/a	n/a	n/a	n/a	n/a	n/a	n/a	n/a	n/a	n/a	n/a	n/a	n/a	fixation
101482.4022079173	950.0	n/a	-1	-1	2750	1146.59779208	stim	stop-signal	624	1730824	0.0-25.21-1.21	beast_fmri_test	359	1728075,/,1728754,/,1729435,/,1730115,/,1730794,/,1731474,/	t,t,t,t,t,t	<img class = center src='/static/experiments/beast_fmri_test/images/D.png'></img>	89,71	2750.0	test	<img class = center src='/static/experiments/beast_fmri_test/images/redD.png'></img>	stop	1800.0	2.0	21.0	stop	non-target	D	89,Middle Finger	71,Index Finger	900.0	950.0	1850.0	1800.0	0.0	1.0	950.0	n/a	go_stim
103282.4022079173	1800.0	n/a	-1	-1	2750	1146.59779208	stim	stop-signal	624	1730824	0.0-25.21-1.21	beast_fmri_test	359	1728075,/,1728754,/,1729435,/,1730115,/,1730794,/,1731474,/	t,t,t,t,t,t	<img class = center src='/static/experiments/beast_fmri_test/images/D.png'></img>	89,71	2750.0	test	<img class = center src='/static/experiments/beast_fmri_test/images/redD.png'></img>	stop	1800.0	2.0	21.0	stop	non-target	D	89,Middle Finger	71,Index Finger	900.0	950.0	1850.0	1800.0	0.0	1.0	950.0	n/a	stop_stim
104232.4022079173	1146.597792082667	n/a	-1	-1	2750	1146.59779208	stim	stop-signal	624	1730824	0.0-25.21-1.21	beast_fmri_test	359	1728075,/,1728754,/,1729435,/,1730115,/,1730794,/,1731474,/	t,t,t,t,t,t	<img class = center src='/static/experiments/beast_fmri_test/images/D.png'></img>	89,71	2750.0	test	<img class = center src='/static/experiments/beast_fmri_test/images/redD.png'></img>	stop	1800.0	2.0	21.0	stop	non-target	D	89,Middle Finger	71,Index Finger	900.0	950.0	1850.0	1800.0	0.0	1.0	950.0	n/a	ITI
107094	500	n/a	-1	-1	500	0.0	fixation	poldrack-single-stim	625	1732539	0.0-25.22-0.22	beast_fmri_test	359	1732154,/	t	<div class = centerbox2><div class = fixation>+</div></div>	none	500.0	test	n/a	n/a	n/a	n/a	n/a	n/a	n/a	n/a	n/a	n/a	n/a	n/a	n/a	n/a	n/a	n/a	n/a	n/a	fixation
106940.28535389272	2750	n/a	1237	89	2750	154.714646107	stim	stop-signal	626	1735290	0.0-25.22-1.22	beast_fmri_test	359	1732835,/,1733513,/,1734193,/,1734872,/	t,t,t,t	<img class = center src='/static/experiments/beast_fmri_test/images/V.png'></img>	89,71	2750.0	test	<img class = center src='/static/experiments/beast_fmri_test/images/redV.png'></img>	go	1750.0	2.0	22.0	go	non-target	V	89,Middle Finger	71,Index Finger	900.0	1000.0	1850.0	1750.0	0.0	n/a	1000.0	0.0	go_stim
109690.28535389272	154.71464610739406	n/a	1237	89	2750	154.714646107	stim	stop-signal	626	1735290	0.0-25.22-1.22	beast_fmri_test	359	1732835,/,1733513,/,1734193,/,1734872,/	t,t,t,t	<img class = center src='/static/experiments/beast_fmri_test/images/V.png'></img>	89,71	2750.0	test	<img class = center src='/static/experiments/beast_fmri_test/images/redV.png'></img>	go	1750.0	2.0	22.0	go	non-target	V	89,Middle Finger	71,Index Finger	900.0	1000.0	1850.0	1750.0	0.0	n/a	1000.0	0.0	ITI
110569	500	n/a	-1	-1	500	0.0	fixation	poldrack-single-stim	627	1736014	0.0-25.23-0.23	beast_fmri_test	359	1735552,/	t	<div class = centerbox2><div class = fixation>+</div></div>	none	500.0	test	n/a	n/a	n/a	n/a	n/a	n/a	n/a	n/a	n/a	n/a	n/a	n/a	n/a	n/a	n/a	n/a	n/a	n/a	fixation
110151.64254922303	900.0	n/a	1055	71	2750	418.357450777	stim	stop-signal	628	1738765	0.0-25.23-1.23	beast_fmri_test	359	1736231,/,1736911,/,1737591,/,1738270,/,1738951,/	t,t,t,t,t	<img class = center src='/static/experiments/beast_fmri_test/images/D.png'></img>	89,71	2750.0	test	<img class = center src='/static/experiments/beast_fmri_test/images/redD.png'></img>	stop	1850.0	2.0	23.0	stop	target	D	89,Middle Finger	71,Index Finger	900.0	1000.0	1850.0	1750.0	0.0	0.0	900.0	n/a	go_stim
112001.64254922303	1850.0	n/a	1055	71	2750	418.357450777	stim	stop-signal	628	1738765	0.0-25.23-1.23	beast_fmri_test	359	1736231,/,1736911,/,1737591,/,1738270,/,1738951,/	t,t,t,t,t	<img class = center src='/static/experiments/beast_fmri_test/images/D.png'></img>	89,71	2750.0	test	<img class = center src='/static/experiments/beast_fmri_test/images/redD.png'></img>	stop	1850.0	2.0	23.0	stop	target	D	89,Middle Finger	71,Index Finger	900.0	1000.0	1850.0	1750.0	0.0	0.0	900.0	n/a	stop_stim
112901.64254922303	418.35745077688341	n/a	1055	71	2750	418.357450777	stim	stop-signal	628	1738765	0.0-25.23-1.23	beast_fmri_test	359	1736231,/,1736911,/,1737591,/,1738270,/,1738951,/	t,t,t,t,t	<img class = center src='/static/experiments/beast_fmri_test/images/D.png'></img>	89,71	2750.0	test	<img class = center src='/static/experiments/beast_fmri_test/images/redD.png'></img>	stop	1850.0	2.0	23.0	stop	target	D	89,Middle Finger	71,Index Finger	900.0	1000.0	1850.0	1750.0	0.0	0.0	900.0	n/a	ITI
114307	500	n/a	-1	-1	500	0.0	fixation	poldrack-single-stim	629	1739752	0.0-25.24-0.24	beast_fmri_test	359	1739631,/	t	<div class = centerbox2><div class = fixation>+</div></div>	none	500.0	test	n/a	n/a	n/a	n/a	n/a	n/a	n/a	n/a	n/a	n/a	n/a	n/a	n/a	n/a	n/a	n/a	n/a	n/a	fixation
114204.29243392986	2750	n/a	1109	71	2750	104.70756607	stim	stop-signal	630	1742504	0.0-25.24-1.24	beast_fmri_test	359	1740310,/,1740989,/,1741668,/,1742348,/	t,t,t,t	<img class = center src='/static/experiments/beast_fmri_test/images/P.png'></img>	89,71	2750.0	test	<img class = center src='/static/experiments/beast_fmri_test/images/redP.png'></img>	go	1750.0	2.0	24.0	go	non-target	P	89,Middle Finger	71,Index Finger	850.0	1000.0	1850.0	1750.0	1.0	n/a	1000.0	1.0	go_stim
116954.29243392986	104.70756607024212	n/a	1109	71	2750	104.70756607	stim	stop-signal	630	1742504	0.0-25.24-1.24	beast_fmri_test	359	1740310,/,1740989,/,1741668,/,1742348,/	t,t,t,t	<img class = center src='/static/experiments/beast_fmri_test/images/P.png'></img>	89,71	2750.0	test	<img class = center src='/static/experiments/beast_fmri_test/images/redP.png'></img>	go	1750.0	2.0	24.0	go	non-target	P	89,Middle Finger	71,Index Finger	850.0	1000.0	1850.0	1750.0	1.0	n/a	1000.0	1.0	ITI
117734	500	n/a	-1	-1	500	0.0	fixation	poldrack-single-stim	631	1743179	0.0-25.25-0.25	beast_fmri_test	359	1743029,/	t	<div class = centerbox2><div class = fixation>+</div></div>	none	500.0	test	n/a	n/a	n/a	n/a	n/a	n/a	n/a	n/a	n/a	n/a	n/a	n/a	n/a	n/a	n/a	n/a	n/a	n/a	fixation
116860.26617907034	850.0	n/a	1079	89	2750	875.73382093	stim	stop-signal	632	1745931	0.0-25.25-1.25	beast_fmri_test	359	1743708,/,1744388,/,1745068,/,1745748,/,1746427,/	t,t,t,t,t	<img class = center src='/static/experiments/beast_fmri_test/images/D.png'></img>	89,71	2750.0	test	<img class = center src='/static/experiments/beast_fmri_test/images/redD.png'></img>	stop	1900.0	2.0	25.0	stop	target	D	89,Middle Finger	71,Index Finger	850.0	1000.0	1900.0	1750.0	0.0	0.0	850.0	n/a	go_stim
118760.26617907034	1900.0	n/a	1079	89	2750	875.73382093	stim	stop-signal	632	1745931	0.0-25.25-1.25	beast_fmri_test	359	1743708,/,1744388,/,1745068,/,1745748,/,1746427,/	t,t,t,t,t	<img class = center src='/static/experiments/beast_fmri_test/images/D.png'></img>	89,71	2750.0	test	<img class = center src='/static/experiments/beast_fmri_test/images/redD.png'></img>	stop	1900.0	2.0	25.0	stop	target	D	89,Middle Finger	71,Index Finger	850.0	1000.0	1900.0	1750.0	0.0	0.0	850.0	n/a	stop_stim
119610.26617907034	875.73382092971769	n/a	1079	89	2750	875.73382093	stim	stop-signal	632	1745931	0.0-25.25-1.25	beast_fmri_test	359	1743708,/,1744388,/,1745068,/,1745748,/,1746427,/	t,t,t,t,t	<img class = center src='/static/experiments/beast_fmri_test/images/D.png'></img>	89,71	2750.0	test	<img class = center src='/static/experiments/beast_fmri_test/images/redD.png'></img>	stop	1900.0	2.0	25.0	stop	target	D	89,Middle Finger	71,Index Finger	850.0	1000.0	1900.0	1750.0	0.0	0.0	850.0	n/a	ITI
121930	500	n/a	-1	-1	500	0.0	fixation	poldrack-single-stim	633	1747375	0.0-25.26-0.26	beast_fmri_test	359	1747107,/	t	<div class = centerbox2><div class = fixation>+</div></div>	none	500.0	test	n/a	n/a	n/a	n/a	n/a	n/a	n/a	n/a	n/a	n/a	n/a	n/a	n/a	n/a	n/a	n/a	n/a	n/a	fixation
121817.22390862205	1000.0	n/a	-1	-1	2750	113.776091378	stim	stop-signal	634	1750126	0.0-25.26-1.26	beast_fmri_test	359	1747788,/,1748467,/,1749146,/,1749825,/	t,t,t,t	<img class = center src='/static/experiments/beast_fmri_test/images/D.png'></img>	89,71	2750.0	test	<img class = center src='/static/experiments/beast_fmri_test/images/redD.png'></img>	stop	1750.0	2.0	26.0	stop	non-target	D	89,Middle Finger	71,Index Finger	800.0	1000.0	1900.0	1750.0	0.0	1.0	1000.0	n/a	go_stim
123567.22390862205	1750.0	n/a	-1	-1	2750	113.776091378	stim	stop-signal	634	1750126	0.0-25.26-1.26	beast_fmri_test	359	1747788,/,1748467,/,1749146,/,1749825,/	t,t,t,t	<img class = center src='/static/experiments/beast_fmri_test/images/D.png'></img>	89,71	2750.0	test	<img class = center src='/static/experiments/beast_fmri_test/images/redD.png'></img>	stop	1750.0	2.0	26.0	stop	non-target	D	89,Middle Finger	71,Index Finger	800.0	1000.0	1900.0	1750.0	0.0	1.0	1000.0	n/a	stop_stim
124567.22390862205	113.77609137787084	n/a	-1	-1	2750	113.776091378	stim	stop-signal	634	1750126	0.0-25.26-1.26	beast_fmri_test	359	1747788,/,1748467,/,1749146,/,1749825,/	t,t,t,t	<img class = center src='/static/experiments/beast_fmri_test/images/D.png'></img>	89,71	2750.0	test	<img class = center src='/static/experiments/beast_fmri_test/images/redD.png'></img>	stop	1750.0	2.0	26.0	stop	non-target	D	89,Middle Finger	71,Index Finger	800.0	1000.0	1900.0	1750.0	0.0	1.0	1000.0	n/a	ITI
125365	500	n/a	-1	-1	500	0.0	fixation	poldrack-single-stim	635	1750810	0.0-25.27-0.27	beast_fmri_test	359	1750505,/	t	<div class = centerbox2><div class = fixation>+</div></div>	none	500.0	test	n/a	n/a	n/a	n/a	n/a	n/a	n/a	n/a	n/a	n/a	n/a	n/a	n/a	n/a	n/a	n/a	n/a	n/a	fixation
125203.06942149205	2750	n/a	1114	71	2750	163.930578508	stim	stop-signal	636	1753562	0.0-25.27-1.27	beast_fmri_test	359	1751185,/,1751865,/,1752545,/,1753224,/	t,t,t,t	<img class = center src='/static/experiments/beast_fmri_test/images/T.png'></img>	89,71	2750.0	test	<img class = center src='/static/experiments/beast_fmri_test/images/redT.png'></img>	go	1700.0	2.0	27.0	go	non-target	T	89,Middle Finger	71,Index Finger	800.0	1050.0	1900.0	1700.0	1.0	n/a	1050.0	1.0	go_stim
127953.06942149205	163.93057850804541	n/a	1114	71	2750	163.930578508	stim	stop-signal	636	1753562	0.0-25.27-1.27	beast_fmri_test	359	1751185,/,1751865,/,1752545,/,1753224,/	t,t,t,t	<img class = center src='/static/experiments/beast_fmri_test/images/T.png'></img>	89,71	2750.0	test	<img class = center src='/static/experiments/beast_fmri_test/images/redT.png'></img>	go	1700.0	2.0	27.0	go	non-target	T	89,Middle Finger	71,Index Finger	800.0	1050.0	1900.0	1700.0	1.0	n/a	1050.0	1.0	ITI
128850	500	n/a	-1	-1	500	0.0	fixation	poldrack-single-stim	637	1754295	0.0-25.28-0.28	beast_fmri_test	359	1753904,/	t	<div class = centerbox2><div class = fixation>+</div></div>	none	500.0	test	n/a	n/a	n/a	n/a	n/a	n/a	n/a	n/a	n/a	n/a	n/a	n/a	n/a	n/a	n/a	n/a	n/a	n/a	fixation
128376.90680678794	1050.0	n/a	1129	71	2750	476.093193212	stim	stop-signal	638	1757048	0.0-25.28-1.28	beast_fmri_test	359	1754583,/,1755262,/,1755941,/,1756621,/,1757301,/	t,t,t,t,t	<img class = center src='/static/experiments/beast_fmri_test/images/B.png'></img>	89,71	2750.0	test	<img class = center src='/static/experiments/beast_fmri_test/images/redB.png'></img>	stop	1700.0	2.0	28.0	stop	non-target	B	89,Middle Finger	71,Index Finger	800.0	1050.0	1900.0	1700.0	0.0	0.0	1050.0	n/a	go_stim
130076.90680678794	1700.0	n/a	1129	71	2750	476.093193212	stim	stop-signal	638	1757048	0.0-25.28-1.28	beast_fmri_test	359	1754583,/,1755262,/,1755941,/,1756621,/,1757301,/	t,t,t,t,t	<img class = center src='/static/experiments/beast_fmri_test/images/B.png'></img>	89,71	2750.0	test	<img class = center src='/static/experiments/beast_fmri_test/images/redB.png'></img>	stop	1700.0	2.0	28.0	stop	non-target	B	89,Middle Finger	71,Index Finger	800.0	1050.0	1900.0	1700.0	0.0	0.0	1050.0	n/a	stop_stim
131126.90680678794	476.093193212139	n/a	1129	71	2750	476.093193212	stim	stop-signal	638	1757048	0.0-25.28-1.28	beast_fmri_test	359	1754583,/,1755262,/,1755941,/,1756621,/,1757301,/	t,t,t,t,t	<img class = center src='/static/experiments/beast_fmri_test/images/B.png'></img>	89,71	2750.0	test	<img class = center src='/static/experiments/beast_fmri_test/images/redB.png'></img>	stop	1700.0	2.0	28.0	stop	non-target	B	89,Middle Finger	71,Index Finger	800.0	1050.0	1900.0	1700.0	0.0	0.0	1050.0	n/a	ITI
132645	500	n/a	-1	-1	500	0.0	fixation	poldrack-single-stim	639	1758090	0.0-25.29-0.29	beast_fmri_test	359	1757981,/	t	<div class = centerbox2><div class = fixation>+</div></div>	none	500.0	test	n/a	n/a	n/a	n/a	n/a	n/a	n/a	n/a	n/a	n/a	n/a	n/a	n/a	n/a	n/a	n/a	n/a	n/a	fixation
131703.40814732714	2750	n/a	1291	71	2750	944.591852673	stim	stop-signal	640	1760843	0.0-25.29-1.29	beast_fmri_test	359	1758661,/,1759341,/,1760019,/,1760701,/,1761379,/	t,t,t,t,t	<img class = center src='/static/experiments/beast_fmri_test/images/P.png'></img>	89,71	2750.0	test	<img class = center src='/static/experiments/beast_fmri_test/images/redP.png'></img>	go	1750.0	2.0	29.0	go	non-target	P	89,Middle Finger	71,Index Finger	800.0	1000.0	1900.0	1750.0	1.0	n/a	1000.0	1.0	go_stim
134453.40814732714	944.59185267276871	n/a	1291	71	2750	944.591852673	stim	stop-signal	640	1760843	0.0-25.29-1.29	beast_fmri_test	359	1758661,/,1759341,/,1760019,/,1760701,/,1761379,/	t,t,t,t,t	<img class = center src='/static/experiments/beast_fmri_test/images/P.png'></img>	89,71	2750.0	test	<img class = center src='/static/experiments/beast_fmri_test/images/redP.png'></img>	go	1750.0	2.0	29.0	go	non-target	P	89,Middle Finger	71,Index Finger	800.0	1000.0	1900.0	1750.0	1.0	n/a	1000.0	1.0	ITI
136909	500	n/a	-1	-1	500	0.0	fixation	poldrack-single-stim	641	1762354	0.0-25.30-0.30	beast_fmri_test	359	1762060,/	t	<div class = centerbox2><div class = fixation>+</div></div>	none	500.0	test	n/a	n/a	n/a	n/a	n/a	n/a	n/a	n/a	n/a	n/a	n/a	n/a	n/a	n/a	n/a	n/a	n/a	n/a	fixation
136469.41446874873	2750	n/a	1074	89	2750	442.585531251	stim	stop-signal	642	1765107	0.0-25.30-1.30	beast_fmri_test	359	1762740,/,1763420,/,1764099,/,1764779,/,1765459,/	t,t,t,t,t	<img class = center src='/static/experiments/beast_fmri_test/images/B.png'></img>	89,71	2750.0	test	<img class = center src='/static/experiments/beast_fmri_test/images/redB.png'></img>	go	1950.0	2.0	30.0	go	target	B	89,Middle Finger	71,Index Finger	800.0	1000.0	1950.0	1750.0	1.0	n/a	800.0	1.0	go_stim
139219.41446874873	442.58553125129976	n/a	1074	89	2750	442.585531251	stim	stop-signal	642	1765107	0.0-25.30-1.30	beast_fmri_test	359	1762740,/,1763420,/,1764099,/,1764779,/,1765459,/	t,t,t,t,t	<img class = center src='/static/experiments/beast_fmri_test/images/B.png'></img>	89,71	2750.0	test	<img class = center src='/static/experiments/beast_fmri_test/images/redB.png'></img>	go	1950.0	2.0	30.0	go	target	B	89,Middle Finger	71,Index Finger	800.0	1000.0	1950.0	1750.0	1.0	n/a	800.0	1.0	ITI
140668	500	n/a	-1	-1	500	0.0	fixation	poldrack-single-stim	643	1766113	0.0-25.31-0.31	beast_fmri_test	359	n/a	n/a	<div class = centerbox2><div class = fixation>+</div></div>	none	500.0	test	n/a	n/a	n/a	n/a	n/a	n/a	n/a	n/a	n/a	n/a	n/a	n/a	n/a	n/a	n/a	n/a	n/a	n/a	fixation
138853.66242848081	2750	n/a	1409	71	2750	1816.33757152	stim	stop-signal	644	1768865	0.0-25.31-1.31	beast_fmri_test	359	1766140,/,1766818,/,1767498,/,1768177,/,1768857,/,1769536,/,1770216,/	t,t,t,t,t,t,t	<img class = center src='/static/experiments/beast_fmri_test/images/B.png'></img>	89,71	2750.0	test	<img class = center src='/static/experiments/beast_fmri_test/images/redB.png'></img>	go	1750.0	2.0	31.0	go	non-target	B	89,Middle Finger	71,Index Finger	800.0	1000.0	1950.0	1750.0	1.0	n/a	1000.0	1.0	go_stim
141603.66242848081	1816.3375715192981	n/a	1409	71	2750	1816.33757152	stim	stop-signal	644	1768865	0.0-25.31-1.31	beast_fmri_test	359	1766140,/,1766818,/,1767498,/,1768177,/,1768857,/,1769536,/,1770216,/	t,t,t,t,t,t,t	<img class = center src='/static/experiments/beast_fmri_test/images/B.png'></img>	89,71	2750.0	test	<img class = center src='/static/experiments/beast_fmri_test/images/redB.png'></img>	go	1750.0	2.0	31.0	go	non-target	B	89,Middle Finger	71,Index Finger	800.0	1000.0	1950.0	1750.0	1.0	n/a	1000.0	1.0	ITI
145794	500	n/a	-1	-1	500	0.0	fixation	poldrack-single-stim	645	1771239	0.0-25.32-0.32	beast_fmri_test	359	1770895,/	t	<div class = centerbox2><div class = fixation>+</div></div>	none	500.0	test	n/a	n/a	n/a	n/a	n/a	n/a	n/a	n/a	n/a	n/a	n/a	n/a	n/a	n/a	n/a	n/a	n/a	n/a	fixation
144430.33395530726	2750	n/a	902	71	2750	1364.66604469	stim	stop-signal	646	1773990	0.0-25.32-1.32	beast_fmri_test	359	1771576,/,1772255,/,1772934,/,1773614,/,1774294,/,1774974,/	t,t,t,t,t,t	<img class = center src='/static/experiments/beast_fmri_test/images/T.png'></img>	89,71	2750.0	test	<img class = center src='/static/experiments/beast_fmri_test/images/redT.png'></img>	go	1750.0	2.0	32.0	go	non-target	T	89,Middle Finger	71,Index Finger	800.0	1000.0	1950.0	1750.0	1.0	n/a	1000.0	1.0	go_stim
147180.33395530726	1364.6660446927915	n/a	902	71	2750	1364.66604469	stim	stop-signal	646	1773990	0.0-25.32-1.32	beast_fmri_test	359	1771576,/,1772255,/,1772934,/,1773614,/,1774294,/,1774974,/	t,t,t,t,t,t	<img class = center src='/static/experiments/beast_fmri_test/images/T.png'></img>	89,71	2750.0	test	<img class = center src='/static/experiments/beast_fmri_test/images/redT.png'></img>	go	1750.0	2.0	32.0	go	non-target	T	89,Middle Finger	71,Index Finger	800.0	1000.0	1950.0	1750.0	1.0	n/a	1000.0	1.0	ITI
150475	500	n/a	-1	-1	500	0.0	fixation	poldrack-single-stim	647	1775920	0.0-25.33-0.33	beast_fmri_test	359	1775653,/	t	<div class = centerbox2><div class = fixation>+</div></div>	none	500.0	test	n/a	n/a	n/a	n/a	n/a	n/a	n/a	n/a	n/a	n/a	n/a	n/a	n/a	n/a	n/a	n/a	n/a	n/a	fixation
147208.56701699691	2750	n/a	1289	89	2750	3268.432983	stim	stop-signal	648	1778672	0.0-25.33-1.33	beast_fmri_test	359	1776334,/,1777014,/,1777693,/,1778372,/,1779051,/,1779732,/,1780411,/,1781091,/,1781771,/	t,t,t,t,t,t,t,t,t	<img class = center src='/static/experiments/beast_fmri_test/images/B.png'></img>	89,71	2750.0	test	<img class = center src='/static/experiments/beast_fmri_test/images/redB.png'></img>	go	1950.0	2.0	33.0	go	target	B	89,Middle Finger	71,Index Finger	800.0	1000.0	1950.0	1750.0	1.0	n/a	800.0	1.0	go_stim
149958.56701699691	3268.4329830031684	n/a	1289	89	2750	3268.432983	stim	stop-signal	648	1778672	0.0-25.33-1.33	beast_fmri_test	359	1776334,/,1777014,/,1777693,/,1778372,/,1779051,/,1779732,/,1780411,/,1781091,/,1781771,/	t,t,t,t,t,t,t,t,t	<img class = center src='/static/experiments/beast_fmri_test/images/B.png'></img>	89,71	2750.0	test	<img class = center src='/static/experiments/beast_fmri_test/images/redB.png'></img>	go	1950.0	2.0	33.0	go	target	B	89,Middle Finger	71,Index Finger	800.0	1000.0	1950.0	1750.0	1.0	n/a	800.0	1.0	ITI
157058	500	n/a	-1	-1	500	0.0	fixation	poldrack-single-stim	649	1782503	0.0-25.34-0.34	beast_fmri_test	359	1782451,/	t	<div class = centerbox2><div class = fixation>+</div></div>	none	500.0	test	n/a	n/a	n/a	n/a	n/a	n/a	n/a	n/a	n/a	n/a	n/a	n/a	n/a	n/a	n/a	n/a	n/a	n/a	fixation
156016.85764398356	1000.0	n/a	953	71	2750	1042.14235602	stim	stop-signal	650	1785254	0.0-25.34-1.34	beast_fmri_test	359	1783129,/,1783809,/,1784489,/,1785169,/,1785848,/	t,t,t,t,t	<img class = center src='/static/experiments/beast_fmri_test/images/V.png'></img>	89,71	2750.0	test	<img class = center src='/static/experiments/beast_fmri_test/images/redV.png'></img>	stop	1750.0	2.0	34.0	stop	non-target	V	89,Middle Finger	71,Index Finger	800.0	1000.0	1950.0	1750.0	0.0	0.0	1000.0	n/a	go_stim
157766.85764398356	1750.0	n/a	953	71	2750	1042.14235602	stim	stop-signal	650	1785254	0.0-25.34-1.34	beast_fmri_test	359	1783129,/,1783809,/,1784489,/,1785169,/,1785848,/	t,t,t,t,t	<img class = center src='/static/experiments/beast_fmri_test/images/V.png'></img>	89,71	2750.0	test	<img class = center src='/static/experiments/beast_fmri_test/images/redV.png'></img>	stop	1750.0	2.0	34.0	stop	non-target	V	89,Middle Finger	71,Index Finger	800.0	1000.0	1950.0	1750.0	0.0	0.0	1000.0	n/a	stop_stim
158766.85764398356	1042.1423560163801	n/a	953	71	2750	1042.14235602	stim	stop-signal	650	1785254	0.0-25.34-1.34	beast_fmri_test	359	1783129,/,1783809,/,1784489,/,1785169,/,1785848,/	t,t,t,t,t	<img class = center src='/static/experiments/beast_fmri_test/images/V.png'></img>	89,71	2750.0	test	<img class = center src='/static/experiments/beast_fmri_test/images/redV.png'></img>	stop	1750.0	2.0	34.0	stop	non-target	V	89,Middle Finger	71,Index Finger	800.0	1000.0	1950.0	1750.0	0.0	0.0	1000.0	n/a	ITI
161422	500	n/a	-1	-1	500	0.0	fixation	poldrack-single-stim	651	1786867	0.0-25.35-0.35	beast_fmri_test	359	1786529,/	t	<div class = centerbox2><div class = fixation>+</div></div>	none	500.0	test	n/a	n/a	n/a	n/a	n/a	n/a	n/a	n/a	n/a	n/a	n/a	n/a	n/a	n/a	n/a	n/a	n/a	n/a	fixation
160349.64511546213	2750	n/a	2015	89	2750	1074.35488454	stim	stop-signal	652	1789619	0.0-25.35-1.35	beast_fmri_test	359	1787208,/,1787888,/,1788566,/,1789247,/,1789927,/,1790605,/	t,t,t,t,t,t	<img class = center src='/static/experiments/beast_fmri_test/images/T.png'></img>	89,71	2750.0	test	<img class = center src='/static/experiments/beast_fmri_test/images/redT.png'></img>	go	1800.0	2.0	35.0	go	non-target	T	89,Middle Finger	71,Index Finger	800.0	950.0	1950.0	1800.0	0.0	n/a	950.0	0.0	go_stim
163099.64511546213	1074.3548845377725	n/a	2015	89	2750	1074.35488454	stim	stop-signal	652	1789619	0.0-25.35-1.35	beast_fmri_test	359	1787208,/,1787888,/,1788566,/,1789247,/,1789927,/,1790605,/	t,t,t,t,t,t	<img class = center src='/static/experiments/beast_fmri_test/images/T.png'></img>	89,71	2750.0	test	<img class = center src='/static/experiments/beast_fmri_test/images/redT.png'></img>	go	1800.0	2.0	35.0	go	non-target	T	89,Middle Finger	71,Index Finger	800.0	950.0	1950.0	1800.0	0.0	n/a	950.0	0.0	ITI
165811	500	n/a	-1	-1	500	0.0	fixation	poldrack-single-stim	653	1791256	0.0-25.36-0.36	beast_fmri_test	359	n/a	n/a	<div class = centerbox2><div class = fixation>+</div></div>	none	500.0	test	n/a	n/a	n/a	n/a	n/a	n/a	n/a	n/a	n/a	n/a	n/a	n/a	n/a	n/a	n/a	n/a	n/a	n/a	fixation
164399.56058001728	2750	n/a	1886	71	2750	1412.43941998	stim	stop-signal	654	1794007	0.0-25.36-1.36	beast_fmri_test	359	1791286,/,1791966,/,1792645,/,1793326,/,1794006,/,1794684,/,1795364,/	t,t,t,t,t,t,t	<img class = center src='/static/experiments/beast_fmri_test/images/P.png'></img>	89,71	2750.0	test	<img class = center src='/static/experiments/beast_fmri_test/images/redP.png'></img>	go	1800.0	2.0	36.0	go	non-target	P	89,Middle Finger	71,Index Finger	800.0	950.0	1950.0	1800.0	1.0	n/a	950.0	1.0	go_stim
167149.56058001728	1412.4394199827004	n/a	1886	71	2750	1412.43941998	stim	stop-signal	654	1794007	0.0-25.36-1.36	beast_fmri_test	359	1791286,/,1791966,/,1792645,/,1793326,/,1794006,/,1794684,/,1795364,/	t,t,t,t,t,t,t	<img class = center src='/static/experiments/beast_fmri_test/images/P.png'></img>	89,71	2750.0	test	<img class = center src='/static/experiments/beast_fmri_test/images/redP.png'></img>	go	1800.0	2.0	36.0	go	non-target	P	89,Middle Finger	71,Index Finger	800.0	950.0	1950.0	1800.0	1.0	n/a	950.0	1.0	ITI
170536	500	n/a	-1	-1	500	0.0	fixation	poldrack-single-stim	655	1795981	0.0-25.37-0.37	beast_fmri_test	359	n/a	n/a	<div class = centerbox2><div class = fixation>+</div></div>	none	500.0	test	n/a	n/a	n/a	n/a	n/a	n/a	n/a	n/a	n/a	n/a	n/a	n/a	n/a	n/a	n/a	n/a	n/a	n/a	fixation
169086.85728508979	2750	n/a	1081	89	2750	1450.14271491	stim	stop-signal	656	1798732	0.0-25.37-1.37	beast_fmri_test	359	1796045,/,1796726,/,1797405,/,1798084,/,1798762,/,1799444,/,1800123,/	t,t,t,t,t,t,t	<img class = center src='/static/experiments/beast_fmri_test/images/T.png'></img>	89,71	2750.0	test	<img class = center src='/static/experiments/beast_fmri_test/images/redT.png'></img>	go	1950.0	2.0	37.0	go	target	T	89,Middle Finger	71,Index Finger	800.0	950.0	1950.0	1800.0	1.0	n/a	800.0	1.0	go_stim
171836.85728508979	1450.1427149102592	n/a	1081	89	2750	1450.14271491	stim	stop-signal	656	1798732	0.0-25.37-1.37	beast_fmri_test	359	1796045,/,1796726,/,1797405,/,1798084,/,1798762,/,1799444,/,1800123,/	t,t,t,t,t,t,t	<img class = center src='/static/experiments/beast_fmri_test/images/T.png'></img>	89,71	2750.0	test	<img class = center src='/static/experiments/beast_fmri_test/images/redT.png'></img>	go	1950.0	2.0	37.0	go	target	T	89,Middle Finger	71,Index Finger	800.0	950.0	1950.0	1800.0	1.0	n/a	800.0	1.0	ITI
175311	500	n/a	-1	-1	500	0.0	fixation	poldrack-single-stim	657	1800756	0.0-25.38-0.38	beast_fmri_test	359	n/a	n/a	<div class = centerbox2><div class = fixation>+</div></div>	none	500.0	test	n/a	n/a	n/a	n/a	n/a	n/a	n/a	n/a	n/a	n/a	n/a	n/a	n/a	n/a	n/a	n/a	n/a	n/a	fixation
174503.4292203295	2750	n/a	1172	71	2750	809.57077967	stim	stop-signal	658	1803508	0.0-25.38-1.38	beast_fmri_test	359	1800803,/,1801482,/,1802161,/,1802842,/,1803520,/,1804202,/	t,t,t,t,t,t	<img class = center src='/static/experiments/beast_fmri_test/images/D.png'></img>	89,71	2750.0	test	<img class = center src='/static/experiments/beast_fmri_test/images/redD.png'></img>	go	1800.0	2.0	38.0	go	non-target	D	89,Middle Finger	71,Index Finger	800.0	950.0	1950.0	1800.0	1.0	n/a	950.0	1.0	go_stim
177253.4292203295	809.57077967039368	n/a	1172	71	2750	809.57077967	stim	stop-signal	658	1803508	0.0-25.38-1.38	beast_fmri_test	359	1800803,/,1801482,/,1802161,/,1802842,/,1803520,/,1804202,/	t,t,t,t,t,t	<img class = center src='/static/experiments/beast_fmri_test/images/D.png'></img>	89,71	2750.0	test	<img class = center src='/static/experiments/beast_fmri_test/images/redD.png'></img>	go	1800.0	2.0	38.0	go	non-target	D	89,Middle Finger	71,Index Finger	800.0	950.0	1950.0	1800.0	1.0	n/a	950.0	1.0	ITI
179437	500	n/a	-1	-1	500	0.0	fixation	poldrack-single-stim	659	1804882	0.0-25.39-0.39	beast_fmri_test	359	1804880,/	t	<div class = centerbox2><div class = fixation>+</div></div>	none	500.0	test	n/a	n/a	n/a	n/a	n/a	n/a	n/a	n/a	n/a	n/a	n/a	n/a	n/a	n/a	n/a	n/a	n/a	n/a	fixation
178630.7364596799	2750	n/a	1334	71	2750	807.26354032	stim	stop-signal	660	1807633	0.0-25.39-1.39	beast_fmri_test	359	1805562,/,1806239,/,1806920,/,1807598,/,1808279,/	t,t,t,t,t	<img class = center src='/static/experiments/beast_fmri_test/images/V.png'></img>	89,71	2750.0	test	<img class = center src='/static/experiments/beast_fmri_test/images/redV.png'></img>	go	1800.0	2.0	39.0	go	non-target	V	89,Middle Finger	71,Index Finger	800.0	950.0	1950.0	1800.0	1.0	n/a	950.0	1.0	go_stim
181380.7364596799	807.26354032000381	n/a	1334	71	2750	807.26354032	stim	stop-signal	660	1807633	0.0-25.39-1.39	beast_fmri_test	359	1805562,/,1806239,/,1806920,/,1807598,/,1808279,/	t,t,t,t,t	<img class = center src='/static/experiments/beast_fmri_test/images/V.png'></img>	89,71	2750.0	test	<img class = center src='/static/experiments/beast_fmri_test/images/redV.png'></img>	go	1800.0	2.0	39.0	go	non-target	V	89,Middle Finger	71,Index Finger	800.0	950.0	1950.0	1800.0	1.0	n/a	950.0	1.0	ITI
183556	500	n/a	-1	-1	500	0.0	fixation	poldrack-single-stim	661	1809001	0.0-25.40-0.40	beast_fmri_test	359	1808959,/	t	<div class = centerbox2><div class = fixation>+</div></div>	none	500.0	test	n/a	n/a	n/a	n/a	n/a	n/a	n/a	n/a	n/a	n/a	n/a	n/a	n/a	n/a	n/a	n/a	n/a	n/a	fixation
182835.99367621215	950.0	n/a	1272	71	2750	723.006323788	stim	stop-signal	662	1811754	0.0-25.40-1.40	beast_fmri_test	359	1809638,/,1810319,/,1810997,/,1811676,/,1812357,/	t,t,t,t,t	<img class = center src='/static/experiments/beast_fmri_test/images/B.png'></img>	89,71	2750.0	test	<img class = center src='/static/experiments/beast_fmri_test/images/redB.png'></img>	stop	1800.0	2.0	40.0	stop	non-target	B	89,Middle Finger	71,Index Finger	800.0	950.0	1950.0	1800.0	0.0	0.0	950.0	n/a	go_stim
184635.99367621215	1800.0	n/a	1272	71	2750	723.006323788	stim	stop-signal	662	1811754	0.0-25.40-1.40	beast_fmri_test	359	1809638,/,1810319,/,1810997,/,1811676,/,1812357,/	t,t,t,t,t	<img class = center src='/static/experiments/beast_fmri_test/images/B.png'></img>	89,71	2750.0	test	<img class = center src='/static/experiments/beast_fmri_test/images/redB.png'></img>	stop	1800.0	2.0	40.0	stop	non-target	B	89,Middle Finger	71,Index Finger	800.0	950.0	1950.0	1800.0	0.0	0.0	950.0	n/a	stop_stim
185585.99367621215	723.00632378777482	n/a	1272	71	2750	723.006323788	stim	stop-signal	662	1811754	0.0-25.40-1.40	beast_fmri_test	359	1809638,/,1810319,/,1810997,/,1811676,/,1812357,/	t,t,t,t,t	<img class = center src='/static/experiments/beast_fmri_test/images/B.png'></img>	89,71	2750.0	test	<img class = center src='/static/experiments/beast_fmri_test/images/redB.png'></img>	stop	1800.0	2.0	40.0	stop	non-target	B	89,Middle Finger	71,Index Finger	800.0	950.0	1950.0	1800.0	0.0	0.0	950.0	n/a	ITI
187599	500	n/a	-1	-1	500	0.0	fixation	poldrack-single-stim	663	1813044	0.0-25.41-0.41	beast_fmri_test	359	1813036,/	t	<div class = centerbox2><div class = fixation>+</div></div>	none	500.0	test	n/a	n/a	n/a	n/a	n/a	n/a	n/a	n/a	n/a	n/a	n/a	n/a	n/a	n/a	n/a	n/a	n/a	n/a	fixation
182986.04319510167	2750	n/a	1149	71	2750	4614.9568049	stim	stop-signal	664	1815796	0.0-25.41-1.41	beast_fmri_test	359	1813715,/,1814397,/,1815076,/,1815755,/,1816435,/,1817114,/,1817794,/,1818474,/,1819154,/,1819834,/	t,t,t,t,t,t,t,t,t,t	<img class = center src='/static/experiments/beast_fmri_test/images/T.png'></img>	89,71	2750.0	test	<img class = center src='/static/experiments/beast_fmri_test/images/redT.png'></img>	go	1850.0	2.0	41.0	go	non-target	T	89,Middle Finger	71,Index Finger	800.0	900.0	1950.0	1850.0	1.0	n/a	900.0	1.0	go_stim
185736.04319510167	4614.9568048983274	n/a	1149	71	2750	4614.9568049	stim	stop-signal	664	1815796	0.0-25.41-1.41	beast_fmri_test	359	1813715,/,1814397,/,1815076,/,1815755,/,1816435,/,1817114,/,1817794,/,1818474,/,1819154,/,1819834,/	t,t,t,t,t,t,t,t,t,t	<img class = center src='/static/experiments/beast_fmri_test/images/T.png'></img>	89,71	2750.0	test	<img class = center src='/static/experiments/beast_fmri_test/images/redT.png'></img>	go	1850.0	2.0	41.0	go	non-target	T	89,Middle Finger	71,Index Finger	800.0	900.0	1950.0	1850.0	1.0	n/a	900.0	1.0	ITI
195525	500	n/a	-1	-1	500	0.0	fixation	poldrack-single-stim	665	1820970	0.0-25.42-0.42	beast_fmri_test	359	1820513,/	t	<div class = centerbox2><div class = fixation>+</div></div>	none	500.0	test	n/a	n/a	n/a	n/a	n/a	n/a	n/a	n/a	n/a	n/a	n/a	n/a	n/a	n/a	n/a	n/a	n/a	n/a	fixation
194242.31822435581	2750	n/a	1359	71	2750	1283.68177564	stim	stop-signal	666	1823721	0.0-25.42-1.42	beast_fmri_test	359	1821192,/,1821873,/,1822553,/,1823232,/,1823911,/,1824592,/	t,t,t,t,t,t	<img class = center src='/static/experiments/beast_fmri_test/images/B.png'></img>	89,71	2750.0	test	<img class = center src='/static/experiments/beast_fmri_test/images/redB.png'></img>	go	1950.0	2.0	42.0	go	target	B	89,Middle Finger	71,Index Finger	800.0	900.0	1950.0	1850.0	0.0	n/a	800.0	0.0	go_stim
196992.31822435581	1283.6817756442415	n/a	1359	71	2750	1283.68177564	stim	stop-signal	666	1823721	0.0-25.42-1.42	beast_fmri_test	359	1821192,/,1821873,/,1822553,/,1823232,/,1823911,/,1824592,/	t,t,t,t,t,t	<img class = center src='/static/experiments/beast_fmri_test/images/B.png'></img>	89,71	2750.0	test	<img class = center src='/static/experiments/beast_fmri_test/images/redB.png'></img>	go	1950.0	2.0	42.0	go	target	B	89,Middle Finger	71,Index Finger	800.0	900.0	1950.0	1850.0	0.0	n/a	800.0	0.0	ITI
200126	500	n/a	-1	-1	500	0.0	fixation	poldrack-single-stim	667	1825571	0.0-25.43-0.43	beast_fmri_test	359	1825271,/	t	<div class = centerbox2><div class = fixation>+</div></div>	none	500.0	test	n/a	n/a	n/a	n/a	n/a	n/a	n/a	n/a	n/a	n/a	n/a	n/a	n/a	n/a	n/a	n/a	n/a	n/a	fixation
199226.66492641461	2750	n/a	1120	71	2750	899.335073585	stim	stop-signal	668	1828321	0.0-25.43-1.43	beast_fmri_test	359	1825950,/,1826630,/,1827309,/,1827989,/,1828671,/	t,t,t,t,t	<img class = center src='/static/experiments/beast_fmri_test/images/P.png'></img>	89,71	2750.0	test	<img class = center src='/static/experiments/beast_fmri_test/images/redP.png'></img>	go	1850.0	2.0	43.0	go	non-target	P	89,Middle Finger	71,Index Finger	800.0	900.0	1950.0	1850.0	1.0	n/a	900.0	1.0	go_stim
201976.66492641461	899.33507358536531	n/a	1120	71	2750	899.335073585	stim	stop-signal	668	1828321	0.0-25.43-1.43	beast_fmri_test	359	1825950,/,1826630,/,1827309,/,1827989,/,1828671,/	t,t,t,t,t	<img class = center src='/static/experiments/beast_fmri_test/images/P.png'></img>	89,71	2750.0	test	<img class = center src='/static/experiments/beast_fmri_test/images/redP.png'></img>	go	1850.0	2.0	43.0	go	non-target	P	89,Middle Finger	71,Index Finger	800.0	900.0	1950.0	1850.0	1.0	n/a	900.0	1.0	ITI
204344	500	n/a	-1	-1	500	0.0	fixation	poldrack-single-stim	669	1829789	0.0-25.44-0.44	beast_fmri_test	359	1829349,/	t	<div class = centerbox2><div class = fixation>+</div></div>	none	500.0	test	n/a	n/a	n/a	n/a	n/a	n/a	n/a	n/a	n/a	n/a	n/a	n/a	n/a	n/a	n/a	n/a	n/a	n/a	fixation
203027.85630953289	2750	n/a	937	89	2750	1317.14369047	stim	stop-signal	670	1832540	0.0-25.44-1.44	beast_fmri_test	359	1830028,/,1830708,/,1831388,/,1832067,/,1832749,/,1833427,/	t,t,t,t,t,t	<img class = center src='/static/experiments/beast_fmri_test/images/B.png'></img>	89,71	2750.0	test	<img class = center src='/static/experiments/beast_fmri_test/images/redB.png'></img>	go	1950.0	2.0	44.0	go	target	B	89,Middle Finger	71,Index Finger	800.0	900.0	1950.0	1850.0	1.0	n/a	800.0	1.0	go_stim
205777.85630953289	1317.1436904670247	n/a	937	89	2750	1317.14369047	stim	stop-signal	670	1832540	0.0-25.44-1.44	beast_fmri_test	359	1830028,/,1830708,/,1831388,/,1832067,/,1832749,/,1833427,/	t,t,t,t,t,t	<img class = center src='/static/experiments/beast_fmri_test/images/B.png'></img>	89,71	2750.0	test	<img class = center src='/static/experiments/beast_fmri_test/images/redB.png'></img>	go	1950.0	2.0	44.0	go	target	B	89,Middle Finger	71,Index Finger	800.0	900.0	1950.0	1850.0	1.0	n/a	800.0	1.0	ITI
208982	500	n/a	-1	-1	500	0.0	fixation	poldrack-single-stim	671	1834427	0.0-25.45-0.45	beast_fmri_test	359	1834107,/	t	<div class = centerbox2><div class = fixation>+</div></div>	none	500.0	test	n/a	n/a	n/a	n/a	n/a	n/a	n/a	n/a	n/a	n/a	n/a	n/a	n/a	n/a	n/a	n/a	n/a	n/a	fixation
208881.11927878554	2750	n/a	1194	71	2750	101.880721215	stim	stop-signal	672	1837178	0.0-25.45-1.45	beast_fmri_test	359	1834787,/,1835466,/,1836145,/,1836825,/	t,t,t,t	<img class = center src='/static/experiments/beast_fmri_test/images/V.png'></img>	89,71	2750.0	test	<img class = center src='/static/experiments/beast_fmri_test/images/redV.png'></img>	go	1850.0	2.0	45.0	go	non-target	V	89,Middle Finger	71,Index Finger	800.0	900.0	1950.0	1850.0	1.0	n/a	900.0	1.0	go_stim
211631.11927878554	101.88072121453888	n/a	1194	71	2750	101.880721215	stim	stop-signal	672	1837178	0.0-25.45-1.45	beast_fmri_test	359	1834787,/,1835466,/,1836145,/,1836825,/	t,t,t,t	<img class = center src='/static/experiments/beast_fmri_test/images/V.png'></img>	89,71	2750.0	test	<img class = center src='/static/experiments/beast_fmri_test/images/redV.png'></img>	go	1850.0	2.0	45.0	go	non-target	V	89,Middle Finger	71,Index Finger	800.0	900.0	1950.0	1850.0	1.0	n/a	900.0	1.0	ITI
212408	500	n/a	-1	-1	500	0.0	fixation	poldrack-single-stim	673	1837853	0.0-25.46-0.46	beast_fmri_test	359	1837506,/	t	<div class = centerbox2><div class = fixation>+</div></div>	none	500.0	test	n/a	n/a	n/a	n/a	n/a	n/a	n/a	n/a	n/a	n/a	n/a	n/a	n/a	n/a	n/a	n/a	n/a	n/a	fixation
211982.34194240882	800.0	n/a	-1	-1	2750	426.658057591	stim	stop-signal	674	1840604	0.0-25.46-1.46	beast_fmri_test	359	1838185,/,1838865,/,1839545,/,1840223,/,1840903,/	t,t,t,t,t	<img class = center src='/static/experiments/beast_fmri_test/images/B.png'></img>	89,71	2750.0	test	<img class = center src='/static/experiments/beast_fmri_test/images/redB.png'></img>	stop	1950.0	2.0	46.0	stop	target	B	89,Middle Finger	71,Index Finger	800.0	900.0	1950.0	1850.0	0.0	1.0	800.0	n/a	go_stim
213932.34194240882	1950.0	n/a	-1	-1	2750	426.658057591	stim	stop-signal	674	1840604	0.0-25.46-1.46	beast_fmri_test	359	1838185,/,1838865,/,1839545,/,1840223,/,1840903,/	t,t,t,t,t	<img class = center src='/static/experiments/beast_fmri_test/images/B.png'></img>	89,71	2750.0	test	<img class = center src='/static/experiments/beast_fmri_test/images/redB.png'></img>	stop	1950.0	2.0	46.0	stop	target	B	89,Middle Finger	71,Index Finger	800.0	900.0	1950.0	1850.0	0.0	1.0	800.0	n/a	stop_stim
214732.34194240882	426.65805759126471	n/a	-1	-1	2750	426.658057591	stim	stop-signal	674	1840604	0.0-25.46-1.46	beast_fmri_test	359	1838185,/,1838865,/,1839545,/,1840223,/,1840903,/	t,t,t,t,t	<img class = center src='/static/experiments/beast_fmri_test/images/B.png'></img>	89,71	2750.0	test	<img class = center src='/static/experiments/beast_fmri_test/images/redB.png'></img>	stop	1950.0	2.0	46.0	stop	target	B	89,Middle Finger	71,Index Finger	800.0	900.0	1950.0	1850.0	0.0	1.0	800.0	n/a	ITI
230650	15000	n/a	-1	-1	15000	0.0	practice-no-stop-feedback	poldrack-single-stim	675	1856095	0.0-26.0	beast_fmri_test	359	1841583,/,1842263,/,1842943,/,1843623,/,1844302,/,1844981,/,1845660,/,1846340,/,1847025,/,1847702,/,1848380,/,1849060,/,1849740,/,1850421,/,1851098,/,1851780,/,1852459,/,1853139,/,1853818,/,1854498,/,1855177,/,1855857,/	t,t,t,t,t,t,t,t,t,t,t,t,t,t,t,t,t,t,t,t,t,t	"<div class = ""centerbox""><p class = ""block-text"">Your delay is 2 trials.</p><p class = block-text>Please wait for the scanner to start the block</p></div>"	77	15000.0	n/a	n/a	n/a	n/a	n/a	n/a	n/a	n/a	n/a	n/a	n/a	n/a	n/a	n/a	n/a	n/a	n/a	n/a	n/a	practice-no-stop-feedback
231153	500	n/a	-1	-1	500	0.0	fixation	poldrack-single-stim	676	1856598	0.0-27.0-0.0	beast_fmri_test	359	1856537,/	t	<div class = centerbox2><div class = fixation>+</div></div>	none	500.0	test	n/a	n/a	n/a	n/a	n/a	n/a	n/a	n/a	n/a	n/a	n/a	n/a	n/a	n/a	n/a	n/a	n/a	n/a	fixation
229889.54495072062	temp_go_duration	n/a	1049	71	2750	1266.45504928	stim	stop-signal	677	1859351	0.0-27.0-1.0	beast_fmri_test	359	1857217,/,1857897,/,1858575,/,1859255,/,1859936,/,1860615,/	t,t,t,t,t,t	<img class = center src='/static/experiments/beast_fmri_test/images/P.png'></img>	89,71	2750.0	test	<img class = center src='/static/experiments/beast_fmri_test/images/redP.png'></img>	stop	-1.0	2.0	0.0	stop	temp-non-target	P	89,Middle Finger	71,Index Finger	850.0	900.0	1950.0	1850.0	0.0	0.0	n/a	n/a	go_stim
temp-non-target	temp_stop_duration	n/a	1049	71	2750	1266.45504928	stim	stop-signal	677	1859351	0.0-27.0-1.0	beast_fmri_test	359	1857217,/,1857897,/,1858575,/,1859255,/,1859936,/,1860615,/	t,t,t,t,t,t	<img class = center src='/static/experiments/beast_fmri_test/images/P.png'></img>	89,71	2750.0	test	<img class = center src='/static/experiments/beast_fmri_test/images/redP.png'></img>	stop	-1.0	2.0	0.0	stop	temp-non-target	P	89,Middle Finger	71,Index Finger	850.0	900.0	1950.0	1850.0	0.0	0.0	n/a	n/a	stop_stim
232639.54495072062	1266.4550492794799	n/a	1049	71	2750	1266.45504928	stim	stop-signal	677	1859351	0.0-27.0-1.0	beast_fmri_test	359	1857217,/,1857897,/,1858575,/,1859255,/,1859936,/,1860615,/	t,t,t,t,t,t	<img class = center src='/static/experiments/beast_fmri_test/images/P.png'></img>	89,71	2750.0	test	<img class = center src='/static/experiments/beast_fmri_test/images/redP.png'></img>	stop	-1.0	2.0	0.0	stop	temp-non-target	P	89,Middle Finger	71,Index Finger	850.0	900.0	1950.0	1850.0	0.0	0.0	n/a	n/a	ITI
235747	500	n/a	-1	-1	500	0.0	fixation	poldrack-single-stim	678	1861192	0.0-27.1-0.1	beast_fmri_test	359	n/a	n/a	<div class = centerbox2><div class = fixation>+</div></div>	none	500.0	test	n/a	n/a	n/a	n/a	n/a	n/a	n/a	n/a	n/a	n/a	n/a	n/a	n/a	n/a	n/a	n/a	n/a	n/a	fixation
234961.36732134828	2750	n/a	717	71	2750	786.632678652	stim	stop-signal	679	1863943	0.0-27.1-1.1	beast_fmri_test	359	1861295,/,1861974,/,1862653,/,1863333,/,1864012,/,1864692,/	t,t,t,t,t,t	<img class = center src='/static/experiments/beast_fmri_test/images/V.png'></img>	89,71	2750.0	test	<img class = center src='/static/experiments/beast_fmri_test/images/redV.png'></img>	go	-1.0	2.0	1.0	go	temp-non-target	V	89,Middle Finger	71,Index Finger	850.0	900.0	1950.0	1850.0	0.0	n/a	n/a	n/a	go_stim
237711.36732134828	786.63267865169848	n/a	717	71	2750	786.632678652	stim	stop-signal	679	1863943	0.0-27.1-1.1	beast_fmri_test	359	1861295,/,1861974,/,1862653,/,1863333,/,1864012,/,1864692,/	t,t,t,t,t,t	<img class = center src='/static/experiments/beast_fmri_test/images/V.png'></img>	89,71	2750.0	test	<img class = center src='/static/experiments/beast_fmri_test/images/redV.png'></img>	go	-1.0	2.0	1.0	go	temp-non-target	V	89,Middle Finger	71,Index Finger	850.0	900.0	1950.0	1850.0	0.0	n/a	n/a	n/a	ITI
239858	500	n/a	-1	-1	500	0.0	fixation	poldrack-single-stim	680	1865303	0.0-27.2-0.2	beast_fmri_test	359	n/a	n/a	<div class = centerbox2><div class = fixation>+</div></div>	none	500.0	test	n/a	n/a	n/a	n/a	n/a	n/a	n/a	n/a	n/a	n/a	n/a	n/a	n/a	n/a	n/a	n/a	n/a	n/a	fixation
239839.32129945746	900.0	n/a	-1	-1	2750	20.6787005425	stim	stop-signal	681	1868055	0.0-27.2-1.2	beast_fmri_test	359	1865371,/,1866052,/,1866732,/,1867412,/	t,t,t,t	<img class = center src='/static/experiments/beast_fmri_test/images/V.png'></img>	89,71	2750.0	test	<img class = center src='/static/experiments/beast_fmri_test/images/redV.png'></img>	stop	1850.0	2.0	2.0	stop	non-target	V	89,Middle Finger	71,Index Finger	850.0	900.0	1950.0	1850.0	0.0	1.0	900.0	n/a	go_stim
241689.32129945746	1850.0	n/a	-1	-1	2750	20.6787005425	stim	stop-signal	681	1868055	0.0-27.2-1.2	beast_fmri_test	359	1865371,/,1866052,/,1866732,/,1867412,/	t,t,t,t	<img class = center src='/static/experiments/beast_fmri_test/images/V.png'></img>	89,71	2750.0	test	<img class = center src='/static/experiments/beast_fmri_test/images/redV.png'></img>	stop	1850.0	2.0	2.0	stop	non-target	V	89,Middle Finger	71,Index Finger	850.0	900.0	1950.0	1850.0	0.0	1.0	900.0	n/a	stop_stim
242589.32129945746	20.678700542487977	n/a	-1	-1	2750	20.6787005425	stim	stop-signal	681	1868055	0.0-27.2-1.2	beast_fmri_test	359	1865371,/,1866052,/,1866732,/,1867412,/	t,t,t,t	<img class = center src='/static/experiments/beast_fmri_test/images/V.png'></img>	89,71	2750.0	test	<img class = center src='/static/experiments/beast_fmri_test/images/redV.png'></img>	stop	1850.0	2.0	2.0	stop	non-target	V	89,Middle Finger	71,Index Finger	850.0	900.0	1950.0	1850.0	0.0	1.0	900.0	n/a	ITI
243201	500	n/a	-1	-1	500	0.0	fixation	poldrack-single-stim	682	1868646	0.0-27.3-0.3	beast_fmri_test	359	1868147,/	t	<div class = centerbox2><div class = fixation>+</div></div>	none	500.0	test	n/a	n/a	n/a	n/a	n/a	n/a	n/a	n/a	n/a	n/a	n/a	n/a	n/a	n/a	n/a	n/a	n/a	n/a	fixation
243135.75125592179	950.0	n/a	1021	71	2750	65.2487440783	stim	stop-signal	683	1871396	0.0-27.3-1.3	beast_fmri_test	359	1868770,/,1869451,/,1870129,/,1870810,/	t,t,t,t	<img class = center src='/static/experiments/beast_fmri_test/images/B.png'></img>	89,71	2750.0	test	<img class = center src='/static/experiments/beast_fmri_test/images/redB.png'></img>	stop	1800.0	2.0	3.0	stop	non-target	B	89,Middle Finger	71,Index Finger	850.0	950.0	1950.0	1800.0	0.0	0.0	950.0	n/a	go_stim
244935.75125592179	1800.0	n/a	1021	71	2750	65.2487440783	stim	stop-signal	683	1871396	0.0-27.3-1.3	beast_fmri_test	359	1868770,/,1869451,/,1870129,/,1870810,/	t,t,t,t	<img class = center src='/static/experiments/beast_fmri_test/images/B.png'></img>	89,71	2750.0	test	<img class = center src='/static/experiments/beast_fmri_test/images/redB.png'></img>	stop	1800.0	2.0	3.0	stop	non-target	B	89,Middle Finger	71,Index Finger	850.0	950.0	1950.0	1800.0	0.0	0.0	950.0	n/a	stop_stim
245885.75125592179	65.24874407832111	n/a	1021	71	2750	65.2487440783	stim	stop-signal	683	1871396	0.0-27.3-1.3	beast_fmri_test	359	1868770,/,1869451,/,1870129,/,1870810,/	t,t,t,t	<img class = center src='/static/experiments/beast_fmri_test/images/B.png'></img>	89,71	2750.0	test	<img class = center src='/static/experiments/beast_fmri_test/images/redB.png'></img>	stop	1800.0	2.0	3.0	stop	non-target	B	89,Middle Finger	71,Index Finger	850.0	950.0	1950.0	1800.0	0.0	0.0	950.0	n/a	ITI
246589	500	n/a	-1	-1	500	0.0	fixation	poldrack-single-stim	684	1872034	0.0-27.4-0.4	beast_fmri_test	359	1871532,/	t	<div class = centerbox2><div class = fixation>+</div></div>	none	500.0	test	n/a	n/a	n/a	n/a	n/a	n/a	n/a	n/a	n/a	n/a	n/a	n/a	n/a	n/a	n/a	n/a	n/a	n/a	fixation
246263.46928590629	2750	n/a	1305	71	2750	327.530714094	stim	stop-signal	685	1874786	0.0-27.4-1.4	beast_fmri_test	359	1872169,/,1872849,/,1873528,/,1874208,/,1874888,/	t,t,t,t,t	<img class = center src='/static/experiments/beast_fmri_test/images/P.png'></img>	89,71	2750.0	test	<img class = center src='/static/experiments/beast_fmri_test/images/redP.png'></img>	go	1850.0	2.0	4.0	go	non-target	P	89,Middle Finger	71,Index Finger	850.0	900.0	1950.0	1850.0	1.0	n/a	900.0	1.0	go_stim
249013.46928590629	327.53071409374422	n/a	1305	71	2750	327.530714094	stim	stop-signal	685	1874786	0.0-27.4-1.4	beast_fmri_test	359	1872169,/,1872849,/,1873528,/,1874208,/,1874888,/	t,t,t,t,t	<img class = center src='/static/experiments/beast_fmri_test/images/P.png'></img>	89,71	2750.0	test	<img class = center src='/static/experiments/beast_fmri_test/images/redP.png'></img>	go	1850.0	2.0	4.0	go	non-target	P	89,Middle Finger	71,Index Finger	850.0	900.0	1950.0	1850.0	1.0	n/a	900.0	1.0	ITI
250239	500	n/a	-1	-1	500	0.0	fixation	poldrack-single-stim	686	1875684	0.0-27.5-0.5	beast_fmri_test	359	1875569,/	t	<div class = centerbox2><div class = fixation>+</div></div>	none	500.0	test	n/a	n/a	n/a	n/a	n/a	n/a	n/a	n/a	n/a	n/a	n/a	n/a	n/a	n/a	n/a	n/a	n/a	n/a	fixation
247114.27302525984	2750	n/a	1114	71	2750	3124.72697474	stim	stop-signal	687	1878434	0.0-27.5-1.5	beast_fmri_test	359	1876248,/,1876927,/,1877607,/,1878286,/,1878966,/,1879646,/,1880326,/,1881006,/	t,t,t,t,t,t,t,t	<img class = center src='/static/experiments/beast_fmri_test/images/T.png'></img>	89,71	2750.0	test	<img class = center src='/static/experiments/beast_fmri_test/images/redT.png'></img>	go	1850.0	2.0	5.0	go	non-target	T	89,Middle Finger	71,Index Finger	850.0	900.0	1950.0	1850.0	1.0	n/a	900.0	1.0	go_stim
249864.27302525984	3124.7269747402229	n/a	1114	71	2750	3124.72697474	stim	stop-signal	687	1878434	0.0-27.5-1.5	beast_fmri_test	359	1876248,/,1876927,/,1877607,/,1878286,/,1878966,/,1879646,/,1880326,/,1881006,/	t,t,t,t,t,t,t,t	<img class = center src='/static/experiments/beast_fmri_test/images/T.png'></img>	89,71	2750.0	test	<img class = center src='/static/experiments/beast_fmri_test/images/redT.png'></img>	go	1850.0	2.0	5.0	go	non-target	T	89,Middle Finger	71,Index Finger	850.0	900.0	1950.0	1850.0	1.0	n/a	900.0	1.0	ITI
256686	500	n/a	-1	-1	500	0.0	fixation	poldrack-single-stim	688	1882131	0.0-27.6-0.6	beast_fmri_test	359	1881685,/	t	<div class = centerbox2><div class = fixation>+</div></div>	none	500.0	test	n/a	n/a	n/a	n/a	n/a	n/a	n/a	n/a	n/a	n/a	n/a	n/a	n/a	n/a	n/a	n/a	n/a	n/a	fixation
255649.39535301737	2750	n/a	903	89	2750	1036.60464698	stim	stop-signal	689	1884881	0.0-27.6-1.6	beast_fmri_test	359	1882365,/,1883043,/,1883725,/,1884405,/,1885084,/,1885764,/	t,t,t,t,t,t	<img class = center src='/static/experiments/beast_fmri_test/images/P.png'></img>	89,71	2750.0	test	<img class = center src='/static/experiments/beast_fmri_test/images/redP.png'></img>	go	1900.0	2.0	6.0	go	target	P	89,Middle Finger	71,Index Finger	850.0	900.0	1900.0	1850.0	1.0	n/a	850.0	1.0	go_stim
258399.39535301737	1036.6046469825562	n/a	903	89	2750	1036.60464698	stim	stop-signal	689	1884881	0.0-27.6-1.6	beast_fmri_test	359	1882365,/,1883043,/,1883725,/,1884405,/,1885084,/,1885764,/	t,t,t,t,t,t	<img class = center src='/static/experiments/beast_fmri_test/images/P.png'></img>	89,71	2750.0	test	<img class = center src='/static/experiments/beast_fmri_test/images/redP.png'></img>	go	1900.0	2.0	6.0	go	target	P	89,Middle Finger	71,Index Finger	850.0	900.0	1900.0	1850.0	1.0	n/a	850.0	1.0	ITI
261054	500	n/a	-1	-1	500	0.0	fixation	poldrack-single-stim	690	1886499	0.0-27.7-0.7	beast_fmri_test	359	1886443,/	t	<div class = centerbox2><div class = fixation>+</div></div>	none	500.0	test	n/a	n/a	n/a	n/a	n/a	n/a	n/a	n/a	n/a	n/a	n/a	n/a	n/a	n/a	n/a	n/a	n/a	n/a	fixation
260772.2367516614	2750	n/a	1426	71	2750	282.763248339	stim	stop-signal	691	1889250	0.0-27.7-1.7	beast_fmri_test	359	1887123,/,1887802,/,1888483,/,1889161,/	t,t,t,t	<img class = center src='/static/experiments/beast_fmri_test/images/P.png'></img>	89,71	2750.0	test	<img class = center src='/static/experiments/beast_fmri_test/images/redP.png'></img>	go	1850.0	2.0	7.0	go	non-target	P	89,Middle Finger	71,Index Finger	850.0	900.0	1900.0	1850.0	1.0	n/a	900.0	1.0	go_stim
263522.2367516614	282.76324833853317	n/a	1426	71	2750	282.763248339	stim	stop-signal	691	1889250	0.0-27.7-1.7	beast_fmri_test	359	1887123,/,1887802,/,1888483,/,1889161,/	t,t,t,t	<img class = center src='/static/experiments/beast_fmri_test/images/P.png'></img>	89,71	2750.0	test	<img class = center src='/static/experiments/beast_fmri_test/images/redP.png'></img>	go	1850.0	2.0	7.0	go	non-target	P	89,Middle Finger	71,Index Finger	850.0	900.0	1900.0	1850.0	1.0	n/a	900.0	1.0	ITI
264657	500	n/a	-1	-1	500	0.0	fixation	poldrack-single-stim	692	1890102	0.0-27.8-0.8	beast_fmri_test	359	1889842,/	t	<div class = centerbox2><div class = fixation>+</div></div>	none	500.0	test	n/a	n/a	n/a	n/a	n/a	n/a	n/a	n/a	n/a	n/a	n/a	n/a	n/a	n/a	n/a	n/a	n/a	n/a	fixation
263227.55662419624	900.0	n/a	-1	-1	2750	1432.4433758	stim	stop-signal	693	1892855	0.0-27.8-1.8	beast_fmri_test	359	1890521,/,1891200,/,1891880,/,1892560,/,1893240,/,1893919,/	t,t,t,t,t,t	<img class = center src='/static/experiments/beast_fmri_test/images/T.png'></img>	89,71	2750.0	test	<img class = center src='/static/experiments/beast_fmri_test/images/redT.png'></img>	stop	1850.0	2.0	8.0	stop	non-target	T	89,Middle Finger	71,Index Finger	850.0	900.0	1900.0	1850.0	0.0	1.0	900.0	n/a	go_stim
265077.55662419624	1850.0	n/a	-1	-1	2750	1432.4433758	stim	stop-signal	693	1892855	0.0-27.8-1.8	beast_fmri_test	359	1890521,/,1891200,/,1891880,/,1892560,/,1893240,/,1893919,/	t,t,t,t,t,t	<img class = center src='/static/experiments/beast_fmri_test/images/T.png'></img>	89,71	2750.0	test	<img class = center src='/static/experiments/beast_fmri_test/images/redT.png'></img>	stop	1850.0	2.0	8.0	stop	non-target	T	89,Middle Finger	71,Index Finger	850.0	900.0	1900.0	1850.0	0.0	1.0	900.0	n/a	stop_stim
265977.55662419624	1432.4433758037301	n/a	-1	-1	2750	1432.4433758	stim	stop-signal	693	1892855	0.0-27.8-1.8	beast_fmri_test	359	1890521,/,1891200,/,1891880,/,1892560,/,1893240,/,1893919,/	t,t,t,t,t,t	<img class = center src='/static/experiments/beast_fmri_test/images/T.png'></img>	89,71	2750.0	test	<img class = center src='/static/experiments/beast_fmri_test/images/redT.png'></img>	stop	1850.0	2.0	8.0	stop	non-target	T	89,Middle Finger	71,Index Finger	850.0	900.0	1900.0	1850.0	0.0	1.0	900.0	n/a	ITI
269432	500	n/a	-1	-1	500	0.0	fixation	poldrack-single-stim	694	1894877	0.0-27.9-0.9	beast_fmri_test	359	1894599,/	t	<div class = centerbox2><div class = fixation>+</div></div>	none	500.0	test	n/a	n/a	n/a	n/a	n/a	n/a	n/a	n/a	n/a	n/a	n/a	n/a	n/a	n/a	n/a	n/a	n/a	n/a	fixation
268864.15818734397	950.0	n/a	-1	-1	2750	569.841812656	stim	stop-signal	695	1897629	0.0-27.9-1.9	beast_fmri_test	359	1895278,/,1895958,/,1896637,/,1897318,/,1897996,/	t,t,t,t,t	<img class = center src='/static/experiments/beast_fmri_test/images/T.png'></img>	89,71	2750.0	test	<img class = center src='/static/experiments/beast_fmri_test/images/redT.png'></img>	stop	1800.0	2.0	9.0	stop	non-target	T	89,Middle Finger	71,Index Finger	850.0	950.0	1900.0	1800.0	0.0	1.0	950.0	n/a	go_stim
270664.15818734397	1800.0	n/a	-1	-1	2750	569.841812656	stim	stop-signal	695	1897629	0.0-27.9-1.9	beast_fmri_test	359	1895278,/,1895958,/,1896637,/,1897318,/,1897996,/	t,t,t,t,t	<img class = center src='/static/experiments/beast_fmri_test/images/T.png'></img>	89,71	2750.0	test	<img class = center src='/static/experiments/beast_fmri_test/images/redT.png'></img>	stop	1800.0	2.0	9.0	stop	non-target	T	89,Middle Finger	71,Index Finger	850.0	950.0	1900.0	1800.0	0.0	1.0	950.0	n/a	stop_stim
271614.15818734397	569.8418126559518	n/a	-1	-1	2750	569.841812656	stim	stop-signal	695	1897629	0.0-27.9-1.9	beast_fmri_test	359	1895278,/,1895958,/,1896637,/,1897318,/,1897996,/	t,t,t,t,t	<img class = center src='/static/experiments/beast_fmri_test/images/T.png'></img>	89,71	2750.0	test	<img class = center src='/static/experiments/beast_fmri_test/images/redT.png'></img>	stop	1800.0	2.0	9.0	stop	non-target	T	89,Middle Finger	71,Index Finger	850.0	950.0	1900.0	1800.0	0.0	1.0	950.0	n/a	ITI
273327	500	n/a	-1	-1	500	0.0	fixation	poldrack-single-stim	696	1898772	0.0-27.10-0.10	beast_fmri_test	359	1898677,/	t	<div class = centerbox2><div class = fixation>+</div></div>	none	500.0	test	n/a	n/a	n/a	n/a	n/a	n/a	n/a	n/a	n/a	n/a	n/a	n/a	n/a	n/a	n/a	n/a	n/a	n/a	fixation
270547.46015656297	2750	n/a	1323	89	2750	2780.53984344	stim	stop-signal	697	1901523	0.0-27.10-1.10	beast_fmri_test	359	1899356,/,1900037,/,1900716,/,1901395,/,1902074,/,1902756,/,1903435,/,1904114,/	t,t,t,t,t,t,t,t	<img class = center src='/static/experiments/beast_fmri_test/images/T.png'></img>	89,71	2750.0	test	<img class = center src='/static/experiments/beast_fmri_test/images/redT.png'></img>	go	1900.0	2.0	10.0	go	target	T	89,Middle Finger	71,Index Finger	850.0	1000.0	1900.0	1800.0	1.0	n/a	850.0	1.0	go_stim
273297.46015656297	2780.5398434369481	n/a	1323	89	2750	2780.53984344	stim	stop-signal	697	1901523	0.0-27.10-1.10	beast_fmri_test	359	1899356,/,1900037,/,1900716,/,1901395,/,1902074,/,1902756,/,1903435,/,1904114,/	t,t,t,t,t,t,t,t	<img class = center src='/static/experiments/beast_fmri_test/images/T.png'></img>	89,71	2750.0	test	<img class = center src='/static/experiments/beast_fmri_test/images/redT.png'></img>	go	1900.0	2.0	10.0	go	target	T	89,Middle Finger	71,Index Finger	850.0	1000.0	1900.0	1800.0	1.0	n/a	850.0	1.0	ITI
279440	500	n/a	-1	-1	500	0.0	fixation	poldrack-single-stim	698	1904885	0.0-27.11-0.11	beast_fmri_test	359	1904795,/	t	<div class = centerbox2><div class = fixation>+</div></div>	none	500.0	test	n/a	n/a	n/a	n/a	n/a	n/a	n/a	n/a	n/a	n/a	n/a	n/a	n/a	n/a	n/a	n/a	n/a	n/a	fixation
279012.1354882766	2750	n/a	1247	71	2750	429.864511723	stim	stop-signal	699	1907637	0.0-27.11-1.11	beast_fmri_test	359	1905474,/,1906154,/,1906835,/,1907512,/	t,t,t,t	<img class = center src='/static/experiments/beast_fmri_test/images/B.png'></img>	89,71	2750.0	test	<img class = center src='/static/experiments/beast_fmri_test/images/redB.png'></img>	go	1750.0	2.0	11.0	go	non-target	B	89,Middle Finger	71,Index Finger	850.0	1000.0	1900.0	1750.0	1.0	n/a	1000.0	1.0	go_stim
281762.1354882766	429.86451172329413	n/a	1247	71	2750	429.864511723	stim	stop-signal	699	1907637	0.0-27.11-1.11	beast_fmri_test	359	1905474,/,1906154,/,1906835,/,1907512,/	t,t,t,t	<img class = center src='/static/experiments/beast_fmri_test/images/B.png'></img>	89,71	2750.0	test	<img class = center src='/static/experiments/beast_fmri_test/images/redB.png'></img>	go	1750.0	2.0	11.0	go	non-target	B	89,Middle Finger	71,Index Finger	850.0	1000.0	1900.0	1750.0	1.0	n/a	1000.0	1.0	ITI
283197	500	n/a	-1	-1	500	0.0	fixation	poldrack-single-stim	700	1908642	0.0-27.12-0.12	beast_fmri_test	359	1908193,/	t	<div class = centerbox2><div class = fixation>+</div></div>	none	500.0	test	n/a	n/a	n/a	n/a	n/a	n/a	n/a	n/a	n/a	n/a	n/a	n/a	n/a	n/a	n/a	n/a	n/a	n/a	fixation
282081.19696653355	2750	n/a	1500	71	2750	1117.80303347	stim	stop-signal	701	1911394	0.0-27.12-1.12	beast_fmri_test	359	1908874,/,1909552,/,1910231,/,1910912,/,1911591,/,1912271,/	t,t,t,t,t,t	<img class = center src='/static/experiments/beast_fmri_test/images/P.png'></img>	89,71	2750.0	test	<img class = center src='/static/experiments/beast_fmri_test/images/redP.png'></img>	go	1750.0	2.0	12.0	go	non-target	P	89,Middle Finger	71,Index Finger	850.0	1000.0	1900.0	1750.0	1.0	n/a	1000.0	1.0	go_stim
284831.19696653355	1117.8030334663376	n/a	1500	71	2750	1117.80303347	stim	stop-signal	701	1911394	0.0-27.12-1.12	beast_fmri_test	359	1908874,/,1909552,/,1910231,/,1910912,/,1911591,/,1912271,/	t,t,t,t,t,t	<img class = center src='/static/experiments/beast_fmri_test/images/P.png'></img>	89,71	2750.0	test	<img class = center src='/static/experiments/beast_fmri_test/images/redP.png'></img>	go	1750.0	2.0	12.0	go	non-target	P	89,Middle Finger	71,Index Finger	850.0	1000.0	1900.0	1750.0	1.0	n/a	1000.0	1.0	ITI
287651	500	n/a	-1	-1	500	0.0	fixation	poldrack-single-stim	702	1913096	0.0-27.13-0.13	beast_fmri_test	359	1912952,/	t	<div class = centerbox2><div class = fixation>+</div></div>	none	500.0	test	n/a	n/a	n/a	n/a	n/a	n/a	n/a	n/a	n/a	n/a	n/a	n/a	n/a	n/a	n/a	n/a	n/a	n/a	fixation
287141.34828159865	2750	n/a	1217	71	2750	511.651718401	stim	stop-signal	703	1915848	0.0-27.13-1.13	beast_fmri_test	359	1913630,/,1914311,/,1914989,/,1915670,/,1916350,/	t,t,t,t,t	<img class = center src='/static/experiments/beast_fmri_test/images/D.png'></img>	89,71	2750.0	test	<img class = center src='/static/experiments/beast_fmri_test/images/redD.png'></img>	go	1750.0	2.0	13.0	go	non-target	D	89,Middle Finger	71,Index Finger	850.0	1000.0	1900.0	1750.0	1.0	n/a	1000.0	1.0	go_stim
289891.34828159865	511.65171840132723	n/a	1217	71	2750	511.651718401	stim	stop-signal	703	1915848	0.0-27.13-1.13	beast_fmri_test	359	1913630,/,1914311,/,1914989,/,1915670,/,1916350,/	t,t,t,t,t	<img class = center src='/static/experiments/beast_fmri_test/images/D.png'></img>	89,71	2750.0	test	<img class = center src='/static/experiments/beast_fmri_test/images/redD.png'></img>	go	1750.0	2.0	13.0	go	non-target	D	89,Middle Finger	71,Index Finger	850.0	1000.0	1900.0	1750.0	1.0	n/a	1000.0	1.0	ITI
291496	500	n/a	-1	-1	500	0.0	fixation	poldrack-single-stim	704	1916941	0.0-27.14-0.14	beast_fmri_test	359	n/a	n/a	<div class = centerbox2><div class = fixation>+</div></div>	none	500.0	test	n/a	n/a	n/a	n/a	n/a	n/a	n/a	n/a	n/a	n/a	n/a	n/a	n/a	n/a	n/a	n/a	n/a	n/a	fixation
291456.75507280068	2750	n/a	1186	71	2750	42.2449271992	stim	stop-signal	705	1919694	0.0-27.14-1.14	beast_fmri_test	359	1917030,/,1917709,/,1918388,/,1919068,/	t,t,t,t	<img class = center src='/static/experiments/beast_fmri_test/images/V.png'></img>	89,71	2750.0	test	<img class = center src='/static/experiments/beast_fmri_test/images/redV.png'></img>	go	1750.0	2.0	14.0	go	non-target	V	89,Middle Finger	71,Index Finger	850.0	1000.0	1900.0	1750.0	1.0	n/a	1000.0	1.0	go_stim
294206.75507280068	42.244927199212242	n/a	1186	71	2750	42.2449271992	stim	stop-signal	705	1919694	0.0-27.14-1.14	beast_fmri_test	359	1917030,/,1917709,/,1918388,/,1919068,/	t,t,t,t	<img class = center src='/static/experiments/beast_fmri_test/images/V.png'></img>	89,71	2750.0	test	<img class = center src='/static/experiments/beast_fmri_test/images/redV.png'></img>	go	1750.0	2.0	14.0	go	non-target	V	89,Middle Finger	71,Index Finger	850.0	1000.0	1900.0	1750.0	1.0	n/a	1000.0	1.0	ITI
294877	500	n/a	-1	-1	500	0.0	fixation	poldrack-single-stim	706	1920322	0.0-27.15-0.15	beast_fmri_test	359	1919821,/	t	<div class = centerbox2><div class = fixation>+</div></div>	none	500.0	test	n/a	n/a	n/a	n/a	n/a	n/a	n/a	n/a	n/a	n/a	n/a	n/a	n/a	n/a	n/a	n/a	n/a	n/a	fixation
293032.6262256403	2750	n/a	1102	71	2750	1846.37377436	stim	stop-signal	707	1923074	0.0-27.15-1.15	beast_fmri_test	359	1920428,/,1921106,/,1921786,/,1922466,/,1923147,/,1923826,/,1924505,/	t,t,t,t,t,t,t	<img class = center src='/static/experiments/beast_fmri_test/images/T.png'></img>	89,71	2750.0	test	<img class = center src='/static/experiments/beast_fmri_test/images/redT.png'></img>	go	1750.0	2.0	15.0	go	non-target	T	89,Middle Finger	71,Index Finger	850.0	1000.0	1900.0	1750.0	1.0	n/a	1000.0	1.0	go_stim
295782.6262256403	1846.3737743597446	n/a	1102	71	2750	1846.37377436	stim	stop-signal	707	1923074	0.0-27.15-1.15	beast_fmri_test	359	1920428,/,1921106,/,1921786,/,1922466,/,1923147,/,1923826,/,1924505,/	t,t,t,t,t,t,t	<img class = center src='/static/experiments/beast_fmri_test/images/T.png'></img>	89,71	2750.0	test	<img class = center src='/static/experiments/beast_fmri_test/images/redT.png'></img>	go	1750.0	2.0	15.0	go	non-target	T	89,Middle Finger	71,Index Finger	850.0	1000.0	1900.0	1750.0	1.0	n/a	1000.0	1.0	ITI
300051	500	n/a	-1	-1	500	0.0	fixation	poldrack-single-stim	708	1925496	0.0-27.16-0.16	beast_fmri_test	359	1925184,/	t	<div class = centerbox2><div class = fixation>+</div></div>	none	500.0	test	n/a	n/a	n/a	n/a	n/a	n/a	n/a	n/a	n/a	n/a	n/a	n/a	n/a	n/a	n/a	n/a	n/a	n/a	fixation
297750.7380688861	2750	n/a	1120	71	2750	2302.26193111	stim	stop-signal	709	1928248	0.0-27.16-1.16	beast_fmri_test	359	1925865,/,1926545,/,1927224,/,1927904,/,1928585,/,1929262,/,1929942,/	t,t,t,t,t,t,t	<img class = center src='/static/experiments/beast_fmri_test/images/P.png'></img>	89,71	2750.0	test	<img class = center src='/static/experiments/beast_fmri_test/images/redP.png'></img>	go	1750.0	2.0	16.0	go	non-target	P	89,Middle Finger	71,Index Finger	850.0	1000.0	1900.0	1750.0	1.0	n/a	1000.0	1.0	go_stim
300500.7380688861	2302.2619311139351	n/a	1120	71	2750	2302.26193111	stim	stop-signal	709	1928248	0.0-27.16-1.16	beast_fmri_test	359	1925865,/,1926545,/,1927224,/,1927904,/,1928585,/,1929262,/,1929942,/	t,t,t,t,t,t,t	<img class = center src='/static/experiments/beast_fmri_test/images/P.png'></img>	89,71	2750.0	test	<img class = center src='/static/experiments/beast_fmri_test/images/redP.png'></img>	go	1750.0	2.0	16.0	go	non-target	P	89,Middle Finger	71,Index Finger	850.0	1000.0	1900.0	1750.0	1.0	n/a	1000.0	1.0	ITI
305691	500	n/a	-1	-1	500	0.0	fixation	poldrack-single-stim	710	1931136	0.0-27.17-0.17	beast_fmri_test	359	1930636,/	t	<div class = centerbox2><div class = fixation>+</div></div>	none	500.0	test	n/a	n/a	n/a	n/a	n/a	n/a	n/a	n/a	n/a	n/a	n/a	n/a	n/a	n/a	n/a	n/a	n/a	n/a	fixation
305599.64372706343	2750	n/a	1083	71	2750	94.3562729365	stim	stop-signal	711	1933889	0.0-27.17-1.17	beast_fmri_test	359	1931301,/,1931982,/,1932662,/,1933341,/	t,t,t,t	<img class = center src='/static/experiments/beast_fmri_test/images/P.png'></img>	89,71	2750.0	test	<img class = center src='/static/experiments/beast_fmri_test/images/redP.png'></img>	go	1750.0	2.0	17.0	go	non-target	P	89,Middle Finger	71,Index Finger	850.0	1000.0	1900.0	1750.0	1.0	n/a	1000.0	1.0	go_stim
308349.64372706343	94.356272936469423	n/a	1083	71	2750	94.3562729365	stim	stop-signal	711	1933889	0.0-27.17-1.17	beast_fmri_test	359	1931301,/,1931982,/,1932662,/,1933341,/	t,t,t,t	<img class = center src='/static/experiments/beast_fmri_test/images/P.png'></img>	89,71	2750.0	test	<img class = center src='/static/experiments/beast_fmri_test/images/redP.png'></img>	go	1750.0	2.0	17.0	go	non-target	P	89,Middle Finger	71,Index Finger	850.0	1000.0	1900.0	1750.0	1.0	n/a	1000.0	1.0	ITI
309121	500	n/a	-1	-1	500	0.0	fixation	poldrack-single-stim	712	1934566	0.0-27.18-0.18	beast_fmri_test	359	1934065,/	t	<div class = centerbox2><div class = fixation>+</div></div>	none	500.0	test	n/a	n/a	n/a	n/a	n/a	n/a	n/a	n/a	n/a	n/a	n/a	n/a	n/a	n/a	n/a	n/a	n/a	n/a	fixation
308722.05996529595	850.0	n/a	-1	-1	2750	399.940034704	stim	stop-signal	713	1937317	0.0-27.18-1.18	beast_fmri_test	359	1934701,/,1935379,/,1936061,/,1936743,/,1937420,/	t,t,t,t,t	<img class = center src='/static/experiments/beast_fmri_test/images/P.png'></img>	89,71	2750.0	test	<img class = center src='/static/experiments/beast_fmri_test/images/redP.png'></img>	stop	1900.0	2.0	18.0	stop	target	P	89,Middle Finger	71,Index Finger	850.0	1000.0	1900.0	1750.0	0.0	1.0	850.0	n/a	go_stim
310622.05996529595	1900.0	n/a	-1	-1	2750	399.940034704	stim	stop-signal	713	1937317	0.0-27.18-1.18	beast_fmri_test	359	1934701,/,1935379,/,1936061,/,1936743,/,1937420,/	t,t,t,t,t	<img class = center src='/static/experiments/beast_fmri_test/images/P.png'></img>	89,71	2750.0	test	<img class = center src='/static/experiments/beast_fmri_test/images/redP.png'></img>	stop	1900.0	2.0	18.0	stop	target	P	89,Middle Finger	71,Index Finger	850.0	1000.0	1900.0	1750.0	0.0	1.0	850.0	n/a	stop_stim
311472.05996529595	399.94003470407858	n/a	-1	-1	2750	399.940034704	stim	stop-signal	713	1937317	0.0-27.18-1.18	beast_fmri_test	359	1934701,/,1935379,/,1936061,/,1936743,/,1937420,/	t,t,t,t,t	<img class = center src='/static/experiments/beast_fmri_test/images/P.png'></img>	89,71	2750.0	test	<img class = center src='/static/experiments/beast_fmri_test/images/redP.png'></img>	stop	1900.0	2.0	18.0	stop	target	P	89,Middle Finger	71,Index Finger	850.0	1000.0	1900.0	1750.0	0.0	1.0	850.0	n/a	ITI
312849	500	n/a	-1	-1	500	0.0	fixation	poldrack-single-stim	714	1938294	0.0-27.19-0.19	beast_fmri_test	359	1938099,/	t	<div class = centerbox2><div class = fixation>+</div></div>	none	500.0	test	n/a	n/a	n/a	n/a	n/a	n/a	n/a	n/a	n/a	n/a	n/a	n/a	n/a	n/a	n/a	n/a	n/a	n/a	fixation
311760.38084253762	1000.0	n/a	-1	-1	2750	1089.61915746	stim	stop-signal	715	1941045	0.0-27.19-1.19	beast_fmri_test	359	1938779,/,1939458,/,1940139,/,1940818,/,1941499,/	t,t,t,t,t	<img class = center src='/static/experiments/beast_fmri_test/images/D.png'></img>	89,71	2750.0	test	<img class = center src='/static/experiments/beast_fmri_test/images/redD.png'></img>	stop	1750.0	2.0	19.0	stop	non-target	D	89,Middle Finger	71,Index Finger	900.0	1000.0	1900.0	1750.0	0.0	1.0	1000.0	n/a	go_stim
313510.38084253762	1750.0	n/a	-1	-1	2750	1089.61915746	stim	stop-signal	715	1941045	0.0-27.19-1.19	beast_fmri_test	359	1938779,/,1939458,/,1940139,/,1940818,/,1941499,/	t,t,t,t,t	<img class = center src='/static/experiments/beast_fmri_test/images/D.png'></img>	89,71	2750.0	test	<img class = center src='/static/experiments/beast_fmri_test/images/redD.png'></img>	stop	1750.0	2.0	19.0	stop	non-target	D	89,Middle Finger	71,Index Finger	900.0	1000.0	1900.0	1750.0	0.0	1.0	1000.0	n/a	stop_stim
314510.38084253762	1089.6191574624111	n/a	-1	-1	2750	1089.61915746	stim	stop-signal	715	1941045	0.0-27.19-1.19	beast_fmri_test	359	1938779,/,1939458,/,1940139,/,1940818,/,1941499,/	t,t,t,t,t	<img class = center src='/static/experiments/beast_fmri_test/images/D.png'></img>	89,71	2750.0	test	<img class = center src='/static/experiments/beast_fmri_test/images/redD.png'></img>	stop	1750.0	2.0	19.0	stop	non-target	D	89,Middle Finger	71,Index Finger	900.0	1000.0	1900.0	1750.0	0.0	1.0	1000.0	n/a	ITI
317266	500	n/a	-1	-1	500	0.0	fixation	poldrack-single-stim	716	1942711	0.0-27.20-0.20	beast_fmri_test	359	1942209,/	t	<div class = centerbox2><div class = fixation>+</div></div>	none	500.0	test	n/a	n/a	n/a	n/a	n/a	n/a	n/a	n/a	n/a	n/a	n/a	n/a	n/a	n/a	n/a	n/a	n/a	n/a	fixation
316006.77031205129	2750	n/a	1586	89	2750	1260.22968795	stim	stop-signal	717	1945462	0.0-27.20-1.20	beast_fmri_test	359	1942858,/,1943537,/,1944217,/,1944897,/,1945576,/,1946256,/	t,t,t,t,t,t	<img class = center src='/static/experiments/beast_fmri_test/images/P.png'></img>	89,71	2750.0	test	<img class = center src='/static/experiments/beast_fmri_test/images/redP.png'></img>	go	1850.0	2.0	20.0	go	target	P	89,Middle Finger	71,Index Finger	900.0	1050.0	1850.0	1750.0	1.0	n/a	900.0	1.0	go_stim
318756.77031205129	1260.2296879486294	n/a	1586	89	2750	1260.22968795	stim	stop-signal	717	1945462	0.0-27.20-1.20	beast_fmri_test	359	1942858,/,1943537,/,1944217,/,1944897,/,1945576,/,1946256,/	t,t,t,t,t,t	<img class = center src='/static/experiments/beast_fmri_test/images/P.png'></img>	89,71	2750.0	test	<img class = center src='/static/experiments/beast_fmri_test/images/redP.png'></img>	go	1850.0	2.0	20.0	go	target	P	89,Middle Finger	71,Index Finger	900.0	1050.0	1850.0	1750.0	1.0	n/a	900.0	1.0	ITI
321853	500	n/a	-1	-1	500	0.0	fixation	poldrack-single-stim	718	1947298	0.0-27.21-0.21	beast_fmri_test	359	1946936,/	t	<div class = centerbox2><div class = fixation>+</div></div>	none	500.0	test	n/a	n/a	n/a	n/a	n/a	n/a	n/a	n/a	n/a	n/a	n/a	n/a	n/a	n/a	n/a	n/a	n/a	n/a	fixation
321441.14822995313	2750	n/a	1135	71	2750	413.851770047	stim	stop-signal	719	1950050	0.0-27.21-1.21	beast_fmri_test	359	1947615,/,1948294,/,1948974,/,1949653,/,1950334,/	t,t,t,t,t	<img class = center src='/static/experiments/beast_fmri_test/images/T.png'></img>	89,71	2750.0	test	<img class = center src='/static/experiments/beast_fmri_test/images/redT.png'></img>	go	1700.0	2.0	21.0	go	non-target	T	89,Middle Finger	71,Index Finger	900.0	1050.0	1850.0	1700.0	1.0	n/a	1050.0	1.0	go_stim
